# PAMAP2 dataset (wrist-mounted sensor)

acc_x[mg],acc_y[mg],acc_z[mg]
-555.3554,660.90027,314.0932
-581.7463,550.31885,308.6105
-647.12427,446.2413,317.6719
-688.63477,469.36194,253.11905
-682.581,393.75357,187.68103
-750.2617,462.4454,169.77774
-906.0996,493.0187,189.28154
-1147.4601,511.85364,204.30238
-1307.5818,461.32147,245.49463
-1417.826,473.98117,377.13214
-1527.1786,613.28986,459.0964
-1495.7745,622.3372,420.36072
-1248.1718,588.00616,434.72913
-1193.5094,610.5577,473.9685
-1169.8617,579.7989,483.76294
-1102.3074,513.69904,285.27805
-1131.6299,497.91364,289.73718
-1053.7305,487.06656,236.76236
-862.3432,305.2821,196.58269
-664.9103,372.81195,257.22177
-601.30945,388.1227,282.54922
-436.14612,489.09186,289.06573
-299.463,359.51257,313.87375
-180.2168,311.14505,248.77458
-80.81149,225.24367,242.03676
-127.7089,120.990616,166.7045
-247.54721,-311.3807,119.63033
-231.76411,2238.018,1252.3822
-298.75067,1161.9072,531.5125
-728.1165,415.40118,211.87854
-744.75037,1007.9335,488.5264
-560.48315,609.3044,301.9121
-455.8163,745.74695,316.2792
-433.9167,706.9716,295.13373
-368.3574,803.0978,284.10434
-382.97577,680.2654,216.01843
-425.4983,736.73376,285.66806
-488.59653,654.8485,230.16052
-546.2849,759.10767,243.3998
-633.0972,723.434,225.11067
-701.3076,685.05023,247.39697
-861.8135,722.9566,249.30112
-1058.539,826.81586,315.7202
-1256.5607,713.3417,206.37659
-1608.27,840.9481,447.0479
-1532.8188,-230.97455,532.8729
-1366.8519,707.4681,390.71896
-1063.0011,1093.093,345.9654
-993.10803,725.36053,443.8829
-838.30054,553.6972,189.66289
-755.36066,760.0017,252.60925
-720.7579,754.0641,292.0902
-591.7581,615.7984,241.73573
-453.53537,519.9466,133.50302
-416.9753,637.9178,219.9688
-460.48764,482.2397,202.8943
-328.46088,662.1892,111.368965
-559.1228,471.59555,125.91715
-463.6145,605.0627,68.0466
-518.8766,345.81943,8.138545
-557.62024,304.34348,-16.997759
-430.0187,-38.81185,79.76711
-854.1115,2237.9263,752.13574
-450.5395,990.5995,399.49313
-629.9971,784.5337,405.30023
-546.2482,944.0279,311.86563
-404.2558,675.3033,327.2836
-500.20993,798.6798,348.55
-421.8223,577.69885,221.64
-459.6652,600.5947,231.0552
-496.142,640.7712,209.72441
-600.8053,711.01306,205.4338
-583.99396,672.4178,145.26492
-696.05273,876.7042,85.9976
-884.4198,866.1414,210.03325
-1074.0978,768.04517,208.8552
-1066.9008,479.67728,335.34073
-976.7386,538.0799,293.6706
-942.8909,1447.9983,298.2786
-971.623,1588.7466,384.7855
-912.23804,1225.0461,313.69925
-863.8063,1067.9719,347.0837
-796.19604,1004.3793,306.05734
-790.39307,884.1242,251.33667
-701.4806,697.37976,237.60051
-585.81995,507.1885,177.6628
-502.00842,378.86563,133.656
-342.78436,267.43344,58.841274
-429.88382,371.5233,101.47596
-424.19174,432.40677,53.38173
-514.4554,471.24057,57.81599
-553.08264,342.16782,-12.195301
-647.951,337.19574,-31.742552
-607.09467,130.43562,-13.782281
-994.9611,1504.3373,443.8637
-614.93896,1708.9772,443.30994
-698.1165,645.50964,283.03168
-1136.6339,1022.20447,393.46362
-1039.0249,412.08124,183.63191
-1055.1743,471.15427,239.63277
-804.9501,460.74658,262.1
-646.9304,652.7732,356.39352
-585.1941,435.1452,366.62448
-606.1933,408.63,327.34164
-627.20715,355.07278,241.43849
-691.1044,438.6459,209.04803
-697.1562,274.36737,83.607285
-900.1978,274.37195,122.811104
-1259.9143,513.16943,283.06613
-1374.073,703.4241,303.38046
-1342.3784,616.2406,245.6082
-1393.4537,886.6582,357.99835
-1161.618,789.8375,345.82977
-1274.4752,732.6634,360.43784
-1245.8494,742.37286,358.92853
-1283.6815,746.2119,318.8782
-1239.0315,737.82635,295.45395
-1130.743,704.8749,188.56412
-947.734,481.2316,104.72693
-783.9956,431.19586,72.33769
-760.3425,434.99072,126.18338
-634.95575,308.4403,123.5276
-504.31506,273.0416,70.7481
-418.69696,258.51364,97.68292
-387.77164,245.63408,58.46977
-378.49597,216.25104,80.02157
-437.05554,-94.30604,6.5138474
-845.2441,236.95721,139.41345
-417.26443,2482.4563,1149.519
-347.77228,975.54913,460.8556
-822.5087,714.26587,419.6369
-881.57056,952.3217,469.7743
-833.78326,532.43896,289.2746
-735.22205,616.56555,326.43967
-578.79395,693.9606,233.90178
-435.70255,707.023,263.314
-463.56796,580.3796,289.5733
-519.3694,543.17596,292.6451
-509.66354,532.0817,252.68103
-556.8966,569.36914,304.4597
-701.73444,492.96454,290.86862
-888.4474,520.4759,252.56386
-1092.7095,607.37854,222.2206
-1266.1909,421.52475,293.5393
-1673.1666,174.66652,446.1269
-1628.7604,548.28455,426.5341
-1526.3518,701.7196,293.33582
-1216.9937,690.6534,436.86765
-1090.8861,625.80035,369.98837
-1076.8931,689.1678,266.78455
-1017.1012,602.2253,227.60977
-937.661,516.98553,115.804955
-823.6025,672.7122,53.012093
-696.7817,688.19934,146.69783
-619.75525,594.30566,131.5398
-520.8999,527.58093,93.34873
-448.6143,460.81558,50.147316
-416.9094,566.26294,50.83129
-430.32092,419.89667,-50.60115
-367.91248,258.7894,-54.89733
-561.9424,144.32442,-24.973766
-475.59464,748.3289,66.84118
-596.66205,2084.3638,345.9817
-485.43512,722.289,126.316795
-631.09607,1009.52924,275.58572
-658.72974,996.539,224.09259
-580.98834,655.573,315.25092
-549.4691,752.05865,266.14917
-472.7225,744.5523,235.68044
-504.6954,722.7843,225.40364
-532.1003,585.6612,277.3919
-592.7288,569.56274,277.3377
-620.14795,602.1719,250.34904
-561.6115,603.47076,152.94862
-680.86426,756.729,128.96652
-833.56006,808.3093,150.42654
-967.219,746.9062,178.2476
-1068.3079,595.1874,219.37793
-1184.8531,661.5716,289.38278
-1186.8907,1097.9083,325.53903
-1052.2672,1137.1832,364.78583
-936.12085,1162.9573,312.56854
-914.5482,1077.5195,270.75217
-934.9164,1030.2421,309.0971
-847.26025,916.0581,258.15555
-736.2894,698.9925,181.28197
-657.34204,720.8259,194.7809
-564.07806,579.28625,183.11835
-489.21518,567.4781,157.29012
-433.6455,353.91904,150.22997
-294.13605,301.55698,35.593693
-303.25925,323.6616,54.011745
-325.3114,394.38992,76.88212
-453.55237,365.94308,80.88584
-570.92126,296.2885,117.717186
-679.5227,377.23868,112.59446
-873.64514,1668.0254,282.41785
-916.84265,1541.7458,139.60399
-845.04706,698.43536,233.62584
-903.3646,1160.4423,364.06735
-841.20776,757.6344,220.11009
-720.478,703.1122,319.59555
-572.25305,619.9294,323.25186
-458.4645,687.03577,272.81293
-477.58942,545.64124,273.3245
-482.85788,482.0226,294.1075
-530.65814,512.24207,244.06372
-640.86707,572.35144,158.5368
-752.52686,497.95966,107.155396
-995.6741,581.179,119.25698
-1313.2092,700.15546,262.5465
-1317.4343,609.4872,98.17175
-1245.0024,639.5479,157.12938
-1239.0718,763.0106,327.54373
-1167.7933,834.2257,276.85678
-1179.3824,1006.0061,255.64862
-1043.83,949.19666,256.0662
-1052.5447,895.04987,209.32916
-1020.9981,829.4675,249.50052
-881.5565,790.71936,247.0431
-755.4582,655.4146,133.53726
-667.2122,609.2351,153.92369
-585.6109,593.69916,167.07335
-584.0273,562.5218,63.916313
-447.42706,457.59317,60.75098
-395.37515,471.6965,8.582945
-420.33255,495.67276,61.709377
-367.37698,465.04514,43.061893
-430.83203,393.7168,97.893295
-433.8409,0.58695424,-51.27309
-469.77423,301.75507,255.16441
-720.5964,2502.8916,953.0188
-479.9461,865.9281,376.07373
-892.49365,693.53827,439.6448
-832.1231,882.3468,198.89174
-658.1499,734.49146,333.74304
-468.5162,856.2288,177.99095
-443.51044,729.58826,158.86815
-462.0962,724.683,190.80255
-602.39514,496.95584,221.27568
-606.378,457.4017,129.86163
-543.53674,462.04755,177.38664
-489.6283,472.16095,190.30904
-592.41064,586.1118,251.72427
-811.1172,873.69696,193.87527
-1023.1561,820.2094,126.019745
-1145.4607,858.6674,120.123474
-1266.0187,612.9023,319.03452
-1395.4738,926.6221,178.53728
-1274.5537,1522.9242,142.64694
-966.7076,1455.8217,114.83867
-935.60504,1381.5068,163.29689
-872.6288,1548.9713,33.66258
-894.9498,1166.5679,23.921816
-766.11017,752.605,-172.35886
-653.211,820.91785,15.541771
-562.89404,517.11426,18.583044
-469.6568,216.75089,-6.5946174
-365.75116,253.94446,88.382866
-366.35397,188.10715,70.90353
-409.1062,318.36026,63.425026
-562.31464,355.98434,69.61391
-528.1446,449.97513,102.84542
-524.46967,680.74713,241.107
-672.33295,335.0455,137.46591
-804.6127,-625.02826,-161.49397
-1879.5844,1393.3705,438.86435
-1178.8077,3086.9434,538.19495
-608.88794,648.0102,312.7612
-888.4657,1199.4976,351.00308
-683.02405,662.8821,194.99059
-660.5564,731.7199,199.2782
-464.78735,515.20264,66.20557
-404.3324,700.7864,-9.455343
-436.80563,448.41397,-55.699444
-558.07684,447.8294,50.292847
-663.9147,178.15733,7.505532
-832.497,549.0307,142.29605
-983.8674,238.0285,66.407776
-1464.0579,253.50247,361.84006
-1358.9122,640.6814,270.62772
-1573.622,778.4557,201.32234
-1550.8,582.6779,203.08578
-1327.5573,654.8972,0.53271943
-1175.2554,1126.0328,207.64207
-1128.5674,840.50806,141.50655
-1201.2825,672.7158,76.01503
-1162.1111,677.93976,145.53842
-1106.4943,756.9413,84.23536
-1070.4169,819.22614,43.1927
-834.1092,583.12836,266.69455
-675.286,666.5438,278.90945
-608.6654,556.95905,333.80176
-555.1315,323.2066,128.20071
-379.88086,353.24545,30.270096
-396.59088,298.06256,151.11845
-309.58426,288.73248,211.35199
-317.86316,358.4256,292.41367
-501.17383,135.1884,249.70876
-618.0499,439.2582,32.378986
-777.3042,949.3294,423.6851
-634.8281,1383.6714,975.87964
-526.39764,1058.3942,598.0169
-553.6083,761.56476,562.4918
-614.0047,746.8985,521.7643
-576.96094,657.95984,361.5049
-444.49893,686.2524,325.00903
-403.52075,868.3409,183.09369
-358.06177,826.5443,204.91817
-499.49606,709.4393,279.8355
-581.44214,522.81836,230.97455
-549.9894,449.90317,189.98619
-354.45996,574.2321,186.08875
-424.7125,709.33734,200.70271
-761.88464,1149.3297,285.67007
-845.5393,923.9878,329.98853
-921.73413,979.4574,252.00772
-1121.1077,964.55396,403.86322
-1410.0842,982.68604,345.95264
-1323.2085,1332.5293,305.95926
-1081.9313,944.097,386.14545
-936.0644,927.8896,353.2632
-909.1116,872.9543,306.4527
-830.3771,804.97003,313.85803
-655.9348,491.13794,188.47789
-551.6814,642.4542,143.97073
-509.97018,570.6887,221.01219
-474.4205,408.10486,205.1208
-316.1969,524.0213,73.21074
-448.00403,616.8015,197.77855
-342.01196,568.82837,87.6477
-450.49594,586.84296,153.11757
-306.4779,408.27972,93.79374
-448.16702,421.6321,220.38252
-340.60474,6.761861,-91.07804
-729.22406,957.0815,689.519
-703.43713,2115.5483,913.0047
-689.74554,384.0103,106.86097
-958.6462,882.0594,386.0855
-694.4414,762.2297,308.63
-622.97687,597.871,457.29095
-576.4695,469.3416,391.98578
-560.27795,497.11255,416.12634
-622.8694,403.98532,396.93848
-693.73193,358.71738,530.4475
-794.03796,372.34653,488.22186
-806.2932,373.0496,396.70966
-909.541,325.07758,304.64
-1032.0114,403.2288,243.96484
-1193.9869,354.66812,158.67532
-1224.5972,407.9292,91.45242
-1377.636,752.44794,94.06031
-1298.1249,938.3667,69.42874
-1373.9801,938.6139,118.45025
-1240.482,852.6849,296.17548
-1102.6068,685.69824,333.5957
-1103.3687,759.2468,521.65985
-1201.0491,637.8716,459.83057
-1126.628,538.60345,356.92462
-1056.1257,487.98102,392.65326
-822.99335,467.94516,374.17093
-706.34515,335.29077,275.19058
-488.77145,366.15048,199.42032
-523.98645,459.05054,151.2833
-492.65622,445.91718,151.70772
-300.2077,328.722,110.42346
-364.42136,439.88596,143.83144
-331.44446,338.26093,102.76268
-432.65707,175.96097,21.189892
-628.3339,227.95541,155.3167
-828.9592,1841.9193,948.90076
-574.89246,1617.6179,466.322
-658.70654,481.22272,217.10297
-669.663,837.85065,467.39322
-549.6098,799.0486,465.86966
-435.6522,639.0493,314.34494
-463.8777,705.9802,317.60663
-426.951,613.3511,302.6941
-520.15796,503.10117,336.55853
-587.4286,502.45798,373.47208
-630.618,578.6813,425.8477
-719.2534,577.5857,444.36798
-844.71173,649.4227,398.0041
-1139.9994,693.87744,312.15057
-1278.5262,830.91394,178.78401
-1092.5599,622.28186,114.868805
-1293.3777,543.14655,163.1537
-1543.5171,493.77533,224.55455
-1541.4248,734.1824,174.88635
-1180.0631,748.06525,226.54424
-1175.1143,709.91144,390.98907
-965.8538,610.7564,330.31073
-975.814,605.0659,265.04486
-950.8202,526.9611,165.08212
-947.8113,602.26,151.08571
-806.0624,386.56906,79.76403
-644.3486,365.1676,80.16998
-391.70294,326.79578,-44.257095
-480.28137,419.74594,172.88548
-419.01196,487.87894,116.03128
-464.4077,643.3141,146.86426
-469.5369,255.22357,-62.472496
-569.55585,152.5931,-35.824158
-531.34625,-322.19717,-38.235092
-1284.638,2337.1643,836.0885
-657.79785,1530.7539,399.31128
-838.6292,323.15295,221.56477
-845.47174,1078.6017,230.42987
-648.002,535.8951,172.90564
-602.84094,707.2543,193.88939
-496.86713,504.63733,102.15427
-556.03296,639.7263,196.0132
-559.889,345.28116,196.12857
-651.0426,476.51138,290.07504
-661.1863,421.26465,234.80357
-787.11316,509.25644,193.95042
-1047.8806,465.88824,135.94867
-1347.4453,222.12552,192.66325
-1407.2012,268.15076,137.42053
-1519.5325,800.2972,163.84087
-1457.7666,974.386,226.90604
-1311.7043,929.8009,234.15941
-1268.74,846.00635,423.27774
-1154.6797,581.53564,266.50687
-1067.5936,623.14343,176.41238
-966.508,761.70386,115.41036
-902.6686,673.5203,26.532413
-851.67566,707.9388,-49.84638
-751.2948,640.49347,45.917854
-673.18,629.4356,9.01475
-650.8386,610.4326,0.8749475
-617.1581,483.25745,-81.620056
-659.5174,509.0001,58.228096
-598.23206,249.26616,23.049662
-467.596,210.44951,124.18286
-416.27087,-597.672,-143.068
-569.4751,1195.9445,427.39584
-104.182976,2013.7611,630.9693
-481.6194,674.5933,120.464836
-803.2892,1091.4413,385.5328
-883.36646,496.02664,218.60756
-745.2785,782.2381,398.18674
-535.9893,519.3359,308.90118
-432.8625,714.23785,424.6707
-475.4382,473.52008,331.50092
-566.809,500.85696,354.7682
-696.69617,365.48578,232.75398
-697.3637,671.00555,233.37468
-737.4492,588.1577,130.5021
-803.42395,608.4901,177.51877
-1048.3773,569.80316,54.358994
-1092.7789,630.98566,56.831944
-1392.3767,406.78842,68.8332
-1728.1769,635.3283,303.36765
-1547.2777,933.3366,11.942842
-1179.3622,1173.9321,30.007702
-986.6772,791.7255,237.43079
-972.15924,1000.44684,250.75154
-925.0307,842.7031,174.8306
-909.12634,893.5062,108.73727
-904.3559,738.36084,107.79371
-807.1145,752.6214,81.56441
-703.22314,426.12604,99.76327
-630.31177,551.1574,84.26853
-557.41205,406.21896,92.48007
-308.5333,608.57837,76.495514
-501.11722,426.27893,78.82442
-266.9124,506.05557,-54.02763
-331.10156,-31.705656,-25.140303
-695.7854,104.393936,148.10522
-657.1116,501.53677,101.460724
-913.5776,1935.8014,437.06628
-900.0369,855.2149,404.81888
-953.0603,614.0482,315.52896
-965.4213,793.83234,208.03705
-724.0036,611.1695,320.3337
-641.5595,581.9516,242.47514
-519.0094,555.2238,232.05237
-549.9066,221.8033,158.05896
-633.02515,237.43147,159.08585
-744.12897,518.2653,137.65196
-761.3072,465.33078,52.449337
-922.60297,696.15784,-161.4705
-1212.2063,856.0187,189.73407
-1375.1951,401.41977,347.85434
-1323.2775,602.1722,298.19623
-1454.1909,806.49457,300.7267
-1280.4773,1006.0281,348.36496
-1095.8257,790.32874,297.61475
-967.5574,1007.57355,323.40344
-1179.9674,863.90967,306.012
-1227.3354,827.91895,229.99483
-1198.1046,618.6187,88.579636
-1016.96747,641.62854,12.073037
-957.431,577.5805,-13.599664
-828.06635,638.5979,53.903763
-683.0272,392.11136,-7.8081827
-461.36908,374.72495,49.19509
-535.1092,249.04327,45.796127
-657.00433,484.7821,145.9698
-669.53033,207.67505,-5.356303
-711.03455,169.57721,-5.860203
-618.8854,-460.997,-207.15613
-1004.78625,598.9353,417.371
-453.92798,2505.3071,832.42896
-704.80786,695.7483,56.815468
-994.1158,1018.3546,423.08636
-920.8138,678.33966,268.43082
-795.5285,635.3715,456.0713
-649.5775,514.77045,333.09903
-508.17975,578.0911,350.96695
-463.76602,526.2362,319.17154
-486.65994,456.2092,370.54233
-635.25726,477.8534,281.7024
-651.82196,513.8102,237.55
-747.11523,572.20386,194.90302
-909.1785,677.2456,194.69753
-1057.2197,765.54047,100.7242
-1089.8903,645.803,135.70691
-1280.1914,699.9851,220.37848
-1304.8654,1064.8741,225.378
-1150.1908,1187.1909,90.25866
-1211.716,1197.6144,175.30759
-1067.8309,1094.0482,202.52176
-1235.0775,1037.0973,174.10703
-1197.6555,1076.0205,172.88373
-1069.9689,777.9781,213.49364
-849.991,625.48,182.31456
-643.72815,449.46445,168.31494
-370.18857,185.94044,89.706856
-279.6436,63.697784,123.963745
-177.09853,398.14627,119.12378
-583.8289,577.0396,160.29709
-725.2233,154.01205,-81.86993
-842.52893,385.27872,-130.15988
-748.94867,108.5776,-36.18451
-1030.8807,302.1683,76.63513
-606.0318,2067.2979,784.9569
-512.0226,1029.0834,462.0409
-652.58466,1138.1259,432.54816
-832.4168,795.7029,424.63266
-828.63104,591.41064,354.60324
-777.11163,565.1255,346.8092
-562.5939,645.3272,298.55408
-510.1207,669.4933,265.03067
-487.63858,504.4394,237.12878
-552.16125,463.5578,248.7011
-553.20605,185.07121,177.72668
-647.511,557.2118,171.05446
-721.0671,939.71344,219.55035
-1051.9279,603.1473,194.36949
-1242.3198,726.9638,160.91956
-1413.6421,643.3235,88.284325
-1593.1785,765.13654,152.23283
-1506.3197,773.49646,118.56218
-1412.7975,625.19745,101.14346
-1185.4651,672.4722,326.03943
-1162.8506,821.43665,247.41153
-1125.2504,621.22156,156.20029
-1023.9569,698.89404,179.73926
-971.98444,697.9287,171.74821
-849.4803,707.8027,100.416985
-724.90295,638.34973,84.689255
-609.6318,655.108,67.91249
-515.50244,314.058,72.50407
-336.66122,401.29132,29.36402
-350.14026,215.4862,166.203
-576.56354,238.25143,94.34349
-456.89838,175.31847,95.38421
-867.3375,-77.14434,-44.354538
-1021.3095,178.04318,109.54982
-1288.4854,2028.6469,498.66837
-731.2743,1601.3037,412.62128
-876.111,677.9001,264.8222
-789.8002,1129.8721,349.41446
-624.24744,539.6093,244.02512
-560.5092,594.81805,248.15776
-539.825,644.0325,195.09215
-433.0029,666.22754,140.36702
-495.61407,542.19855,136.53662
-518.3185,520.4477,235.88779
-672.6423,495.0038,248.39262
-786.2069,474.1579,236.33763
-942.4717,356.606,149.54254
-1177.602,508.31973,175.07446
-1440.6675,554.8515,290.20187
-1606.4371,380.35815,297.7326
-1688.2533,696.34375,216.36832
-1444.9941,582.11456,263.4162
-1179.6335,693.2445,337.14948
-1048.3213,689.6448,392.8011
-1077.8546,615.0824,350.82126
-986.89734,513.4384,206.69804
-1003.22003,643.1914,133.20792
-970.35394,747.60626,24.077333
-1043.859,858.46356,-114.506325
-804.5982,435.38034,-107.44534
-729.3127,385.4241,72.17493
-522.22644,419.46353,122.80649
-483.31976,436.31116,145.81459
-604.99176,440.68643,147.93866
-406.54462,121.81033,-91.43962
-524.37244,24.700325,-53.988758
-730.35315,-242.95612,-184.1788
-1179.1628,907.0706,685.8202
-881.4105,2250.4465,806.14514
-784.7986,624.85333,169.29176
-928.19934,861.106,386.38412
-766.2196,670.2243,290.2215
-668.1045,537.0551,376.4353
-585.5957,562.96173,278.792
-592.0385,573.32574,277.5882
-648.6392,416.19238,223.35777
-622.38776,463.8662,259.35046
-666.29504,462.627,195.48663
-750.7525,492.03705,208.42795
-928.6776,334.87302,139.19872
-1230.0449,581.3849,146.59142
-1351.7499,538.3557,180.55678
-1369.9252,508.2524,311.6752
-1494.5378,575.4122,254.94421
-1699.8351,744.7133,283.75403
-1339.6816,516.7415,277.33557
-1229.3269,489.57855,339.10373
-1175.0964,560.2717,353.41742
-1041.9442,517.6131,325.54364
-965.22504,531.27466,254.31549
-1024.5625,651.5291,274.18756
-857.3174,522.42505,36.736687
-711.0983,309.79572,56.458233
-472.93857,312.54645,38.692566
-436.66797,428.6528,134.098
-607.5516,398.27182,145.83017
-561.76294,494.48294,110.352165
-656.7734,125.41026,-14.406542
-643.685,196.91968,-35.726707
-804.3262,-475.1209,-169.98033
-1257.1593,1683.0354,478.32452
-892.65784,2075.1782,536.0949
-854.6729,291.45056,110.331635
-1056.7189,988.49445,360.88272
-754.9482,689.4527,173.10466
-692.28564,531.1739,253.83989
-567.1042,491.03973,204.82756
-505.33655,565.2735,222.69623
-466.5887,496.79636,329.59396
-578.8558,396.55362,520.61584
-621.6652,532.0154,307.39743
-720.9296,849.1309,233.4433
-1012.98346,787.7103,135.97113
-1168.6577,344.2319,150.54549
-1362.6683,446.86087,210.63779
-1318.3735,1183.4799,238.44084
-1173.7189,1221.7426,242.78387
-1101.7314,1070.77,256.99918
-1121.2056,995.9349,265.66003
-1171.9071,995.4253,229.75288
-1245.8833,823.79565,215.59285
-1137.4504,810.6902,247.92961
-974.8311,543.1118,212.26831
-714.6163,410.75327,208.28777
-540.4046,377.12378,143.28448
-499.75885,401.4043,158.8565
-401.4159,277.12503,64.70278
-454.4239,401.46057,92.122765
-524.43616,385.6574,60.63038
-591.0186,445.81833,76.42304
-618.2669,271.99667,27.195486
-716.6403,61.795994,-16.089432
-852.1896,7.0844245,-105.47419
-993.14246,2355.8933,711.6125
-572.50433,1647.2606,690.5718
-775.6693,506.66852,331.83914
-930.49,1070.2168,514.9512
-788.8391,590.6571,351.6211
-654.9452,640.70685,323.48172
-535.65784,541.77234,241.16835
-470.52576,599.3256,216.07346
-475.1377,458.38892,195.55809
-545.9384,560.5691,255.45207
-608.1549,564.92004,240.51895
-706.5891,665.24896,213.20139
-777.3465,537.6167,168.53476
-1052.3522,529.66846,184.32333
-1299.4465,549.86896,199.80975
-1408.7102,504.52576,217.63037
-1575.0343,314.85446,191.09103
-1550.7142,281.00208,204.29193
-1436.5345,438.20966,319.15588
-1139.3025,605.11536,369.32733
-1133.5409,475.49994,310.27084
-1019.011,420.79575,305.8256
-886.1961,367.61517,212.20697
-884.27716,559.67834,161.6983
-992.82684,537.35864,108.83141
-1063.2738,642.06,47.303085
-952.92725,552.263,-27.422972
-752.9712,526.2261,33.704674
-771.23315,563.429,82.55434
-641.9067,724.8759,30.688942
-541.9272,460.65918,7.276741
-409.9609,422.69772,111.40939
-414.20547,166.41171,78.64915
-383.00067,89.85301,188.7518
-806.3139,48.48764,158.08589
-1229.9453,1050.4556,429.38724
-1078.8613,1789.133,486.11462
-805.5848,376.46823,249.87582
-788.7855,682.37317,359.98608
-661.21735,865.9792,406.48087
-552.22296,386.22867,315.58676
-573.76575,432.48822,238.11455
-532.81836,290.024,235.63403
-604.9998,353.05585,168.75656
-766.88275,406.4216,107.95676
-948.8,585.928,129.28247
-1161.0729,482.137,213.88156
-1390.916,625.92755,284.46445
-1449.65,725.44403,235.57751
-1449.0339,983.00684,395.15848
-1296.7275,906.4809,302.1811
-1213.4901,1014.11096,284.6099
-1124.9501,827.73456,297.41046
-1163.7474,754.90405,213.8727
-1042.3934,717.18085,218.29344
-902.8195,665.8078,177.36955
-773.16034,539.16473,112.95814
-744.2562,559.1173,74.53123
-673.427,510.9654,70.158424
-576.56323,425.5974,133.46674
-504.68674,169.79433,103.24653
-297.43182,248.0433,-5.5743456
-476.0821,-40.11236,109.015015
-489.08792,90.30726,84.13809
-587.9829,-209.5496,243.29778
-362.41287,2402.5034,1066.1361
-232.63716,1152.6874,234.8749
-865.9321,879.62103,209.20738
-938.05023,1052.6968,191.43336
-969.49805,720.6222,154.83235
-837.1133,724.94037,240.47992
-710.4202,538.35034,291.12488
-630.2108,552.12476,325.1003
-574.33685,340.34793,298.18024
-560.3382,445.2742,292.93503
-621.4688,418.60297,268.6456
-654.54126,539.414,286.74966
-839.8365,710.6223,288.05432
-1034.8838,942.6921,237.18787
-1045.324,758.7673,171.60979
-1217.1492,760.39325,244.6808
-1102.4392,208.39291,448.16876
-1111.6858,933.95874,487.80176
-1144.3284,1351.632,474.3957
-1208.616,1160.2087,384.2239
-1147.3909,1000.03876,298.23367
-1049.4384,859.3611,170.67459
-981.3898,804.0316,116.574455
-803.245,746.1723,108.46107
-665.74866,587.5682,80.03321
-499.98584,409.46368,72.29931
-429.9094,294.36533,79.489296
-391.4664,465.42563,-8.613437
-554.13794,346.9708,-18.677153
-379.0486,538.4497,-19.815527
-933.70294,569.4382,151.0371
-551.5353,134.48727,-21.358435
-654.2801,-151.75304,15.186399
-1135.3276,535.2921,-149.556
-898.0881,2393.253,100.0161
-664.0682,959.4583,-122.14041
-944.8306,979.65314,109.34638
-996.63605,796.1149,211.71074
-948.8918,683.84064,243.75558
-793.11646,630.02423,290.7564
-600.3854,531.21,315.50366
-484.464,560.12396,249.01804
-520.9075,377.6,361.01904
-566.3255,337.0318,209.19505
-583.26044,259.48315,449.5027
-810.79095,392.28787,455.75287
-974.77185,1046.6218,204.93428
-1154.7177,838.1618,203.04578
-1316.298,675.1947,95.14275
-1190.6548,862.0419,69.74543
-918.8936,1166.6934,94.77731
-847.1422,1197.7719,146.2414
-934.5419,1242.2173,167.84631
-1061.8076,1172.1428,139.9579
-1118.5603,1066.2855,90.185394
-1076.8849,905.20984,167.74602
-943.58514,848.9714,161.79443
-761.9015,529.6797,170.69958
-601.5106,566.0386,195.04138
-515.5615,281.67712,197.09447
-413.34177,306.36847,166.84698
-423.81128,141.4104,103.045586
-425.51953,267.26758,76.49864
-636.78094,192.86443,69.10197
-574.7821,228.84517,57.34771
-737.41034,-483.69714,-36.92221
-767.8063,2346.3184,818.91956
-99.03599,1292.502,562.12225
-778.90015,974.9769,481.2358
-1039.4352,1082.3573,351.07327
-1109.9746,519.1481,250.43738
-876.41376,599.8869,277.64084
-592.2959,400.4978,143.33536
-430.40256,678.3114,143.71799
-365.1958,706.4992,144.7853
-343.7766,785.64136,244.8159
-499.64502,539.427,208.49648
-606.2743,544.73956,131.07584
-842.00745,474.15256,101.40965
-966.23035,663.64075,250.33765
-1046.9612,405.7139,324.95416
-1175.5515,581.7049,346.5342
-1389.8746,692.7217,450.33804
-1365.1799,885.39716,504.24927
-1339.901,948.19934,358.49997
-1524.7174,1034.2533,327.20392
-1252.347,839.83795,252.56317
-1199.316,808.94916,150.42801
-1060.9752,705.71454,261.36664
-930.6237,631.78107,169.26918
-773.8985,519.8093,60.496918
-659.9231,445.4355,110.5292
-540.3173,370.5925,92.12661
-527.31976,424.47498,27.097773
-415.87128,294.25494,-17.18675
-381.0873,17.405396,59.182476
-332.19965,254.33269,19.978073
-210.83392,-4.8156753,-116.30386
-649.74854,149.818,157.70352
-476.15033,2431.27,1031.3707
-531.29956,789.0581,196.19984
-993.1032,1058.784,353.918
-974.50635,769.7984,318.57986
-959.8627,635.2647,409.81625
-797.86694,666.56165,266.08673
-650.7935,639.606,257.78693
-513.087,630.64044,231.64952
-543.233,587.039,255.22778
-547.6016,570.4254,203.99599
-547.4385,575.02203,180.26566
-612.0901,672.4683,133.34412
-785.86066,708.3911,143.48444
-886.6868,726.2086,128.57462
-1083.088,659.4054,182.9206
-1269.4623,669.7266,272.06363
-1226.2107,719.9496,436.83688
-1133.5355,1048.2725,446.5142
-1312.5283,1230.4166,482.38553
-1271.9797,1070.2168,387.98788
-1164.0736,840.60284,308.47574
-1130.3597,795.7704,344.6921
-1019.70184,677.7215,292.1031
-892.3703,657.88727,220.27592
-860.94244,547.4775,256.83817
-649.56256,393.79,139.55406
-546.575,145.67184,125.82995
-283.99234,406.72873,118.90445
-330.62393,364.44183,262.76968
-579.25,468.68536,276.0439
-411.9296,309.68167,45.970222
-757.9994,139.27657,46.317356
-786.29285,-265.48157,-158.66435
-882.96716,1393.1656,386.17676
-910.7426,2310.7551,432.98938
-683.1233,584.0787,-2.3602443
-858.13965,1104.6716,394.75684
-731.88245,556.024,266.42172
-648.89294,497.2666,279.82248
-633.2837,482.96817,136.00127
-409.41815,766.6128,80.56367
-385.88882,747.1731,52.824253
-416.85382,739.84467,111.79168
-508.0898,629.4564,87.60752
-597.366,684.7133,85.56744
-769.34393,535.865,41.661915
-1016.90607,582.1713,157.00554
-1276.9073,427.62732,147.38335
-1337.6166,513.9445,140.64392
-1448.137,579.4921,187.28554
-1435.6696,1106.9927,265.20758
-1317.3844,1113.9047,150.35402
-1091.6647,968.74603,238.17975
-1117.7245,1157.6492,202.02843
-1195.4341,1090.2795,114.4132
-972.79144,506.82202,164.1242
-903.73505,603.19165,193.38898
-783.676,571.77673,163.80374
-626.2437,465.44495,130.53375
-543.7681,466.7941,160.19276
-605.34247,255.02051,27.90494
-603.4927,173.93913,67.63448
-557.8258,646.83563,263.68103
-544.5678,705.1682,377.44705
-536.6662,173.1969,70.81515
-583.3797,-19.904188,-46.842274
-809.2622,-234.33548,38.51517
-983.6579,2588.969,1007.9392
-577.1125,860.08966,363.46884
-813.8222,602.8887,394.06537
-635.61633,911.5817,568.17487
-668.0824,780.2615,238.07109
-617.10657,741.183,295.22644
-553.09155,465.10703,188.142
-514.51227,721.44507,220.16504
-531.6264,519.6461,179.22841
-582.61115,651.4194,240.90016
-578.27264,513.5134,148.00569
-689.3407,743.5092,97.8569
-933.88245,668.1392,81.654655
-1214.2332,687.2361,101.515045
-1436.4952,665.2774,122.358444
-1446.8425,786.7005,419.77206
-1441.3652,1100.9194,375.62183
-1409.2483,1242.3547,372.9691
-1267.9984,780.95746,463.3964
-1280.269,995.8894,371.28055
-1177.7087,619.6332,240.91113
-857.34265,889.639,462.51694
-761.7645,702.0996,234.11269
-624.48315,393.17453,147.17265
-511.5966,148.09538,55.978607
-451.82397,360.44568,112.06544
-544.56256,163.20276,38.32042
-541.0272,401.27234,19.06907
-739.73785,281.81064,78.798134
-553.3088,632.5299,189.3595
-491.77856,564.5831,403.34048
-651.6465,279.74283,63.31221
-363.0738,-336.607,-248.64587
-1281.7748,331.92014,49.941685
-1713.8701,-190.81964,27.051144
-2230.7803,2137.8452,1009.34906
-984.5256,1886.4258,646.6888
-678.5274,-342.1836,214.57887
-1177.7068,187.15346,202.621
-1133.7864,702.54376,186.64679
-850.6736,269.1076,34.828552
-1039.8486,300.34326,5.0558457
-986.5282,744.5274,22.202145
-1030.7996,748.81274,183.16325
-980.97797,862.3295,212.84427
-1083.6249,798.08844,227.41986
-1127.636,751.2156,166.66832
-1316.1342,717.3962,192.16061
-1285.313,898.89703,273.13498
-1380.2585,750.5939,301.55792
-1471.6483,671.7777,302.7892
-1493.8427,603.3205,228.77292
-1713.3826,627.81555,140.39407
-1557.8654,570.5019,104.28254
-1258.1129,229.23332,-14.679195
-852.52325,484.1722,231.58878
-759.7392,556.0067,200.29643
-804.5477,325.96436,249.46175
-729.569,247.4689,16.233692
-585.71387,244.64343,-96.76615
-714.6605,219.89734,-61.037727
-798.79626,394.63306,205.39795
-843.2483,122.35163,14.771628
-652.36694,9.342915,12.229317
-1026.0112,-386.74884,-124.937
-807.22516,1824.6887,1147.221
-499.21304,1667.9324,846.7562
-605.8576,779.59625,416.9342
-777.592,1019.41437,520.07574
-804.3731,558.57874,259.48026
-642.588,792.6699,266.74435
-445.19638,508.62128,120.99761
-353.54794,695.05206,153.77245
-395.8029,526.3561,120.46584
-453.9344,642.0431,242.47961
-533.0371,729.9091,249.78636
-586.68994,727.55975,148.48949
-793.4409,674.57367,169.48781
-1024.1001,960.167,170.17506
-1016.9759,729.80756,179.19632
-999.16974,905.87634,133.54233
-1106.6173,1739.967,92.15925
-1232.1953,1387.6509,-10.969644
-1133.574,1358.179,75.26303
-1045.0215,1218.7212,243.72365
-1060.5166,1006.7412,171.8366
-980.3958,985.4374,149.19164
-836.2038,854.74274,109.877594
-626.5402,572.6525,55.364178
-535.6238,274.43842,142.00026
-424.12555,189.80621,124.390724
-305.06656,345.85385,165.4959
-486.6937,412.73178,71.88334
-534.20105,376.2128,108.30135
-561.0997,299.76825,-128.53569
-621.66125,373.66254,11.501436
-591.6944,-337.33734,-258.21683
-914.3815,1103.0217,413.19983
-131.20454,2219.8315,902.83124
-451.77466,811.359,211.06729
-945.8911,1188.6191,461.48984
-998.40704,475.33264,381.93256
-1021.4444,612.10156,502.8692
-789.78906,499.06717,290.02805
-688.5222,688.1232,364.1051
-553.69244,527.4625,264.32925
-488.74316,579.62366,349.59457
-554.59216,445.06647,284.54114
-590.53613,511.08713,263.209
-594.33307,358.7868,135.74957
-788.46906,545.70386,122.82014
-1151.2236,614.7733,91.091576
-1333.6863,544.4846,124.14844
-1247.0038,581.6263,90.23463
-1323.9967,869.16724,146.98825
-1281.7168,854.6629,212.0489
-1318.5345,876.4875,250.21179
-1317.2124,727.2396,231.44725
-1369.2023,711.81604,212.1369
-1293.3402,681.4406,154.80486
-1057.8251,581.65784,226.27202
-811.0368,546.4824,201.249
-736.1195,429.1589,153.7222
-529.2651,363.7317,112.253075
-504.98874,293.10803,103.97561
-478.48874,250.2082,92.52265
-469.034,314.3285,20.849007
-666.6038,417.6821,99.52637
-768.2312,250.63689,10.308795
-871.6209,194.49515,20.78026
-873.7324,-104.16583,75.53662
-628.8079,2432.746,179.15161
-335.0757,1382.727,248.19298
-742.433,620.32007,187.93326
-910.5694,1092.3665,225.60016
-835.0519,440.0951,305.23944
-746.6136,758.5822,386.47943
-560.8937,428.09595,325.40588
-551.78467,681.67883,355.29007
-497.5191,278.03616,317.8069
-460.34576,632.07605,317.8978
-469.90298,114.58498,380.95096
-718.6496,672.7284,289.19174
-905.13275,1173.3174,51.74185
-1329.1815,528.02515,166.354
-1415.8574,659.3755,41.91102
-1218.3905,796.0868,-77.90566
-1054.5011,1188.6228,-40.450874
-948.3385,1286.4108,69.58037
-1104.1814,1033.0005,-22.034067
-1147.846,1210.33,34.632713
-1223.9865,924.4773,80.27171
-1101.7805,912.9428,94.130264
-912.2829,712.419,93.49492
-725.3221,470.582,196.55254
-586.2395,309.5068,115.251526
-602.2741,464.15674,88.39313
-613.6227,443.60242,12.239046
-556.10114,370.47128,1.9923366
-424.33832,397.5467,66.43831
-554.6769,584.7234,151.47388
-291.20633,249.66342,104.081856
-416.17792,-52.33472,98.18081
-552.8066,396.99625,335.50003
-216.80159,2025.9103,991.28485
-456.3519,983.47284,431.34024
-798.6032,842.88135,425.46225
-957.24677,797.28595,282.81308
-851.29083,683.62067,194.46123
-696.35095,787.8492,259.5945
-427.58887,601.1311,241.69995
-391.2042,627.25995,170.58234
-444.78546,582.5083,167.13142
-485.82858,531.4117,160.47787
-486.56348,492.283,161.83617
-469.16055,588.7634,157.01709
-591.0243,746.51447,180.10942
-925.24744,879.10614,246.34607
-1167.3236,848.5631,245.05675
-1227.6481,871.3706,172.61412
-1275.3605,691.9453,341.07083
-1417.1654,1005.73584,327.1386
-1333.6661,1261.058,181.99635
-1198.816,1068.4384,153.53474
-1074.557,987.3499,164.70705
-1034.1013,842.4702,172.34659
-874.13165,886.36945,180.10234
-784.82196,735.26306,81.56001
-676.8351,621.35095,107.07805
-662.2675,451.99844,185.77448
-584.76855,320.67435,73.33163
-413.9472,367.86594,5.6474733
-539.56305,421.30353,236.61748
-544.0642,491.85843,181.11757
-408.7383,405.21982,43.44883
-493.89874,178.51411,34.061893
-564.0126,224.7569,-82.49585
-597.03595,94.15663,34.788128
-1116.0952,1034.2977,703.5082
-1190.9965,1900.116,748.5316
-769.3016,829.36176,287.74847
-957.6456,704.18243,396.94363
-780.1692,622.3566,311.4003
-676.13086,586.6962,207.7215
-541.447,564.1602,163.09119
-503.1611,570.0209,141.39195
-480.09756,488.3363,179.81068
-601.93384,459.02237,238.0945
-660.73584,548.3811,196.60396
-791.6726,556.20715,119.58581
-867.50165,445.58475,102.58714
-1344.1691,450.0038,326.63217
-1376.2125,442.6138,311.20343
-1482.7212,955.09406,317.47906
-1481.7385,1054.1895,472.435
-1459.0708,744.48193,344.9372
-1247.3373,806.34436,360.59955
-1184.1428,836.3784,329.44077
-1138.8268,743.74426,314.45602
-981.68616,777.03296,217.43707
-770.2296,640.4001,51.816883
-641.0847,577.61273,-10.900668
-481.3791,373.9465,-24.654139
-308.45984,302.05573,101.09251
-488.40176,416.93906,166.79312
-606.81604,330.21124,44.127613
-754.04626,127.113655,-194.47667
-918.94366,263.27652,-184.18526
-862.5376,16.302826,-97.14891
-1077.7887,537.9583,-54.01861
-751.8661,1737.1504,508.91098
-564.84796,976.0725,288.45758
-969.8299,1157.116,220.95328
-1078.348,665.7009,302.15576
-1055.6018,441.35446,448.85095
-766.35834,444.28168,409.13983
-602.507,476.64807,402.63232
-469.19278,451.10645,426.48654
-481.2849,457.38565,426.62854
-556.3708,382.13373,417.8832
-718.1406,350.43808,379.30338
-818.97687,266.9666,273.35016
-999.9767,346.00363,257.19006
-1097.0137,340.00146,240.41272
-1288.2139,541.428,239.6256
-1374.985,628.73035,226.0382
-1417.5522,864.20233,377.20563
-1425.431,850.7271,329.53198
-1563.0928,777.56366,265.44672
-1438.4255,637.81824,385.72144
-1418.162,627.94434,403.07635
-1201.7175,655.8986,287.17426
-1064.3077,476.87064,269.76917
-898.14825,474.7174,309.31345
-776.4297,316.71704,268.9724
-597.4619,181.03941,212.94873
-626.9462,268.8361,158.41656
-541.2506,396.33426,173.26714
-724.6522,414.78256,214.60313
-836.5368,423.9219,237.54541
-429.04114,149.588,18.644165
-435.95032,36.775394,-153.66862
-616.8358,-100.16998,113.19616
-1103.5503,1368.3024,1056.5333
-631.7937,1204.4369,1119.149
-487.37845,658.4376,700.5627
-684.4871,759.50726,692.8028
-653.752,550.7557,602.6452
-657.8113,498.94095,470.50235
-568.14844,620.8556,344.5822
-443.936,569.19226,410.29758
-429.71002,574.07135,408.4341
-510.76273,520.248,335.03098
-575.7635,583.011,316.8921
-799.46136,798.65155,253.46693
-927.6194,1005.58484,118.495926
-1198.2191,962.3575,121.71423
-1133.5873,610.3765,209.91603
-1322.9664,697.60986,251.45921
-1208.8938,1315.5897,346.1988
-1183.1705,1204.0183,423.40628
-1106.3351,1407.9868,435.26413
-1004.3701,1036.092,279.54376
-1011.152,1003.29565,473.1106
-797.01855,620.977,344.62115
-679.23236,578.61194,352.38486
-570.1789,375.2748,225.06117
-545.68634,248.62224,203.68852
-442.10114,114.8615,166.14429
-447.45038,407.8958,161.04335
-426.377,38.095707,9.987281
-299.59402,757.94025,130.57358
-456.4654,236.78436,159.42354
-713.4152,405.1367,-40.3226
-706.93036,-327.577,-88.14331
-1227.1444,919.7394,113.57186
-1018.49994,2879.3162,766.1087
-469.0793,376.28577,341.74146
-900.65234,1233.4364,565.0974
-747.5955,512.3706,496.30286
-773.78015,837.81116,500.36472
-530.7982,465.99896,240.67163
-430.34338,844.461,374.22366
-430.19003,526.67126,274.12234
-484.27155,652.32574,321.8214
-490.7352,476.72095,265.8434
-578.3166,720.94727,294.2225
-788.69183,561.87506,245.61307
-1091.5782,660.01697,244.12776
-1263.602,85.586266,-130.55379
-1587.747,1138.2003,-137.36232
-1503.5704,1193.5917,-99.88149
-1354.5183,1092.7908,-110.45561
-1238.9512,1000.7049,-20.01026
-1059.9565,930.2507,110.23407
-1090.6534,757.3431,89.74706
-1018.9069,762.5576,222.42511
-774.82465,779.3181,175.8987
-732.5504,840.4467,76.267044
-634.6246,559.36017,15.264618
-662.08,577.6456,3.1911786
-476.0097,339.7985,32.19411
-556.9973,589.7696,38.442226
-419.764,231.34357,16.309994
-529.5956,325.8658,-1.1673698
-421.1622,-66.03673,-8.325093
-599.267,241.25671,176.43921
-445.43442,1589.976,502.50803
-417.23862,841.8777,504.56992
-941.11743,1226.87,339.80807
-998.5378,785.767,311.05405
-1076.5399,739.75366,337.64755
-795.1319,463.36514,192.189
-647.8465,569.7919,42.42234
-499.2288,695.1275,89.03194
-408.94412,574.5904,147.23761
-483.6525,579.92303,201.80817
-549.3295,592.2937,193.71465
-600.26636,615.2483,260.21118
-765.29004,461.16568,267.0042
-966.95624,484.95676,183.26825
-1241.3724,641.07446,149.07286
-1234.0173,649.44604,261.9002
-1329.6022,815.9389,141.91754
-1310.5145,1340.648,263.6855
-1164.9828,1171.9678,137.4838
-1234.545,1102.1394,68.44114
-1077.7407,925.0962,53.53975
-1172.6385,810.9217,51.297783
-1151.6831,706.7563,4.5581737
-1023.74884,536.5867,-36.868107
-864.6706,360.44897,26.459105
-818.62036,363.328,54.472725
-791.5772,282.90125,-11.930404
-616.63184,405.73663,45.753773
-689.36584,419.4947,41.705647
-788.2711,338.17526,185.57896
-631.5739,299.2378,116.745316
-820.7913,167.78625,111.62037
-728.73846,-267.55856,-13.56515
-1060.8416,-180.35394,224.91862
-471.4309,2372.9443,590.50275
-560.4924,1160.0242,308.7046
-1112.9503,785.1292,337.61862
-1133.5723,671.69507,273.80676
-1116.1652,402.45038,238.79333
-850.6501,498.24982,168.1683
-674.09595,556.1407,173.28142
-559.80634,607.8013,247.05531
-539.75336,469.80692,293.68973
-603.8734,454.97723,286.62973
-534.52826,312.19077,231.08215
-721.69293,365.61743,143.44937
-962.68195,246.25226,247.01103
-1355.4235,145.17314,429.11093
-1454.1232,456.18982,252.31535
-1512.0521,667.5081,326.99454
-1383.1787,651.0742,448.2718
-1371.9841,653.8117,315.38284
-1503.9095,610.1756,353.64252
-1346.4535,463.12704,277.6765
-1348.6068,429.32147,199.55763
-1231.2439,472.79434,166.72273
-1103.0144,396.9267,109.92483
-997.63226,379.05954,88.31056
-848.6366,424.2883,141.06181
-832.62335,350.7516,143.38773
-666.30505,306.19992,115.842545
-709.00824,248.89383,224.94147
-881.97095,318.35617,183.15294
-741.1955,328.2034,37.761913
-632.2618,87.51478,99.286064
-674.8898,-23.180176,69.54198
-640.2599,392.20505,235.5175
-756.0619,2255.7122,519.15515
-566.5575,947.261,179.5215
-779.9568,984.9693,396.41415
-935.05194,836.20197,378.63187
-794.1718,534.8859,383.07324
-718.2741,496.9421,385.9688
-470.17923,552.1054,361.01654
-440.57663,524.8109,394.94345
-387.46136,488.68903,405.35135
-455.7056,384.5548,432.95477
-469.1916,610.84485,394.17767
-549.14374,576.4527,378.3153
-815.76666,645.3644,473.41733
-1096.7979,563.9143,539.9459
-1225.901,299.1185,408.76974
-1232.0459,256.52106,240.31506
-1230.7181,835.46185,451.05984
-1324.7382,967.12714,462.33954
-1374.468,947.2133,351.77188
-1334.782,817.78174,343.56177
-1215.9803,638.7519,330.52554
-1087.9333,554.91516,320.12778
-944.4433,590.6537,259.46887
-830.56525,518.07465,286.65927
-810.7378,511.88306,316.9208
-619.5249,428.62265,170.36566
-639.5035,314.14062,222.24
-534.0165,227.6082,207.45393
-497.40475,273.55472,207.36893
-580.8873,223.41736,135.56543
-663.8256,171.54955,116.004776
-742.90295,-169.92047,-89.780556
-1234.5659,209.9371,368.21146
-881.28937,2278.0166,1014.06744
-746.935,915.1197,231.81395
-1065.6912,440.32495,369.27048
-997.2799,657.1341,329.12912
-971.3669,453.55435,343.7363
-753.3488,440.33182,291.5093
-669.498,410.52087,274.92413
-533.20435,601.43823,259.236
-491.7937,350.78952,259.5672
-531.2642,401.29373,252.77785
-653.63116,419.1934,220.3508
-720.65015,478.38626,163.99039
-922.48883,489.09622,194.79976
-1127.2916,549.47974,325.155
-1354.5293,249.1938,341.19946
-1386.5668,568.9471,220.69984
-1504.9149,674.95807,349.91324
-1310.5306,716.91016,356.7928
-1382.5925,589.9327,290.10303
-1253.0438,646.02466,310.09076
-1209.9131,391.753,236.31656
-1169.162,470.6393,211.92484
-1037.0804,292.26218,194.46448
-930.0524,332.4175,104.63141
-820.3214,428.79312,-61.84591
-918.07367,868.03766,-138.00027
-1010.7628,715.80634,-36.644146
-650.0894,616.18225,-236.24498
-706.344,749.32513,194.46837
-615.4538,140.61623,161.99727
-506.5137,43.494152,18.979885
-684.9095,127.78633,66.64406
-687.72876,-312.87497,7.8895564
-904.8378,405.27042,10.51256
-1219.1299,2432.823,46.478886
-778.7164,678.9876,323.88528
-1063.6572,779.5865,204.84737
-975.77075,758.10724,311.26117
-859.33374,623.56793,250.39095
-672.73584,583.1934,255.95012
-594.66406,544.4343,168.50931
-559.36395,586.7006,207.32277
-609.59784,492.50418,169.17918
-641.6154,505.52866,201.83784
-698.5911,570.95953,102.66211
-837.5337,624.753,76.19148
-1204.2683,490.37103,96.05367
-1295.5466,618.58417,104.70091
-1106.2341,938.43665,195.83084
-1018.26624,1226.6971,362.4504
-1111.2518,1119.8999,320.27338
-1282.6582,1093.3591,309.81317
-1403.1458,1051.1998,278.495
-1391.3656,968.86597,207.8307
-1223.8267,761.1054,305.64798
-938.87665,601.86554,240.50648
-784.9602,459.0966,165.93912
-647.79083,441.26483,166.98042
-679.6526,306.00473,56.90796
-387.6733,177.30116,158.51091
-562.9946,217.48729,253.18353
-464.80396,259.81314,-9.444697
-510.88986,61.880604,42.64827
-676.51544,264.37997,139.71657
-892.2388,-136.0694,31.757904
-942.69275,1469.7838,553.78107
-464.90067,1641.2179,814.92316
-838.9406,885.7067,396.47028
-886.56604,1122.0604,455.21487
-914.0715,633.1563,388.72266
-755.23315,549.9568,363.4837
-615.71985,493.91116,276.2628
-468.21744,603.6601,257.3386
-424.86993,609.9527,271.95987
-477.11667,619.5038,336.16254
-569.7989,568.9252,307.1922
-547.56116,692.4811,229.82178
-652.4528,698.3064,254.90602
-727.7085,849.09,238.20259
-997.326,746.2024,249.13591
-1093.1323,987.4992,411.04898
-1022.35504,883.2226,429.08783
-1167.0272,1365.8123,544.1545
-1123.6396,1433.0483,348.04965
-1125.4937,1237.0801,343.92584
-1107.9205,1056.0391,73.43351
-1070.3123,639.99884,-60.29976
-911.5221,681.9943,104.68639
-768.4542,409.4886,109.57022
-582.6248,394.3101,62.52067
-551.95917,180.09026,201.55467
-621.5725,176.63818,271.3641
-565.33044,510.91254,127.491806
-611.3811,324.43695,194.61035
-812.6823,18.671791,253.40121
-708.24194,-69.61703,129.87605
-732.4374,-389.10614,-23.805084
-910.1891,1606.7644,55.37943
-673.44885,1272.6881,304.86612
-1220.006,1045.1793,185.2802
-1131.7643,517.1488,169.57965
-1145.8778,606.60565,210.44925
-889.53143,137.08498,318.93274
-866.5987,230.77887,160.06358
-859.39465,-451.09192,386.09317
-1068.0037,386.74695,638.7091
-645.65137,1852.6638,279.0129
-527.36365,-473.23178,114.67194
-980.96204,206.68689,70.05213
-1135.2744,677.3387,-155.87175
-1124.7054,839.49725,-246.0379
-1085.7494,660.7548,-147.2673
-1224.7753,988.78107,-80.422966
-1234.7491,839.7607,-73.77732
-1131.672,1036.6433,-34.487457
-1206.9568,946.0931,21.291866
-1352.893,1007.0818,48.194286
-1402.6775,907.5077,80.7322
-1381.9868,844.79083,139.7963
-1257.5459,642.3591,28.649149
-1021.09906,499.6563,-39.567436
-819.089,538.5394,58.464424
-809.72205,359.06705,61.34904
-659.57214,178.97209,-32.818806
-626.09186,278.76065,123.87318
-635.68494,278.0037,58.94018
-682.37915,275.3685,77.14096
-826.3696,85.637825,-9.185314
-696.6775,194.24939,24.9611
-987.49976,-403.4164,-184.19214
-998.1776,1253.9308,725.8171
-526.2492,2318.8179,909.932
-768.11487,284.24008,219.68826
-1026.786,1118.3478,500.46365
-1068.5566,510.48627,196.2106
-869.5172,592.2525,255.90332
-730.1898,451.8163,124.05255
-535.3701,612.04486,139.62822
-522.28284,569.71594,105.28828
-498.88513,524.45874,191.13571
-607.4015,452.9351,98.13014
-663.14594,622.4236,73.205124
-786.3605,578.0618,63.80858
-875.7618,623.4152,205.55988
-1177.9054,506.25345,225.68228
-1253.0247,583.4202,248.38586
-1504.1,529.81366,275.40433
-1426.6195,715.1559,353.25876
-1472.008,596.76764,282.09918
-1298.42,626.42065,413.39066
-1184.5988,500.28543,335.26544
-1136.4365,551.11066,388.2327
-1038.9336,417.52377,268.64362
-912.0631,436.69052,224.61534
-910.35034,383.45996,108.88559
-889.3545,507.90958,112.65363
-802.8881,364.85947,93.25234
-720.7957,492.14056,128.46718
-681.1178,505.3151,30.227549
-663.1166,666.68475,90.02103
-522.72284,600.0339,78.983894
-371.71075,508.37845,179.026
-404.18982,331.27423,113.375374
-220.8146,171.87521,139.02248
-450.99814,-111.48384,53.933327
-1045.6233,1563.6667,659.34265
-736.07263,1546.5796,872.8849
-847.8631,362.20837,370.20352
-942.5124,517.4305,381.60553
-757.66614,664.2506,407.42767
-603.2689,652.5105,398.13684
-551.9683,498.88776,314.16464
-525.45294,476.09775,255.91649
-603.03156,468.15286,272.64203
-638.3434,425.88074,221.37187
-633.8829,549.31024,142.22556
-783.0774,619.4481,13.842985
-1067.1091,707.8196,63.849297
-1297.119,568.65875,213.79305
-1276.3359,720.9634,168.48405
-1220.9586,1003.4067,198.45352
-1161.5721,1105.1178,286.52725
-1203.0355,1078.8334,249.36615
-1064.5774,1058.704,280.2798
-1069.8894,881.5973,248.21748
-1054.8506,914.4619,179.31726
-909.501,768.8132,126.26054
-762.5667,665.1963,134.38423
-679.84174,646.87256,108.75323
-604.0284,369.8604,120.94574
-451.91046,347.00854,38.656925
-439.19073,341.45322,140.7062
-357.86526,259.78754,57.076275
-445.67365,542.85815,86.44013
-641.4576,348.81198,15.672184
-640.1228,196.62758,42.894802
-975.07605,225.70459,-131.85017
-477.00525,2053.394,612.4734
-406.5197,991.543,608.4762
-907.382,755.4106,278.70566
-1037.403,941.88837,374.7875
-968.0911,655.84534,299.44693
-816.9776,640.68024,344.68286
-692.1085,494.8488,212.28993
-587.7574,546.33527,199.64838
-577.2359,464.9422,176.91887
-562.7836,462.8889,206.86824
-575.39996,397.70135,156.75116
-649.91785,536.1414,150.4874
-757.8947,559.53564,130.47263
-943.10474,505.18213,176.50383
-1288.2744,511.52203,199.72437
-1384.4471,327.6454,278.48837
-1251.8901,379.7606,274.5104
-1295.1416,801.3924,433.87585
-1161.928,748.5396,487.22336
-1295.7122,711.8166,402.7748
-1316.8021,627.91223,375.278
-1403.704,549.2079,318.0062
-1324.5979,603.233,246.77531
-1108.7529,632.433,154.14677
-953.4808,767.1484,123.41631
-869.33624,658.9885,151.1381
-657.50775,347.8773,53.986954
-489.92664,460.69327,139.59126
-536.38574,121.56118,148.76541
-454.53366,71.192276,21.137371
-562.69226,89.796036,-0.9135272
-648.73083,235.19968,-26.152018
-734.9659,-193.2113,-110.94559
-907.873,987.0853,255.4224
-364.46722,2103.3616,860.774
-619.78094,605.2448,339.0141
-1056.8385,923.49756,456.1289
-1110.2347,727.90875,352.27402
-981.50287,609.1972,389.12228
-834.5916,421.74146,200.80292
-654.0544,521.446,233.4283
-624.4294,429.13452,187.06732
-534.82166,429.6359,204.8051
-585.62213,396.61093,157.50519
-652.85376,657.1299,146.99532
-750.4939,567.32043,-16.48673
-904.7466,710.22925,62.456543
-1215.8252,644.2442,208.96524
-1198.8871,750.57263,268.39258
-1283.0414,955.755,261.96262
-1156.7533,1088.5078,400.11426
-1133.8193,941.9415,317.17294
-1234.9486,1005.3261,323.82764
-1216.6982,878.75903,317.9377
-1195.9574,905.60535,232.97485
-1128.3433,813.721,105.01937
-885.1716,829.4917,129.89412
-875.20905,691.76404,9.271209
-737.35724,423.04092,103.90508
-619.4735,479.49982,41.317722
-497.17407,313.3381,33.752335
-490.98138,307.20044,57.126938
-547.2242,349.56436,124.6355
-677.66656,214.32713,-21.708046
-543.32324,130.62585,-5.598736
-735.2566,-226.20663,-151.34967
-813.9579,1530.2374,651.46796
-379.0643,1107.1661,649.0044
-815.1251,764.694,326.77838
-921.22906,1060.5728,475.4212
-1007.93567,656.85547,394.50476
-888.4439,724.0034,419.4093
-680.07117,512.75574,290.19504
-531.6794,515.52795,296.47372
-509.56332,533.1389,190.788
-482.93658,518.5721,188.75787
-522.0111,492.50488,174.89764
-553.1614,542.4257,88.66177
-750.26666,656.1269,98.79766
-922.34814,674.6248,154.66248
-1043.3535,484.41516,148.06848
-1255.369,834.08734,280.0197
-1269.3065,596.32135,356.0265
-1295.5347,729.4389,405.16382
-1241.8021,1112.6934,454.16043
-1146.7366,860.96625,349.68726
-1170.571,912.8732,406.4805
-1243.8,736.13196,334.19797
-1210.3547,805.5047,287.50272
-1027.4084,564.759,211.85304
-845.48364,874.62103,63.02328
-728.87036,685.98883,139.79912
-485.02264,422.4941,119.725784
-541.4472,350.2976,40.0271
-547.47186,350.49374,35.83887
-712.1977,325.41397,96.53676
-697.06464,231.28294,3.4884632
-714.5873,405.16782,28.148909
-614.8259,-96.12823,124.795265
-895.9287,244.6896,12.50168
-622.0685,2086.2585,648.1768
-556.8672,840.10223,681.4203
-883.8137,824.4406,394.68814
-1022.99036,900.45715,300.0723
-813.5141,621.70105,284.84155
-739.4007,612.43353,190.89444
-532.3394,617.38074,127.24192
-498.32483,556.7143,179.68956
-484.70453,448.8095,134.21834
-589.45557,430.01288,162.62175
-593.8526,468.47305,182.70111
-777.3885,633.7907,180.41629
-856.18665,557.80084,93.87385
-1279.0327,758.2489,196.80823
-1316.435,538.5413,332.37143
-1262.3678,774.13696,240.8311
-1161.839,1246.0614,412.44168
-1160.7444,917.41815,378.50998
-1238.919,1055.0568,288.3045
-1272.956,883.98065,268.2596
-1239.3801,711.8794,220.23871
-1142.3204,684.3371,177.8527
-1045.2067,838.5073,154.56902
-1061.5784,544.44763,45.621582
-701.55743,456.2597,223.14702
-593.46466,440.07547,207.54294
-505.3211,374.66385,186.0414
-607.5657,134.76408,128.23087
-606.2066,267.1445,23.192955
-642.76337,68.207184,43.687878
-524.5873,101.851616,-90.79136
-1129.6644,-661.4691,-261.06625
-823.4991,1997.2483,1005.2481
-471.5669,1821.3181,469.928
-930.4376,459.11295,220.8649
-950.34406,971.7475,363.70862
-975.5851,494.45837,210.00508
-738.10004,759.9777,260.18588
-603.73083,496.9151,124.47931
-524.12756,618.29016,162.14818
-507.7717,438.64694,165.77043
-575.2655,565.2257,269.47012
-576.0594,484.0955,191.9947
-738.4332,619.5891,209.26772
-911.70654,505.13104,131.12885
-1209.9962,748.48865,332.8454
-1257.9274,679.1883,358.34976
-1262.361,1179.6987,259.8127
-1193.7163,1364.9827,294.43048
-1133.1681,1295.1964,201.71365
-1125.1926,1231.5631,121.23729
-1103.0739,1095.0795,146.43169
-1173.5897,902.58057,125.27914
-996.4782,876.76416,82.1535
-781.3985,426.32043,-40.881798
-629.05066,620.1782,110.54422
-611.61096,385.04144,13.128287
-413.064,283.06268,-0.7608627
-479.0789,269.07645,-2.0994363
-547.52844,336.2447,-106.43248
-621.60046,126.90689,-209.71681
-820.4337,308.0687,-92.85041
-850.76685,-188.98463,-191.03836
-1320.7428,410.37088,135.67055
-1012.5023,1951.9889,1240.5702
-878.7569,605.5312,628.43176
-1283.2651,845.6368,661.3101
-1163.1543,576.6712,550.24396
-957.1186,382.55582,327.29034
-720.7092,544.32404,230.3877
-564.6087,578.09875,225.39368
-504.7716,515.479,263.12308
-554.799,421.38287,236.09583
-608.7679,418.1068,228.32965
-636.4263,494.7816,161.53293
-822.37695,483.82748,94.52417
-980.7745,487.94235,83.195786
-1366.8351,625.9882,274.8841
-1297.803,762.32294,302.10757
-1134.8558,894.37305,294.57462
-1113.7518,976.47253,401.61746
-1155.6229,932.28253,401.79056
-1283.6823,962.70184,377.49463
-1253.0598,857.5764,430.12247
-1319.6044,881.48566,294.03137
-1314.0099,743.1656,323.6964
-954.29224,481.34793,240.65831
-836.4895,617.0938,281.0995
-729.1914,491.4208,227.56801
-732.8542,306.93192,228.40231
-557.22504,119.663734,-33.754223
-459.16943,220.63222,38.351574
-422.29376,144.0447,84.89335
-411.32114,212.25291,63.59168
-255.4828,-337.93185,-180.68292
-912.9941,138.35074,259.47766
-706.1123,1855.9474,1284.7189
-334.6498,921.31335,435.52853
-1040.698,1054.3468,570.36005
-983.01263,704.5916,377.57635
-1117.5728,668.1107,331.6038
-824.3961,628.24164,207.43205
-720.1224,729.7448,158.83226
-477.05292,640.13855,161.62648
-451.20203,583.23663,293.07675
-517.5873,544.77637,286.90326
-652.38525,528.5023,325.7954
-622.4892,420.96576,299.14462
-733.8104,534.56006,207.42038
-885.59674,409.81128,223.86617
-1342.0454,766.27155,438.7419
-1196.4192,829.4115,268.3772
-1275.6769,702.05005,78.70346
-1346.7937,1353.4115,259.73233
-1341.8237,1142.7257,148.7191
-1318.7172,1060.6552,82.91195
-1172.5314,948.175,240.17088
-1115.0071,883.55334,174.79134
-964.451,874.35034,235.67816
-869.6664,804.9037,184.4457
-758.17395,516.29767,99.30603
-585.21704,468.91647,128.99976
-544.7824,341.39307,102.98429
-432.8331,294.02753,6.3204546
-436.69727,191.00107,8.193778
-321.3192,361.21405,-53.52345
-339.668,373.44415,196.78973
-638.57996,316.51608,286.06906
-578.23694,-26.022232,-405.92935
-1246.9753,349.91766,238.78131
-885.1078,2768.7285,1196.6503
-691.1552,542.9667,176.09381
-869.8542,1100.1886,634.028
-797.19525,521.1475,472.89963
-765.7306,608.7209,555.29297
-681.2305,424.39072,326.1923
-556.32355,544.6053,288.98157
-464.60803,585.3813,257.4949
-503.57373,536.62054,320.36566
-582.22784,559.7836,248.4725
-696.8888,872.13446,154.20317
-696.6786,689.1742,-34.91359
-893.75635,728.8193,167.19255
-998.28613,803.98303,293.09146
-1011.9729,654.87573,214.2541
-1211.588,1241.0104,316.6358
-1183.1932,1409.7366,273.8968
-1223.914,997.9406,184.24971
-1156.3835,1129.8715,357.5052
-1178.5486,929.2295,273.0776
-1012.8459,887.8175,289.0049
-877.6619,639.0857,196.75346
-602.0388,513.5194,154.90305
-561.8003,460.88303,185.62375
-438.53757,456.91537,138.82278
-537.7088,400.18558,89.00543
-430.98575,436.58322,28.575146
-555.4775,414.58203,67.34783
-585.7951,437.93164,71.855034
-759.24536,322.18674,19.091576
-563.5474,-132.21385,-170.94989
-933.05835,218.5949,16.801653
-446.2576,2709.7358,961.1209
-420.98126,556.9218,296.25845
-1167.3773,1056.3567,347.46692
-1091.7678,545.6969,289.8625
-1096.355,632.4707,350.67017
-793.4711,407.50647,288.4241
-657.5452,473.03308,390.7684
-545.00385,401.11044,347.80417
-555.25793,496.5859,293.48538
-576.8099,558.73553,258.94568
-649.0832,700.855,294.42905
-636.80115,450.7382,61.95885
-762.8436,589.7442,100.323555
