# PAMAP2 dataset (wrist-mounted sensor)

acc_x[mg],acc_y[mg],acc_z[mg]
-865.91364,321.91684,120.962776
-1165.3728,149.65663,-18.612839
-865.8656,261.2558,-31.234335
-833.88257,250.51674,-101.84651
-696.33295,234.75891,-52.489918
-603.5592,154.08936,2.4493732
-474.5708,91.18524,14.586383
-457.41235,68.20405,-1.3880296
-450.82898,95.53283,74.33407
-442.11722,177.42061,95.478485
-553.3348,217.8707,197.71693
-587.6458,413.49792,280.32977
-712.101,414.19434,372.10675
-852.63086,582.6873,295.9015
-1620.8988,379.30212,295.1006
-2505.532,1615.859,753.6833
-1502.986,1646.7698,610.6705
-1245.8682,597.1925,449.1483
-1048.5156,840.733,291.45084
-749.74695,169.83026,185.58562
-556.29126,197.36818,183.73576
-376.6064,363.71237,203.42583
-173.72812,490.4781,210.97084
-175.39426,565.96356,222.24706
-212.46146,616.4369,205.46248
-403.85162,525.0826,226.41272
-783.46484,501.6588,267.4842
-1031.653,297.57233,299.69806
-1238.4741,185.86102,287.09235
-1522.4517,147.45325,303.8303
-1704.837,317.01065,407.56564
-1943.7637,350.53726,437.82574
-1624.0226,293.13025,364.55148
-1332.4415,266.83823,333.46732
-968.4744,251.32922,304.98157
-644.7615,190.9216,318.71246
-403.58005,225.59282,245.31079
-254.40717,200.40685,169.52757
-214.7762,213.7996,132.74957
-349.46646,189.40167,52.79676
-419.3493,230.45195,25.863384
-584.86285,281.30365,43.67218
-614.6861,381.3105,106.883644
-818.1053,440.12173,185.13669
-1274.3444,564.9706,301.81335
-1926.9547,769.04004,516.53656
-2056.4106,914.92175,956.33325
-1349.5282,617.91376,871.9069
-1134.3811,521.76904,611.8054
-1032.4114,138.73344,523.92084
-718.52563,165.85533,417.21252
-450.66263,333.2729,358.8041
-340.92102,448.06042,314.2018
-356.93216,493.15372,304.17847
-386.0695,429.13608,289.14136
-462.78625,386.26013,250.97202
-607.677,374.72644,220.85913
-733.77905,320.7961,211.78877
-825.5004,304.26837,222.72757
-880.9113,245.9365,214.48361
-1170.514,235.48051,200.61702
-1427.7474,245.76094,276.29074
-1631.2168,349.43225,342.04922
-1716.9144,431.8222,343.81015
-1533.1434,449.02164,308.23434
-1295.9817,422.1734,272.229
-966.25977,379.58743,271.51672
-732.1816,369.6014,274.53757
-556.3986,387.23755,248.16687
-474.5079,285.21756,185.02206
-383.81848,255.64178,126.83316
-429.00574,208.18156,27.290834
-429.35486,251.4756,-28.422146
-553.3975,368.28046,12.641882
-731.749,528.2057,149.38524
-867.91254,569.20557,299.51923
-1178.791,622.25854,362.9507
-1740.856,767.1047,582.51447
-1730.7607,743.00244,870.7568
-1323.7037,713.61926,711.52026
-1285.8002,553.14215,535.3977
-1210.9863,322.24832,527.3453
-1026.6703,255.18002,465.9508
-870.09033,245.81592,398.73404
-689.4518,257.7227,287.20358
-476.2915,180.37776,226.17163
-394.99362,239.44986,140.10225
-423.88467,275.9862,125.62561
-549.2583,295.71503,85.31139
-674.5459,296.3725,66.3379
-768.00525,300.52213,108.59869
-1002.7296,392.9573,178.62915
-1190.4426,474.8007,221.37473
-1492.7521,500.52094,332.6303
-1528.9161,468.6347,368.0181
-1398.6168,345.8253,308.00812
-1247.7909,371.44684,267.90726
-1004.6818,346.79636,326.06912
-774.94946,397.2591,315.09537
-602.95807,418.62164,264.79785
-457.54593,382.65063,155.9716
-384.1835,338.87903,125.61483
-517.01154,363.16513,102.03664
-651.84393,381.24652,111.26575
-979.65485,446.46475,79.35957
-1506.0477,447.50082,-12.175643
-1789.1156,616.14185,62.45098
-1739.1796,909.37805,655.70233
-1288.1956,876.3287,931.65656
-1035.6449,562.77014,671.78394
-1009.34705,795.64435,497.58688
-827.3201,240.30678,404.0292
-483.0388,-14.465234,356.2467
-332.21762,206.82281,411.72336
-382.77945,367.5078,529.7281
-404.93478,373.7669,453.88498
-524.45325,192.08421,328.40417
-669.43097,135.72533,231.29907
-746.26776,140.90523,246.8399
-833.5059,314.28232,341.74435
-1053.847,390.29062,325.2865
-1261.1908,325.33954,263.44714
-1607.211,371.35873,308.2846
-1543.1772,405.76047,384.64072
-1278.5621,377.52698,318.59625
-1095.8528,435.376,342.16
-1026.7626,465.23557,401.72183
-917.99536,588.0696,318.09558
-725.08527,420.37238,223.50252
-578.7007,308.402,176.65593
-495.13458,374.00528,156.27768
-493.1152,380.6407,113.71197
-602.2439,423.36447,109.09209
-676.7144,449.62173,87.67981
-712.7469,468.5009,159.5952
-819.78015,404.66537,179.68773
-1545.3877,342.4621,126.44054
-1902.956,384.8568,283.6784
-1653.1222,502.76035,621.3195
-1406.4652,421.19818,939.5933
-1114.4744,410.5453,797.94135
-971.74316,228.8577,650.6591
-600.5417,-147.55939,474.7907
-361.6369,25.653353,431.43723
-376.1568,223.21483,432.3167
-423.09116,285.1996,418.58093
-514.6531,196.37923,385.608
-606.8765,247.18146,345.59973
-765.43475,360.02087,393.74384
-1026.5073,376.80304,391.92023
-1140.3433,353.6529,406.76053
-1276.3612,320.50522,386.3675
-1394.278,397.3739,366.3353
-1427.3557,521.1852,444.4594
-1103.0762,498.3825,409.4451
-751.10693,328.67114,254.28195
-790.2252,230.49445,214.04253
-1046.6414,147.56264,171.5589
-1206.1119,155.01784,59.664436
-1114.7458,279.57263,66.12568
-995.8833,432.1372,155.51022
-815.4774,465.07315,202.8045
-685.4159,399.34686,179.76808
-595.7466,345.83496,153.43222
-578.3306,336.46622,183.06023
-512.75696,308.59494,173.07304
-470.62186,341.4095,166.26082
-530.1637,444.0875,189.29138
-675.40906,496.7083,221.03532
-814.10187,495.2921,258.592
-997.5538,459.98834,301.06033
-1235.0748,407.41937,302.74753
-1539.113,370.69754,307.95267
-1301.7997,327.73056,316.92783
-1079.1273,283.95084,307.42902
-1178.6075,227.23557,306.285
-1179.7089,229.81572,328.81964
-968.9615,236.41782,274.37262
-649.27185,302.97946,200.97646
-531.2033,350.26584,232.07535
-406.56195,343.9487,220.97327
-423.00104,400.585,220.5629
-467.31674,467.75055,252.97989
-502.01685,482.65616,317.141
-548.19183,457.37286,395.58252
-583.8696,435.26456,449.23474
-610.8758,361.41135,450.77448
-598.7164,231.70685,385.59457
-610.5649,217.47229,328.948
-688.9934,268.82825,355.61844
-972.07556,331.74738,449.77838
-1410.0675,320.73212,450.9201
-1663.33,327.00494,453.02713
-1682.1431,236.14922,355.88538
-1498.72,205.05728,253.53978
-1323.3712,186.17299,224.95815
-1094.3622,292.34793,203.54312
-778.4479,312.9341,186.07343
-533.9152,303.92828,178.21356
-414.06528,289.14502,166.35002
-377.32065,271.23187,167.53418
-336.15878,222.75208,142.39938
-374.48795,254.17131,127.64557
-605.11066,321.38376,150.13466
-710.7465,373.14764,219.64355
-777.63275,371.2171,289.26315
-910.1325,448.55527,338.738
-1373.0326,620.1844,406.80826
-2027.1147,866.13586,675.51196
-1488.5646,648.7236,695.24493
-1234.2233,633.552,540.4688
-1213.1415,533.52985,643.17737
-874.45856,271.9421,571.24994
-509.98517,232.96983,394.45972
-345.12903,330.41147,309.02847
-334.80966,297.4128,302.54227
-298.8826,126.17271,273.0292
-309.03488,252.79877,218.03012
-402.45648,380.47083,165.55206
-577.57837,455.71344,206.24821
-860.01746,410.98914,158.72871
-1223.4768,368.4048,67.827866
-1552.3176,515.19336,182.7639
-1581.4379,580.48694,282.73358
-1439.591,460.26575,225.07008
-1369.3109,454.58078,228.04095
-1211.3689,391.08316,323.25616
-985.4889,457.86316,350.37955
-722.71826,487.71353,309.3822
-440.19693,348.56485,241.35521
-330.39026,270.55017,196.31384
-344.7643,216.15024,211.02449
-410.43573,193.94504,150.19699
-497.45102,322.938,221.76666
-708.5909,396.99088,238.38875
-1013.82684,472.2376,193.22556
-1673.9602,734.0097,372.53256
-2060.4592,909.36316,831.6279
-1290.9966,619.43195,777.6571
-1018.8892,555.3308,487.6834
-1053.5739,424.86154,422.0136
-833.0623,189.34584,317.84894
-506.5424,188.93053,265.59476
-319.17404,299.31305,196.96756
-258.13208,341.63525,202.15611
-367.3904,423.99277,248.0998
-534.2354,383.97717,255.71481
-678.2138,341.25427,221.14389
-758.3898,266.01004,165.70291
-1022.8136,239.55452,95.0382
-1358.3898,225.74025,81.11401
-1660.5253,307.54855,158.13306
-1668.6401,385.60712,253.64659
-1536.377,397.56448,253.83888
-1337.537,397.15265,246.23442
-1100.7047,392.83826,325.71292
-856.6331,385.4661,340.4387
-623.18976,374.00494,247.27391
-515.11005,383.7805,218.45724
-396.85663,378.92682,222.47873
-371.88086,289.52097,192.9232
-495.2419,275.21057,186.48009
-535.9969,285.18115,212.40762
-825.73895,331.14368,197.31247
-1346.8752,378.3554,213.20882
-1637.8435,524.3425,284.64084
-1856.9374,805.8016,646.44434
-1419.0476,800.81006,920.7348
-1078.2485,469.68243,697.61237
-1031.9214,468.0466,471.55127
-841.4478,201.61253,336.08398
-500.77438,50.416435,268.69537
-308.21613,185.6007,241.06985
-298.45932,269.27142,257.63623
-335.8138,336.1923,302.82404
-438.9025,366.8602,286.21686
-614.00977,394.03735,237.88853
-737.6817,339.97696,216.94704
-960.14667,251.45068,170.35486
-1045.9357,191.91177,168.41321
-1401.0419,306.26697,223.90425
-1562.6608,383.65247,305.07355
-1354.5662,332.0702,249.08733
-1272.8073,346.3265,242.14616
-1191.0112,365.04144,268.81104
-1088.3838,448.25153,276.985
-931.0305,534.4393,285.31995
-637.34106,519.88934,290.80484
-405.1355,371.92355,192.32518
-229.93706,240.62476,88.56851
-225.4925,192.69559,81.97195
-363.4136,230.87317,25.520336
-1072.9913,355.79816,-23.755379
-1466.888,666.1219,184.35803
-1268.0995,786.14246,332.6931
-1067.3137,916.12823,584.8045
-679.75104,640.0258,811.5257
-925.05237,427.75922,629.80237
-806.4931,328.87497,416.01508
-1023.7689,56.472458,472.34174
-1043.7584,279.62888,458.3149
-1441.3398,378.79987,484.87665
-1931.1237,747.86206,664.422
-1551.7305,540.3701,716.5567
-1292.6985,293.07758,510.24847
-1212.1206,335.34204,445.12692
-1228.9034,149.53645,496.93973
-990.60706,28.680761,334.79846
-717.5065,151.98398,141.84547
-539.3272,145.83502,169.78668
-476.88724,186.67462,202.54333
-432.49637,242.34998,212.0702
-432.0007,359.5354,195.9633
-512.9297,442.85587,175.56581
-594.50073,540.1798,157.0648
-724.3441,586.56415,176.17969
-800.21027,570.97394,183.23532
-965.917,473.1524,213.26875
-1238.98,410.3972,185.74261
-1452.916,489.22787,247.28119
-1444.5048,596.3267,345.79828
-1236.9062,433.79614,222.87514
-1080.4824,265.96634,75.06119
-1026.7692,227.8271,61.329685
-864.04016,330.62546,75.684135
-679.2696,402.04922,17.914017
-554.35236,482.30298,-10.328188
-547.76624,557.76215,66.2093
-616.4531,578.9246,144.92741
-689.6722,607.7332,297.52426
-679.3527,560.14404,403.81366
-687.0065,547.93115,454.44406
-828.08997,643.0577,632.4992
-977.667,540.31,687.4396
-1071.5752,432.04022,639.2326
-1155.9604,323.67233,608.7407
-1162.7557,336.92715,609.00354
-1346.0009,387.2572,613.99274
-1321.4,375.48148,604.3343
-1162.1205,336.597,486.9936
-1156.9554,315.73248,363.7686
-1281.4739,275.171,264.54947
-1290.548,223.91972,175.21556
-1054.0969,144.62593,92.08293
-947.9384,102.265976,20.718344
-832.2312,121.12921,13.660981
-643.1031,159.40819,36.97031
-564.8202,201.78061,44.044582
-478.67215,229.17511,65.391655
-390.5798,192.74356,55.773827
-318.41605,190.71681,99.76711
-404.2206,245.02034,140.30492
-473.6981,350.00735,168.8047
-487.1733,322.40738,140.35455
-622.8298,539.6343,217.55025
-828.449,636.7805,331.59332
-905.4995,551.14374,298.31723
-1291.3467,575.23267,332.13626
-1779.5491,716.3905,470.3675
-1756.9882,1336.4432,554.4736
-1423.6552,1493.4104,449.819
-1082.55,927.8392,274.87958
-750.25586,530.86804,249.18784
-542.0457,273.03418,285.52008
-427.22437,202.83746,314.91483
-329.48175,498.2423,248.6249
-187.35542,714.4419,179.26811
-152.67813,743.0316,238.50238
-312.1949,668.3977,275.2511
-540.743,611.0683,336.99988
-740.6532,451.1755,348.21652
-1343.2854,400.7191,354.47083
-1752.2078,309.85645,298.51196
-2004.8805,340.314,315.9507
-1952.4733,327.00873,300.65353
-1545.0276,210.06049,250.46686
-1199.6406,263.39313,220.51227
-785.6846,297.06122,210.9389
-538.3002,265.24646,163.3253
-358.03598,275.45056,94.44553
-343.86365,236.9755,68.55968
-298.34,191.22096,61.72067
-266.80737,182.81517,60.20225
-350.6577,213.76497,43.390934
-481.18277,272.54657,20.934727
-602.06146,383.293,115.003204
-894.6318,433.96094,194.81525
-1450.3215,624.8774,352.33017
-1923.232,844.33136,583.5527
-1650.3029,707.4316,766.01416
-1337.4843,624.25867,832.0596
-1378.0994,616.8429,866.1454
-1151.3108,433.75754,640.969
-719.55975,425.02634,458.02744
-470.93692,424.7799,423.8644
-341.77213,397.82675,353.71024
-299.19318,414.99985,317.7807
-269.264,443.28183,288.8238
-324.06226,275.87445,276.13226
-463.79654,264.63104,272.4015
-615.1253,379.44943,232.36
-790.1864,382.9179,228.70723
-1183.5892,346.8079,186.27698
-1549.6267,280.16367,204.18704
-1776.1135,285.54797,266.2041
-1699.6165,342.94937,287.39908
-1438.092,351.01505,277.89914
-1196.2408,376.99387,267.97363
-930.8029,428.44037,247.00284
-751.79425,405.20578,237.04669
-600.3026,411.30353,211.59892
-526.9314,354.06482,274.11258
-445.1979,306.5428,253.63458
-364.08966,298.56262,195.78593
-400.27957,321.11664,176.64732
-486.7182,317.49692,176.11089
-563.05963,357.11102,159.15123
-655.99805,402.21924,244.42407
-798.27997,401.36478,255.52483
-1299.8152,507.51077,321.88434
-1877.7034,665.7347,421.41638
-1851.4467,767.43677,741.2872
-1275.4207,499.3898,755.3115
-1159.125,562.8836,591.7958
-1158.1556,568.49396,559.98126
-901.7584,311.23468,422.58298
-565.6673,303.75,282.42828
-514.65204,395.53323,235.38194
-507.03177,354.6557,268.82343
-487.38565,205.10246,212.8215
-507.88907,281.42404,167.16788
-587.51306,277.47485,136.82924
-655.096,260.9243,98.15538
-762.9281,262.7911,97.4936
-957.6375,207.43967,105.819565
-1183.0419,163.1091,96.57798
-1205.5658,282.63745,186.97742
-1421.0801,375.20813,302.19708
-1422.5897,442.95905,321.488
-1296.53,403.3845,293.2737
-1153.3248,398.3644,319.93585
-1005.0516,381.64435,355.43784
-853.40234,386.43506,315.93213
-757.5642,305.25076,256.3878
-588.94666,281.1409,195.89343
-600.42114,329.0044,115.65605
-513.89276,384.8914,92.76643
-417.65405,327.15164,89.78466
-528.6426,389.66876,48.359936
-1224.2478,542.7,92.06428
-1900.6729,808.99506,255.51411
-1577.6366,867.7764,542.55597
-960.1388,768.55005,712.83685
-865.7756,553.59546,788.66327
-767.44934,408.54208,550.0309
-695.13165,282.94037,325.53638
-506.83868,87.364075,301.84753
-314.0708,147.30414,252.40036
-532.65466,265.3357,353.95184
-1015.649,342.9396,408.84866
-1716.9065,305.1998,405.9211
-1826.9465,339.07126,361.87634
-1437.1394,325.87137,301.7639
-1036.4147,294.5933,203.13489
-854.23456,383.7336,350.50296
-822.6742,489.24072,392.0259
-672.2646,506.1959,301.78
-445.94095,264.02292,180.71426
-363.17993,133.11995,123.46874
-403.4165,220.02856,167.7986
-494.45453,260.03912,180.74384
-603.12744,314.3226,206.29994
-732.5684,397.4796,207.72466
-1298.8785,383.5716,156.5479
-1922.3918,491.98975,253.14276
-2028.6584,576.74524,483.8024
-1638.4172,629.2696,770.8611
-1178.8503,443.27625,728.79175
-1026.9352,373.72858,548.1375
-762.57855,339.16153,402.07526
-516.7835,212.12553,287.37012
-350.61157,280.33295,259.62207
-362.52692,366.1539,308.147
-464.84573,364.88678,404.502
-589.726,315.06335,420.04175
-690.67474,16.207428,416.7735
-956.22534,127.460236,402.318
-1193.4564,363.9462,351.72626
-1443.6539,403.1312,363.18842
-1775.1512,396.81506,336.94104
-1740.3771,305.78003,288.1388
-1158.9004,216.98453,178.25668
-830.3315,132.47133,36.030582
-806.65576,151.68198,-11.956359
-839.8626,204.26155,-19.58002
-930.21216,334.1477,-24.036419
-863.3763,380.79816,-30.382275
-821.97656,451.41116,25.049828
-770.305,446.87506,134.26418
-697.45325,423.36984,168.85669
-654.59076,367.2631,174.9948
-688.56726,341.3709,176.20485
-755.21075,406.62555,189.49236
-766.33765,448.57562,209.90765
-749.0732,423.36545,178.72122
-803.45856,439.0829,164.62413
-920.0432,450.83182,168.83543
-922.3,466.47128,196.40154
-989.57776,477.11975,213.9714
-1093.85,432.76245,207.52132
-1346.3842,337.5989,198.1914
-1335.0144,227.42729,198.80727
-1169.5583,147.51694,252.3869
-1155.0311,193.69447,375.20782
-1056.4755,287.1149,457.51022
-834.31885,258.8162,405.39737
-645.45825,261.99908,281.49707
-491.75656,251.65736,276.4813
-410.35892,265.00784,328.12973
-391.31616,311.3167,305.1469
-404.54614,364.09912,299.58276
-465.3334,396.76123,348.30884
-506.65924,442.28482,354.14636
-539.76935,441.13846,335.95157
-581.7237,405.25372,318.4183
-678.79266,302.57327,295.31882
-801.69214,250.47716,294.40472
-1026.0706,276.3195,396.26703
-1417.4773,306.96173,473.12158
-1806.3923,406.499,486.51575
-1691.5052,332.81302,409.13773
-1433.3715,229.49911,321.6684
-1321.2719,202.66411,277.52835
-1122.784,269.95,279.89676
-814.68286,347.72775,234.70642
-516.5392,309.7541,183.14781
-354.5307,221.86955,123.20846
-281.78772,211.83829,119.70783
-189.9759,187.34981,140.66803
-191.94102,146.01527,119.48977
-373.5486,233.50215,78.78225
-636.8153,349.42825,111.58624
-834.7876,413.18103,193.62137
-1177.4783,498.27158,289.94876
-1668.309,616.4824,341.17426
-2259.303,885.8869,728.2922
-1541.3646,937.5237,952.7948
-1074.4355,583.5691,637.89355
-1055.139,192.79192,480.53613
-755.01074,143.23314,379.716
-547.4145,268.7838,363.72382
-372.37247,308.84573,325.45636
-370.28894,427.86127,332.18054
-365.36606,382.65973,273.54614
-492.7911,397.11148,238.7437
-530.92377,347.1959,190.7499
-610.6626,328.15222,177.1834
-688.72076,282.16605,148.39735
-1204.3969,329.8444,177.24637
-1614.561,348.57513,257.39822
-1825.3805,352.47556,277.82538
-1714.48,297.78638,256.75482
-1374.101,251.83989,245.76813
-1070.2161,317.67828,281.95477
-829.149,381.10406,273.04782
-704.26404,420.93222,245.7107
-575.0279,410.05487,237.93893
-450.3049,323.82513,197.65955
-352.8617,253.2433,181.97514
-386.36707,249.9478,158.23314
-552.48987,310.535,187.24422
-595.4062,381.55237,211.98972
-836.1211,440.90662,269.40237
-1259.8656,502.68845,296.28537
-1721.084,648.7753,365.8758
-1834.6173,814.6258,579.71173
-1329.1992,880.08496,654.4639
-1321.7999,749.7671,591.3011
-1081.2734,496.6651,463.69098
-873.0334,353.04532,280.12012
-721.2407,281.04892,248.99173
-636.1833,231.39255,249.74051
-563.52765,249.53777,238.42249
-567.2518,294.46973,181.22632
-608.5195,299.05695,168.73973
-771.70233,310.064,191.12386
-758.26276,285.06094,174.35344
-950.97394,284.337,144.20341
-1083.9967,317.77045,215.74257
-1402.541,333.62866,291.4953
-1566.7474,370.03317,333.9678
-1319.0367,311.15903,317.67145
-1121.0057,336.70593,279.07227
-1056.6882,379.87405,250.7205
-906.47,380.16846,275.73782
-754.73,405.77078,269.31546
-637.85626,371.9881,273.82834
-501.56473,307.09006,194.45767
-603.76776,346.09363,173.17438
-767.84357,382.67215,137.8271
-802.48627,421.42166,188.58443
-936.5485,435.19165,204.4804
-1212.2446,528.77423,205.12773
-1625.1517,717.57855,249.38284
-1819.974,1070.4607,458.80472
-1320.3518,1009.3702,673.39886
-1127.9323,738.96155,609.69446
-1102.121,741.0545,601.71405
-968.4629,489.518,449.30954
-847.1819,298.7367,322.63168
-679.93634,202.86272,228.65387
-697.8305,235.95367,266.4368
-653.7673,164.14966,271.89053
-657.0866,158.58075,254.44154
-697.1618,315.965,186.6572
-793.5236,347.37827,147.892
-811.62463,244.78159,101.8061
-847.97235,198.43861,69.552795
-904.87195,170.08601,112.32181
-1072.8794,236.82407,245.05974
-1282.7793,305.05582,273.18903
-1306.6716,343.74564,265.81058
-1211.3916,328.79755,223.5216
-1083.2037,302.77008,207.11949
-1051.6133,309.79742,239.73865
-1105.9059,464.7282,311.44766
-958.6544,567.7087,288.34592
-848.33044,492.22427,192.51494
-718.5586,325.4898,129.14183
-769.66034,260.71387,147.50151
-999.7899,267.7219,117.84545
-1613.7809,362.266,48.23922
-1986.0336,755.1582,89.968346
-1277.8671,1092.463,319.52878
-719.54333,1012.85547,311.27066
-580.31244,1028.4395,476.79984
-569.71893,747.45825,489.86807
-543.7285,548.49915,368.3444
-550.6781,562.6623,342.41916
-756.0728,606.9407,586.0321
-954.90704,200.88493,615.18964
-950.4271,136.58301,505.55847
-1273.057,345.17108,448.12234
-2044.99,342.57623,492.5371
-2262.4578,225.96028,610.2419
-1862.2245,59.962368,386.4952
-1593.2606,194.39769,188.0939
-1345.5671,223.24509,212.76207
-1040.2626,281.99448,269.08868
-822.7946,331.4222,263.40564
-668.8231,265.05826,210.30397
-547.53625,156.91104,159.11107
-478.86273,170.81715,177.53099
-464.15384,205.0435,211.02194
-512.1979,329.70123,204.20027
-510.9404,483.75958,196.1427
-582.3343,620.2235,207.45035
-639.1236,673.5323,243.36983
-694.4204,595.57806,239.32155
-846.24585,456.49634,175.8399
-1244.2395,392.602,45.393757
-1578.5912,507.65344,-7.8475175
-1487.3545,667.7592,-39.286335
-1267.5961,581.3011,-138.41876
-1175.0049,483.41943,-20.437386
-1113.8398,401.7196,69.55512
-902.29834,376.18896,7.945909
-719.888,404.12543,0.738174
-613.3768,387.359,31.033354
-567.2863,375.81152,40.605473
-637.5045,478.1842,148.45566
-666.3309,509.23795,236.4569
-679.2346,559.2222,308.2226
-782.0628,611.9941,403.38467
-968.5397,663.3794,507.18994
-1035.4554,637.4696,565.8148
-1020.18396,576.1311,600.9965
-1052.534,525.6743,594.852
-1196.1399,499.84082,591.8425
-1339.9028,500.8784,617.9185
-1221.3412,394.4991,594.6579
-1128.8729,311.00156,495.69882
-1193.0948,263.3382,396.99673
-1295.8536,213.64365,333.42633
-1219.0258,189.06989,250.4017
-1054.2689,215.07072,165.97353
-895.93427,203.84511,115.29281
-822.2194,175.64731,95.89902
-640.9283,160.16374,43.281483
-548.90295,194.88373,68.563614
-443.32578,200.04922,116.11513
-335.634,134.66228,93.07296
-308.91522,156.467,82.9887
-372.51392,239.52101,94.49453
-453.63422,317.4789,108.65747
-517.5074,333.709,152.19075
-632.0757,386.23114,227.83398
-749.8378,399.32703,333.99927
-989.5844,416.51755,405.48566
-1316.2756,365.03775,313.62442
-1950.1879,514.7677,325.54196
-2359.9148,998.0121,810.9272
-1724.0018,1312.7207,887.6908
-1180.236,927.31165,329.29977
-954.2926,507.86932,223.42041
-701.3949,196.7332,218.53714
-538.7557,217.08998,154.05618
-343.19867,470.1353,100.57837
-114.63187,653.39996,65.4326
-100.96555,829.42474,140.76826
-230.63087,771.2933,240.96172
-453.2372,633.0891,301.22437
-702.3978,536.11646,335.46048
-1278.5183,445.04202,383.78723
-1888.5751,308.90115,447.46555
-2243.8157,181.27084,361.8207
-2094.597,156.16562,270.62964
-1748.796,121.14698,297.6218
-1474.3224,196.57411,307.41568
-1012.52026,210.08809,209.57478
-698.95447,246.92642,140.40565
-465.4995,196.30351,86.45902
-308.5509,146.01018,55.15843
-216.8157,63.188484,51.27722
-249.66591,58.91808,72.74535
-367.33414,132.01602,87.47984
-477.16855,127.592445,57.128613
-578.0378,203.26952,133.81587
-733.26025,269.54587,204.00111
-1006.0042,354.49222,264.35742
-1484.8989,515.0504,397.98834
-2000.193,645.08496,626.6042
-2008.3933,762.53253,958.24536
-1663.4937,764.21716,775.93744
-1347.651,832.8748,492.6005
-969.8043,449.037,326.73367
-606.6367,204.2143,322.7079
-386.65634,343.7879,340.4689
-277.6102,474.43295,296.53394
-258.94955,649.27576,304.2334
-333.9181,686.19635,394.736
-456.2532,545.8384,368.25104
-615.29614,552.1468,326.45718
-793.3586,561.438,266.86832
-1027.9343,489.15833,312.88055
-1535.6478,363.3635,411.17883
-1723.6354,227.6746,378.18472
-1929.2465,267.73965,333.02444
-1905.3635,276.7798,291.5228
-1459.4504,172.13539,193.42392
-997.1611,192.33191,160.06938
-548.92535,193.79706,149.62032
-371.5253,231.12567,159.3472
-282.90524,234.61284,123.39264
-233.5309,205.93724,103.89318
-295.11133,122.874916,69.840416
-512.4081,112.321526,48.19897
-682.7714,119.82009,1.8719023
-764.3473,188.7723,89.712616
-1003.0402,257.61472,193.03946
-1272.6271,402.05518,277.16653
-1709.882,731.4067,454.84436
-2207.5886,1104.4302,849.2665
-1549.7662,749.2587,753.38495
-1205.8387,690.2097,553.25946
-1006.03955,451.1892,544.2748
-741.818,136.9982,417.12473
-487.132,301.12308,382.6761
-293.4796,459.80234,352.20703
-183.6472,559.637,383.14178
-204.8931,527.9673,348.9399
-332.15082,463.1365,384.69873
-699.4646,504.2831,392.22916
-1042.3988,165.42993,291.59836
-1543.1362,-247.60776,192.21878
-1726.7539,-103.02168,91.52277
-1868.7411,58.565674,104.7111
-1771.3678,283.59186,157.6426
-1500.9503,415.1145,94.99444
-1197.8583,464.28406,90.20644
-829.9418,352.8586,105.26445
-638.19104,361.28577,153.71013
-537.8381,260.9719,181.45227
-438.8592,201.28044,145.56708
-423.76443,147.45782,84.5566
-481.40726,132.83228,19.412718
-514.2407,151.67712,3.1253557
-407.59613,216.7498,82.208534
-432.2943,215.58022,135.28073
-709.8172,328.4051,125.92373
-1283.3337,545.08887,238.16476
-2046.9131,881.4394,669.61926
-1634.7977,818.42615,941.6496
-968.0082,626.1466,764.0955
-908.0961,348.27444,633.33514
-824.7525,107.9116,477.91318
-523.03394,120.102066,336.17856
-388.07956,290.35583,243.08704
-252.78691,488.1422,296.16486
-370.28995,468.50327,338.416
-629.24866,486.19592,380.17505
-1486.3903,553.57605,468.41092
-2024.9813,504.97275,460.4902
-1745.4913,301.31467,251.50182
-1329.8517,161.67744,116.31246
-1163.9445,209.981,273.78027
-980.36957,259.9465,257.48138
-720.006,380.5824,204.7507
-489.03067,433.20096,181.13094
-335.2895,472.15695,157.56804
-333.09265,417.56647,196.47601
-307.853,303.96414,177.54242
-393.8623,299.666,171.76714
-474.24396,347.57074,283.78406
-607.47205,391.66763,446.16028
-917.2353,418.37463,360.58878
-1539.7778,431.23965,486.25467
-1901.5021,387.54977,665.13385
-1797.2338,351.36212,778.0514
-1509.1703,372.1525,789.5504
-1145.6346,389.19724,516.13464
-875.2975,442.514,310.89923
-618.0362,400.92355,173.53415
-462.372,426.3507,205.59242
-370.43616,417.5896,226.15347
-354.43976,412.08313,189.1595
-421.63754,416.1399,181.92044
-548.3456,405.26138,253.35622
-753.3849,410.27988,292.95264
-1062.0638,410.8275,341.9935
-1254.8376,389.8153,390.00967
-1474.6737,443.4178,455.5438
-1562.8839,495.36713,553.8265
-1254.2349,391.76154,571.9523
-760.54694,187.54294,391.53635
-680.8744,177.1693,271.42163
-774.24835,211.90584,237.54398
-1042.3357,221.7819,215.53494
-1280.5781,215.3243,147.37401
-1154.0912,351.66882,117.459274
-904.23584,389.6287,161.77046
-718.56476,370.2293,227.72601
-648.8015,411.8265,224.43195
-586.8941,411.52493,193.14482
-554.8948,443.5183,147.52382
-525.22723,466.81085,168.94289
-486.44528,460.20206,165.11273
-512.24524,515.8646,165.3889
-622.3043,558.35,191.90936
-754.4676,560.7515,213.32085
-877.0312,518.8971,266.12817
-1065.7883,492.20255,355.30292
-1288.0515,441.6378,346.81564
-1373.9813,429.99326,389.24133
-1099.0337,348.3557,496.5894
-935.28516,230.56334,406.76434
-1109.1179,239.1534,431.71033
-1102.6455,173.45123,415.59955
-921.77625,159.51117,282.939
-651.5852,292.7417,201.2874
-491.0711,394.91028,218.38728
-406.56924,432.29532,217.15962
-384.49774,492.5215,238.52989
-416.20847,510.1512,376.353
-493.20596,474.13486,482.74435
-555.89276,429.6916,502.0347
-614.9106,316.64423,433.63837
-677.5299,181.32492,380.17062
-723.24304,131.38527,313.51035
-807.58527,297.51483,340.85867
-920.29456,362.50128,371.99045
-923.8391,416.1503,483.47284
-868.6191,431.9969,493.13214
-866.9384,289.41666,377.62726
-1253.489,295.2553,289.79565
-1300.3866,302.73334,227.50851
-1107.4038,219.82532,107.134926
-1227.4124,296.25775,152.65366
-1103.4536,328.4195,203.29816
-919.0057,421.58975,221.75606
-699.5859,466.06552,204.46056
-571.0935,484.86777,165.88048
-527.6855,457.82523,243.29947
-416.96753,378.48285,278.02563
-251.65742,199.08647,133.39705
-316.95297,239.70207,36.527348
-859.5047,545.61725,225.65337
-1929.4686,844.6103,713.1254
-1752.9337,721.38196,822.1495
-1099.6082,735.8254,875.4937
-872.1958,256.37408,705.01276
-784.65656,55.022705,391.2009
-628.4207,237.68532,337.17123
-469.69812,266.39545,342.19006
-270.05032,151.08968,301.3046
-172.47623,140.60439,255.89578
-266.66122,219.89499,216.91968
-1179.5282,315.36215,114.59808
-1568.1273,487.72714,122.915146
-1595.9291,543.88794,149.01039
-1459.134,449.6324,114.81091
-1187.149,294.8324,230.39348
-1041.1062,358.77255,369.28085
-812.3922,458.25085,314.89706
-587.42487,386.81268,216.31908
-349.52097,419.8276,182.96613
-223.06494,365.0078,145.63113
-251.46631,276.00934,77.701324
-566.77234,356.5255,98.261856
-1544.7448,760.69073,564.47015
-1838.0721,947.59753,854.8266
-1329.3356,701.0885,855.5388
-1056.9564,290.06802,740.7546
-972.84045,-3.084624,456.9395
-790.92145,206.31506,288.75433
-496.893,286.27182,254.61127
-285.88486,329.78387,289.1732
-134.96619,219.72807,305.93298
-183.14862,211.88762,289.1775
-607.61285,239.94637,239.44374
-1611.3743,328.63397,90.86847
-1755.5352,544.92566,50.834793
-1503.6277,537.06464,138.03159
-1088.0552,278.45044,202.20627
-900.8153,324.799,344.78867
-864.18695,473.31116,379.67538
-687.0038,441.66434,244.89256
-463.10095,361.4966,165.76772
-191.46577,304.90427,148.94716
-226.1643,171.52151,21.860872
-400.41562,237.82426,149.14359
-1284.7256,818.5764,510.46207
-1856.6803,1029.2504,766.4821
-1479.6208,754.887,902.385
-1065.9777,555.66425,683.2222
-779.74854,8.000597,369.0599
-769.1502,133.88713,335.36774
-578.73865,317.96533,382.53763
-408.12344,190.71945,362.90756
-253.8306,324.21167,342.21484
-269.9387,333.38712,334.5593
-450.24487,325.44098,305.42566
-996.0842,463.41864,255.36592
-1735.8416,564.38556,250.72829
-1781.8219,494.5284,277.34836
-1447.1953,320.59088,229.20921
-1064.8942,270.3681,307.5747
-873.5431,304.896,343.27
-614.3781,400.0971,293.62674
-380.77573,325.76144,196.12685
-249.31732,340.92188,92.865456
-330.1433,320.38315,143.14978
-470.09912,286.55768,180.95738
-994.3328,317.52722,190.82718
-1646.5079,511.51636,351.78647
-1541.8412,633.30914,736.17944
-1217.6475,642.57117,946.3947
-1158.2412,590.7002,889.9655
-1060.059,409.8021,602.93945
-687.1135,253.30666,341.84656
-461.71707,199.32532,242.3571
-325.34293,329.32886,264.73355
-274.12753,309.2558,328.59464
-295.12946,343.5721,311.9597
-473.77463,492.18054,356.9023
-741.52997,496.98013,350.00238
-937.8815,447.07562,402.16907
-1184.7876,435.13577,465.31442
-1424.379,396.5905,531.4655
-1713.474,355.9904,472.90927
-2132.8843,476.33594,574.94037
-1731.2811,325.34802,621.4429
-1099.4005,164.52943,376.9297
-806.8959,180.54721,299.90414
-774.41516,115.74872,285.027
-736.23157,175.5584,274.7137
-656.3202,237.90775,240.1248
-568.17664,297.08853,225.18639
-524.1366,336.97018,210.43274
-480.30692,360.3871,211.88121
-445.63803,375.91644,214.61313
-499.10144,442.05276,249.98628
-588.8746,499.84338,299.99817
-719.5945,556.31934,352.73764
-906.4346,499.4555,337.95602
-1378.3562,501.00616,340.31448
-1620.0896,489.04813,471.63336
-1444.047,385.08453,437.89856
-1241.0348,167.34558,253.7811
-1197.7655,141.43837,212.20671
-1151.0155,200.43976,174.86206
-926.9885,297.2277,38.545296
-710.1968,467.67868,-51.626747
-583.6163,547.6302,-52.168602
-518.433,521.67993,-10.174021
-491.1869,421.8339,24.894907
-530.19727,393.88593,68.11753
-571.31824,454.89325,70.99827
-567.24066,511.45322,100.09166
-689.6205,623.49774,237.3229
-878.955,678.7264,356.3538
-1020.02985,706.63214,463.59808
-1199.6051,636.4768,584.21423
-1346.3325,525.9309,606.24615
-1442.0747,529.0177,632.7476
-1167.9493,497.29053,584.29694
-883.7402,253.02267,480.20364
-868.36725,207.84047,405.08612
-1008.75885,243.0365,362.02414
-1100.2631,227.7515,323.67343
-1042.534,240.66057,230.57942
-912.82416,255.22797,137.11871
-796.1763,251.97997,123.31105
-744.969,257.45032,119.18885
-694.8068,270.38013,134.08257
-610.57166,226.20404,108.396835
-574.6845,222.58957,92.42164
-507.75275,244.99803,106.475914
-461.8607,238.56674,134.93977
-415.17715,223.09729,148.03432
-419.10904,226.93756,143.85825
-540.1289,285.57272,164.92091
-651.8295,373.1703,230.83879
-714.9084,445.94623,280.98993
-747.00665,490.7394,336.4266
-859.0052,488.96317,345.85748
-1364.4237,569.38153,406.75912
-2011.7406,734.5948,734.9045
-1703.3594,712.56573,829.3665
-1230.2128,698.79834,676.2126
-1176.7242,511.5615,709.95276
-924.2689,265.5042,618.2527
-689.67,246.33324,479.79456
-456.92834,312.99762,388.60718
-323.39404,386.94382,356.16495
-286.6927,430.11887,339.1988
-343.43915,497.69485,356.74994
-439.70218,-106.13012,368.77103
-561.379,80.5621,326.94147
-725.9148,383.21817,299.06488
-836.0917,458.1292,333.44055
-877.25824,420.09296,306.8867
-1091.7767,325.76917,259.4874
-1354.1284,307.83487,292.7248
-1765.268,362.94522,360.94684
-1595.9226,422.5832,417.22342
-1302.0964,337.8651,278.94296
-1125.1548,390.1364,250.32855
-868.0237,313.18622,302.5528
-680.84827,327.29718,298.4773
-460.13867,304.76187,230.41777
-357.51257,300.66983,190.02995
-252.44742,279.38397,143.78116
-347.85757,309.94614,84.35117
-514.9976,392.2603,133.99011
-662.3058,447.568,197.62454
-750.4255,474.44977,262.06296
-956.42065,494.92926,367.83624
-1186.9315,475.7571,433.56006
-1829.4653,621.22015,603.9158
-1846.7502,550.5463,773.7992
-1283.431,332.8799,666.0089
-1289.2562,332.2875,575.53937
-1193.5035,273.16183,564.21783
-805.7116,215.82603,373.85257
-467.20908,259.8897,270.377
-411.94748,279.82208,249.99498
-411.86197,218.15843,250.36717
-392.04028,207.09993,206.57837
-382.17896,276.43707,171.96721
-529.94885,344.98596,188.4331
-607.9713,285.45844,181.47937
-694.69885,265.12366,207.51608
-863.9273,254.84889,231.6613
-1188.0916,294.84543,260.3732
-1340.5256,346.01407,348.58304
-1612.181,410.48148,362.27182
-1656.6665,438.37585,350.73312
-1490.9255,379.0599,347.052
-1244.54,380.9446,358.5857
-946.1579,358.97372,328.8502
-679.4286,339.83633,244.75427
-540.95953,309.92178,199.95389
-439.77094,307.26212,191.4885
-376.0911,318.83765,135.18405
-410.80817,337.50797,83.673805
-526.4836,382.268,65.68938
-602.909,469.5604,104.73552
-643.3356,499.33533,169.06891
-944.53326,556.92804,262.8224
-1437.9989,675.0096,454.22852
-1776.9446,682.9193,702.97314
-1654.7065,598.4694,784.04614
-1572.1853,545.01935,723.1892
-1530.1578,286.15103,655.94946
-1075.3281,58.06509,515.02124
-695.94574,113.13239,372.67996
-473.66,214.05583,299.67136
-504.34222,270.9022,300.90707
-393.41205,229.96672,212.26595
-406.30707,280.98935,114.54193
-540.1956,325.9813,111.36869
-641.3372,254.54993,109.45877
-698.5043,210.5201,131.99709
-715.2801,225.63954,164.63911
-856.3881,248.46056,206.17697
-1035.3999,312.28467,290.18958
-1111.4701,358.8637,341.82397
-1415.9138,479.28064,334.4289
-1388.2585,462.8969,355.0379
-1312.0295,394.2349,360.88318
-1288.0056,437.1981,430.22833
-1155.3547,405.63037,474.63412
-952.75616,428.78128,326.60034
-872.659,346.06268,234.14435
-810.44916,344.29913,226.41437
-832.6565,465.8951,192.0664
-844.46985,474.76492,156.10902
-731.2499,512.48444,61.424873
-441.26453,508.06442,84.36193
-356.13672,447.01138,190.75638
-299.3582,358.5062,171.15518
-577.9607,489.4536,120.76906
-882.48987,678.8759,410.2341
-1417.7809,696.2744,640.948
-1697.1661,709.2906,799.1677
-1029.6908,333.71835,665.18695
-912.9992,51.10296,427.57886
-859.3805,-15.710692,423.1859
-816.27985,67.70945,404.25845
-770.0783,275.64948,381.40088
-920.8928,356.70682,398.69934
-1296.7157,413.15585,468.1038
-1578.3971,422.14423,476.99466
-1436.6901,445.6055,373.98935
-1205.6797,438.02292,248.61742
-930.0662,337.5574,222.66693
-858.3321,338.66983,297.28748
-731.6433,336.96536,333.4691
-579.7161,330.42075,281.77643
-431.7194,316.659,234.45674
-449.62067,329.2369,182.25574
-470.84616,374.55905,184.19539
-578.56647,372.58322,183.58218
-648.7525,346.9347,151.02872
-734.6916,358.11987,183.32437
-802.58746,337.95154,227.3383
-1193.9023,327.03137,247.07841
-1797.0262,374.72815,232.83383
-2150.2783,616.15015,406.37592
-1679.846,663.0089,728.7054
-1006.40686,511.6031,629.73883
-821.9836,441.62518,505.33612
-666.9102,300.27954,416.03775
-467.4819,174.23613,254.18169
-358.43134,247.47897,208.54883
-323.466,345.3615,263.2501
-441.1217,430.12326,342.1601
-618.99725,459.02023,437.5515
-816.1311,459.60193,517.3437
-1057.5233,443.96304,584.4862
-1206.2488,380.6976,630.3264
-1287.8584,377.58316,581.5236
-1283.5598,336.955,485.20782
-1322.5072,298.56226,458.6151
-1216.8373,314.1629,480.6034
-921.6306,263.67145,356.04453
-837.69666,218.94902,266.25354
-903.46454,236.86758,228.45213
-1078.5786,206.85109,172.74971
-1052.3544,216.33134,129.56573
-911.637,296.10406,136.95993
-884.061,395.3398,200.28874
-775.6806,390.84833,219.2216
-658.9914,342.2128,191.78656
-657.762,325.82446,184.71722
-652.82684,302.6012,186.60371
-595.35547,273.3747,178.52591
-572.88367,325.62177,185.25893
-624.27435,390.83707,177.89409
-739.9681,431.27087,176.16548
-840.38745,436.8289,186.45085
-1013.1856,437.62387,221.28273
-1179.0953,427.71826,272.32812
-1315.2299,384.6406,259.32257
-1599.1787,372.35187,228.48393
-1534.6598,371.62473,283.37744
-1108.8738,312.7203,273.70383
-962.5305,341.4655,246.13927
-926.64154,372.4319,240.11856
-827.0652,358.9896,199.49231
-683.19214,332.7868,161.69698
-533.6062,332.36044,95.520775
-472.13416,361.1585,134.89507
-459.04196,418.99298,233.87811
-536.4014,462.82672,331.13083
-551.8138,474.612,416.89117
-553.57666,485.3212,490.95013
-513.82544,422.02304,478.06293
-554.2168,217.88242,483.63486
-641.2578,203.18681,438.4324
-758.5357,208.21179,420.9185
-842.5609,107.109764,386.81442
-808.7762,127.40111,306.4623
-894.47394,186.52357,290.64594
-1323.8597,316.93134,318.2607
-1662.667,407.9432,298.33768
-1720.4998,359.3803,250.95538
-1425.6647,287.0486,210.04259
-1168.6028,251.14601,230.94084
-933.8634,293.07712,245.80196
-634.8235,272.59613,192.21327
-477.44693,281.35873,153.296
-383.00027,262.69733,129.77898
-326.82022,250.57089,116.9463
-334.83215,229.00876,76.69715
-530.919,287.6565,98.83791
-683.75726,285.17142,182.83418
-802.83344,289.49118,202.66916
-1164.7225,381.52557,257.45413
-1825.4391,621.4237,439.89395
-1895.0447,836.2013,910.63275
-1366.2252,739.74036,1009.0162
-1106.59,483.77777,729.95197
-963.7324,131.95923,442.3675
-720.1483,-6.300057,287.98117
-483.61087,134.1697,206.69514
-315.03717,276.62637,214.059
-283.92465,415.96133,255.9077
-302.712,183.85799,349.13898
-438.76843,40.68802,357.25775
-643.7802,311.3611,326.00687
-1016.35504,386.44272,298.3479
-1367.259,388.82034,197.30585
-1521.1993,293.35342,208.88803
-1565.2633,368.27866,324.5955
-1418.2544,304.86975,386.45193
-1280.2727,357.47614,324.40668
-971.15204,313.44952,327.52808
-833.22906,327.46326,287.19186
-608.70233,371.69574,224.7885
-483.15768,325.1392,196.75642
-365.02634,299.4057,188.1456
-385.96713,346.99472,154.13608
-515.0317,391.79242,187.99028
-689.2476,434.33652,277.8088
-700.45,393.57642,245.18318
-962.7525,459.30582,274.20334
-1221.2888,485.8298,368.5817
-1702.3906,590.0165,472.71057
-1595.7555,708.1735,715.4171
-1217.1292,558.4196,661.6707
-928.86237,454.58957,572.45435
-789.2731,313.36758,515.2688
-689.1513,270.9953,428.19946
-516.54443,228.59685,363.0161
-370.07034,413.6414,332.22983
-396.46115,291.50473,303.83633
-398.7346,-364.77115,326.28436
-437.93417,13.852437,277.02234
-656.764,377.6111,264.7753
-967.6279,648.49084,232.35658
-1265.4989,624.2323,257.8153
-1371.4683,433.52362,281.96866
-1401.6094,335.02417,296.30212
-1380.991,240.91069,267.19632
-1307.0569,239.80621,220.30698
-1123.9211,340.6966,245.8213
-929.7129,407.8192,235.51952
-798.8266,500.8259,253.84477
-714.8355,487.6292,263.96497
-621.5693,460.69962,269.71457
-535.1068,371.1665,222.54422
-530.5952,330.70502,184.41287
-478.19174,305.16345,165.7763
-387.55392,338.44382,207.48347
-281.1135,284.2792,166.05125
-360.76486,339.73087,111.37814
-755.5669,491.74988,177.5541
-2096.4536,780.6815,486.0643
-2036.1394,728.99023,708.08093
-1081.1735,535.61597,864.1839
-1155.2905,190.72942,805.5677
-858.42065,75.32645,557.38715
-571.04333,102.26895,449.04474
-277.9225,-271.53204,311.58582
-200.60773,141.51686,264.39728
-200.89761,332.54227,227.67357
-458.35333,452.54376,199.22026
-1113.4917,613.0234,139.24066
-1573.1425,589.7532,87.936035
-1642.7294,462.80984,81.02108
-1382.8666,315.86823,119.37835
-1026.7498,207.06857,260.6635
-869.08417,396.7749,300.26996
-744.7025,578.3391,204.3677
-554.43695,563.19775,185.89076
-371.30594,414.37848,275.92206
-260.08524,220.5934,120.46101
-391.1972,32.803604,146.8816
-1101.7511,286.3639,606.1931
-1697.0708,832.85077,693.47516
-1533.4512,1116.1041,924.8418
-1073.4836,725.2412,804.2857
-748.06616,-253.02515,447.35175
-677.31445,157.15121,374.80338
-549.7492,482.11282,360.15118
-447.67114,215.17421,324.52887
-302.4852,124.81356,224.09888
-250.44405,198.177,203.89697
-325.4324,350.51105,187.67323
-1254.5758,514.98004,236.52364
-1959.223,715.73474,288.63046
-1754.6713,629.24506,285.52908
-1375.726,208.7808,135.92265
-1117.239,101.398636,259.64066
-1001.0014,350.2092,394.5157
-714.92755,543.8474,370.89664
-491.07736,522.6764,339.31375
-247.1238,426.03433,262.00714
-198.42159,268.81656,144.40182
-295.731,-46.66664,136.46045
-418.38834,255.95367,216.32388
-1153.292,661.5248,311.41223
-1707.6299,769.26624,631.10364
-1332.6608,889.4826,717.4769
-930.0533,766.33527,758.83575
-898.24774,314.12744,622.8662
-895.0298,251.00317,366.78217
-652.54944,135.28236,324.33054
-424.89053,70.58109,419.9782
-239.5124,277.9635,386.1662
-135.98303,223.4937,343.635
-186.72699,256.26062,249.54605
-612.8411,412.98312,246.34746
-1794.6753,534.6231,199.70248
-2038.4545,662.5138,239.78555
-1541.5359,423.04272,187.73416
-1071.3125,160.0331,247.99644
-890.68195,291.593,473.13498
-710.741,413.68826,379.90756
-452.8581,432.8739,179.82605
-396.1533,427.29492,134.41386
-213.8756,436.4098,115.733215
-352.7362,237.17712,86.990685
-603.29083,260.8943,59.287994
-1332.3901,377.8647,346.8698
-1713.2795,660.74713,691.60803
-1338.0981,817.04816,938.4348
-896.9885,679.04974,976.15875
-749.1289,214.92499,566.8148
-633.17847,134.96431,306.67953
-567.6756,224.5089,386.79974
-334.20612,191.27087,404.5393
-286.361,178.18915,332.09134
-444.55106,342.48804,302.07397
-1323.9147,416.74734,316.71637
-2014.8164,494.52158,309.15265
-1793.4095,478.0012,233.43588
-1285.2046,295.54538,143.99762
-800.5298,228.32025,226.79312
-719.5961,310.18262,246.10101
-605.7305,446.22003,183.36119
-404.82492,429.95773,159.01463
-324.12918,387.95905,115.83115
-421.508,315.3821,90.98767
-509.01035,219.42885,167.90388
-712.95593,183.75685,203.62611
-1063.7781,311.85434,267.68158
-1576.1478,615.2508,518.62286
-1608.2986,763.4766,901.87744
-1188.7429,678.45306,1038.8345
-971.26196,510.09296,786.6025
-937.2881,370.2373,556.4675
-743.93805,252.57883,465.68332
-496.97754,228.54779,395.28223
-376.1207,282.3474,348.0658
-363.5278,333.88055,398.90845
-349.66052,334.4707,371.8423
-384.04163,422.138,334.31415
-597.4247,479.7663,328.3857
-759.8085,470.4137,344.07068
-1065.5513,448.9772,307.60657
-1772.9979,454.53452,412.96854
-2012.3436,338.02377,501.70062
-1847.9348,279.8011,445.24072
-1607.1909,233.77417,358.80713
-1384.1779,209.99553,338.58417
-1090.0714,176.8944,307.38718
-858.1255,199.05693,276.0866
-697.6683,260.44113,311.51465
-638.39435,274.30927,307.21927
-573.51196,271.03693,269.91425
-548.086,255.99294,247.84915
-592.6308,274.19363,258.69397
-614.26764,312.02988,259.86893
-665.57513,386.80603,213.8069
-718.7625,445.2634,171.06265
-727.12634,465.91855,166.37233
-797.45667,498.3299,194.93816
-915.9149,531.5694,187.81783
-1082.8204,575.2347,212.14561
-1390.8411,633.54474,259.95
-1339.2485,609.1149,340.22406
-1120.7631,462.68704,334.82874
-1211.7506,213.29597,249.9245
-1257.4148,138.18585,219.8529
-1072.8955,164.77481,145.54161
-792.26556,246.61282,71.220406
-573.3998,442.9204,80.91479
-368.72113,529.5748,123.116005
-318.4984,542.05585,143.19708
-362.06467,498.87808,171.76591
-422.92374,476.4644,236.78572
-516.4427,494.4709,284.17648
-655.07935,563.02637,380.91888
-747.64874,577.84143,427.50134
-950.7764,659.3308,520.1616
-1029.1146,642.12177,605.96857
-1184.8694,594.0866,642.90015
-1280.1139,571.8846,674.8285
-1417.9685,561.0262,699.42
-1323.4756,449.48474,616.1022
-1001.8659,269.65317,453.21094
-923.37976,255.42722,317.43564
-956.96826,212.97519,263.46976
-979.68146,188.66931,231.18082
-884.8894,278.15808,170.49759
-781.026,361.00888,164.0335
-691.46594,351.69205,178.43343
-612.1683,319.63412,168.4663
-508.5897,277.2829,145.84264
-506.23257,278.153,138.34409
-533.2071,271.79886,164.66194
-553.0723,260.51773,163.27747
-629.89874,299.11688,185.19385
-857.0213,343.90833,255.25902
-940.8247,331.4583,337.6887
-1063.672,328.02185,355.89343
-1441.3376,377.15573,393.89673
-1491.2844,420.30276,577.9602
-1189.8458,367.07587,633.89136
-957.4501,321.96014,458.06723
-1015.1686,221.31679,432.3828
-964.29987,176.25504,364.05692
-779.73804,265.22928,296.76364
-588.9249,331.0746,249.21887
-501.02344,427.75687,279.3348
-482.88693,446.19202,300.67892
-521.9059,447.30524,326.2802
-565.207,409.53006,336.84943
-632.3642,379.19662,368.06082
-773.17194,399.55872,439.5516
-992.2287,419.35175,524.5098
-1072.398,326.4588,501.09503
-1164.7773,238.78546,442.98065
-1256.5562,423.45615,455.83023
-1249.4666,416.82642,484.02515
-975.1712,289.4766,408.79132
-839.4044,280.4199,264.60245
-951.8835,243.46092,220.03708
-1082.62,245.09091,147.19579
-994.1689,262.756,95.219864
-848.02313,298.6718,72.84348
-727.19916,267.9509,89.33614
-692.97363,251.98436,94.352585
-694.05396,220.82265,76.1541
-628.01904,188.27763,22.17358
-557.73114,159.19717,41.99046
-587.18805,182.95728,56.34097
-571.9875,227.85822,81.471245
-577.7112,277.00046,117.77127
-513.1006,323.6533,205.34326
-503.29645,393.85165,274.57043
-636.389,448.15363,199.75905
-1379.8313,579.2167,356.13184
-2059.47,805.7792,870.7461
-1486.9672,832.1627,1103.9104
-1052.6729,613.4284,625.67065
-992.6883,131.16862,398.146
-806.7271,7.6811585,401.36548
-450.9618,65.71423,260.43533
-250.19148,217.2128,218.50711
-197.9502,379.63272,250.59296
-318.09924,326.87073,307.43924
-504.66187,149.76357,339.08044
-1076.4087,257.86664,315.17685
-1715.0618,515.9066,299.06827
-1904.7222,546.0657,282.1442
-1610.3907,348.03476,222.59612
-1444.3552,226.93759,223.22672
-1373.352,276.631,306.9063
-1075.3142,339.59085,314.7546
-805.98755,383.4017,297.02716
-543.11316,343.64395,248.57286
-386.9964,253.26486,170.3012
-323.25436,213.49185,157.96625
-308.90897,234.17662,160.20226
-359.60272,314.7887,151.70897
-359.3395,335.65765,147.59233
-406.68665,369.82974,195.71657
-483.43744,415.3523,239.87856
-773.48035,499.45877,257.12265
-1328.6245,660.8971,386.12302
-1978.3597,888.99115,673.1463
-1961.195,1102.4833,1153.5233
-1517.2676,508.9951,867.31775
-1139.7467,-25.375797,509.71634
-804.0759,18.791862,394.7298
-525.4212,299.11935,245.8143
-360.77362,378.54105,257.06287
-313.17633,73.086494,225.69562
-225.76663,72.4487,247.3287
-325.01865,295.30093,241.32515
-512.1599,555.5987,248.13614
-679.3584,619.1894,247.9097
-602.88495,373.48727,209.93547
-732.58466,261.24448,178.31236
-1158.9813,225.30727,236.844
-1687.3701,310.32397,381.89578
-1897.3755,479.15155,522.69434
-1632.0477,396.62314,407.1973
-1338.2675,289.9447,332.83255
-1110.4009,299.11023,367.43167
-892.784,324.00558,347.78656
-710.9832,392.0124,280.4776
-527.44965,426.0732,285.39758
-431.3523,412.77573,265.84528
-359.23126,336.42474,248.11609
-327.12927,269.57275,186.30342
-335.72113,233.48384,164.75809
-481.30603,290.31665,148.43974
-543.8194,335.98032,166.62492
-663.94244,383.5499,203.87573
-1112.6841,467.2827,261.41217
-1703.1583,595.7665,397.1831
-1945.0103,680.9743,534.50323
-1544.5684,727.14624,785.86444
-1223.401,561.327,782.204
-1190.4073,540.983,647.64374
-966.492,339.88297,438.89536
-692.4735,195.62819,211.87274
-501.5147,281.72318,217.7876
-511.79807,254.72423,235.76428
-358.3129,-348.0982,218.73537
-268.16312,-117.34181,163.23439
-347.0222,273.84747,180.43811
-514.8577,417.6704,212.33408
-635.68317,501.96878,160.51964
-863.53796,414.01797,116.58946
-1260.2692,344.46765,183.94691
-1686.131,262.9317,253.49971
-1885.4893,342.34415,388.00293
-1647.3411,304.07745,343.63187
-1353.5168,285.84586,257.71198
-1081.5493,367.18338,366.11276
-890.7306,444.2832,356.75412
-755.2424,413.28583,268.04135
-451.63705,225.44882,185.23984
-349.493,174.51297,131.63951
-377.37643,121.80962,61.89434
-467.209,177.67397,-6.9482484
-486.79163,261.6638,-3.4316604
-626.6783,405.39496,-3.724056
-995.78156,538.81616,59.481373
-1764.8363,782.1245,63.647366
-2110.2961,970.93256,671.6906
-1520.4083,553.6731,1190.2272
-1323.9269,634.6896,947.93896
-1049.122,335.5839,548.20703
-870.9123,-138.9105,389.09412
-517.8366,-9.470582,303.01752
-336.1437,219.87674,299.1952
-292.7313,287.06406,403.72382
-374.7701,185.53052,432.83304
-437.3301,-332.54312,384.1443
-565.24164,-51.33963,273.02106
-692.8171,369.57837,224.09871
-697.63086,461.18878,237.00446
-913.739,465.68097,175.36484
-1206.4224,329.17776,168.37544
-1495.9718,222.59485,252.14699
-1779.6917,249.44359,284.5834
-1639.1715,388.5055,347.7476
-1331.1825,399.71014,347.53018
-1080.3516,458.86868,348.86163
-996.6394,481.7116,321.93008
-852.76697,433.97644,383.03137
-668.79895,253.96306,318.2542
-518.64856,219.54535,201.53717
-498.46484,249.55907,132.7623
-415.6023,278.88446,139.84122
-477.10986,333.00223,92.31285
-552.2462,428.4524,122.24567
-676.41925,505.89542,198.00714
-653.6565,493.919,277.5915
-992.00494,456.59308,244.73903
-1919.6415,584.76996,499.1442
-2043.1703,451.97708,768.39685
-1770.8806,258.1633,970.82526
-1536.3225,-19.083158,896.0876
-1111.964,-365.20438,595.0837
-815.0983,-239.03615,499.23895
-442.41437,244.0547,517.0499
-289.8539,-47.45585,445.20508
-251.54816,-508.36002,253.41084
-355.9441,-345.0685,272.9924
-497.17468,-10.671217,238.06116
-728.46783,463.21323,241.35115
-985.5605,852.8444,305.93878
-1022.4526,760.4434,331.94345
-1061.5388,456.19403,416.97464
-1066.7642,204.09708,474.0576
-1063.0741,96.285545,430.77438
-1135.9362,261.78418,347.75946
-1307.4753,569.51294,440.93546
-1160.4644,649.0311,486.60352
-879.92126,420.13464,344.77673
-948.10944,299.37708,298.55264
-1113.37,113.53437,245.75786
-1193.4253,30.233936,141.71815
-1098.8345,183.28288,92.55628
-953.22577,333.56116,142.88342
-813.4663,444.67236,214.5156
-722.2224,444.57,201.65804
-637.96014,380.31567,127.62569
-561.49835,331.8579,119.02382
-517.1555,336.50293,136.19504
-534.5134,375.8414,184.64427
-570.75146,451.2799,181.71956
-670.8486,504.62607,190.02605
-817.7366,506.3386,253.44308
-892.1504,469.3057,287.185
-1035.3391,429.472,335.03546
-1296.7535,382.37604,345.36017
-1422.3837,346.67447,363.54163
-1192.9832,257.32315,349.02618
-1057.1383,288.19757,368.88644
-1076.5203,333.79694,431.02798
-995.4985,335.10138,392.1688
-780.49384,343.69467,305.70706
-588.1465,381.8688,273.95584
-501.73462,350.92804,343.56787
-432.7254,281.3039,473.47458
-494.68668,198.69002,562.8733
-556.8304,98.90707,430.78995
-663.8411,207.00179,446.86386
-664.65063,236.36696,434.68823
-519.53674,299.13406,353.81677
-521.0818,295.433,290.33542
-611.6258,255.41704,268.11368
-706.79156,203.62686,293.38824
-748.14075,230.26416,326.4598
-979.12256,327.2748,324.17795
-1399.6173,440.78192,359.9912
-1596.8055,448.88403,410.55423
-1658.4829,356.92,371.13458
-1514.6909,304.38992,341.9724
-1341.3326,257.61807,321.28455
-1084.2671,254.7629,281.91425
-809.7098,218.55136,199.99812
-598.4186,261.2695,178.05426
-455.6295,286.57898,168.32295
-375.5223,339.77014,159.46475
-357.3591,391.72012,161.25963
-425.18036,381.5779,139.23486
-599.65466,376.0085,162.02008
-688.1377,352.92416,199.88406
-785.35583,358.00034,244.33281
-928.17487,382.21033,291.3755
-1211.6271,458.92825,375.2682
-1506.5079,522.53107,519.0364
-1745.1152,550.7595,723.0385
-1352.0154,447.70905,728.37665
-1158.2778,303.22018,607.74506
-1152.1417,220.58963,541.7268
-870.8062,118.74888,408.65805
-609.67725,212.1438,322.86676
-443.60587,252.77954,278.81247
-430.03268,263.4312,263.717
-456.15268,26.325687,285.2741
-460.2261,124.36917,256.04984
-578.61786,301.1111,226.8644
-542.1433,333.53683,227.40834
-617.0951,278.55045,183.87102
-707.7107,235.66286,195.8277
-1002.06744,193.84239,197.3296
-1270.11,193.31511,235.1738
-1577.1824,249.4331,292.04437
-1824.2928,399.66248,333.55176
-1664.0913,411.5253,351.0442
-1443.1903,399.87744,374.19778
-1126.6232,380.61417,438.40045
-871.01263,295.96597,396.12024
-645.1245,307.03818,305.1815
-510.84363,290.3623,226.5772
-423.5478,277.65674,201.42163
-350.45157,275.39062,137.51677
-466.67157,332.5231,92.123
-500.19748,371.64572,102.511566
-571.77106,448.1334,172.73805
-703.1259,450.4015,221.69246
-957.76825,497.08154,274.26877
-1275.618,571.7989,434.33322
-1718.3268,599.9403,544.2865
-1635.3386,630.1938,870.7798
-1382.5457,370.60565,784.5554
-1330.2009,254.27344,598.78925
-1141.1371,153.5432,500.57553
-784.81525,162.65353,368.1937
-547.4606,231.19835,340.388
-488.13458,211.43214,357.1704
-443.96368,213.40536,295.70673
-454.40717,267.06387,254.21623
-553.856,284.33597,237.31522
-616.4746,239.5507,211.04388
-673.35626,208.22661,187.06155
-710.42,189.16176,206.08963
-798.2286,200.6502,203.4577
-1152.5552,266.8521,219.94914
-1285.3424,322.64792,279.4807
-1532.3124,402.83215,326.1684
-1741.4988,467.45096,345.1875
-1445.8872,359.93338,339.06683
-1192.4729,327.38486,338.87625
-885.0387,271.8523,344.13586
-724.95825,302.64236,309.90796
-605.48,372.4263,291.655
-581.09247,343.14023,213.20895
-495.6742,333.64948,169.52205
-508.31674,317.78967,90.73178
-610.0571,306.77414,45.464443
-715.12134,369.47675,67.94182
-689.58234,467.16617,196.6598
-849.9787,554.3462,266.83902
-1135.7283,691.5845,422.12775
-1545.3427,765.03217,607.0207
-1682.3904,672.9314,811.6083
-1369.7242,313.87207,658.4194
-1300.5282,241.03004,483.58676
-1098.9508,162.07831,378.9932
-845.0623,265.81055,337.67633
-725.4562,283.5793,337.95645
-608.5594,265.72604,286.58926
-530.7061,238.71292,222.99333
-541.3906,226.91066,185.13225
-582.2455,214.40662,156.3206
-654.8423,233.96129,139.61633
-743.2565,228.34666,155.74881
-724.87274,196.46172,133.27861
-976.9458,276.11127,196.6635
-1183.8694,419.9481,277.93134
-1375.3091,487.38855,322.5389
-1513.2615,585.5322,362.76306
-1347.9836,448.23352,339.7515
-1247.9396,457.18332,367.35272
-1137.1815,425.47702,432.70578
-1043.5219,504.6167,402.40808
-836.2586,546.3498,347.09
-672.17816,443.13977,316.8851
-539.1193,377.9149,248.35237
-485.9558,381.56116,180.69919
-543.05115,340.90656,139.10638
-572.7853,370.726,107.857704
-629.54364,415.27545,107.18993
-661.4188,504.27234,173.93921
-860.0393,502.0796,205.30247
-1160.9857,660.4775,309.06546
-1560.6469,725.1344,477.03268
-1584.2732,710.67017,785.092
-1266.2211,447.26797,865.5604
-1224.5375,264.9188,589.6054
-1156.5619,110.45379,467.28235
-848.5133,75.59335,380.2244
-628.50934,197.29959,386.2126
-602.6936,265.61453,400.7716
-656.12665,282.81015,369.6297
-650.1378,293.6432,334.59225
-604.9563,300.50247,302.75653
-594.6616,345.6947,300.42105
-550.0827,315.37082,307.77832
-524.6312,391.3653,314.55063
-604.3962,460.19205,339.00623
-829.2203,689.8461,449.79504
-1096.0535,832.42413,548.9619
-1266.329,924.25793,627.5513
-1326.292,812.5818,609.95337
-1137.026,774.5832,554.72144
-948.89825,827.46735,432.494
-600.76465,1066.7074,359.32297
-496.33228,985.9224,317.77112
-225.78291,885.0794,290.3406
