# PAMAP2 dataset (wrist-mounted sensor)

acc_x[mg],acc_y[mg],acc_z[mg]
-627.30524,984.1357,277.1539
-743.6428,845.5366,260.508
-676.3443,744.8924,227.18439
-642.5309,749.0639,179.9267
-599.35486,731.6226,119.05694
-513.18805,794.8134,117.263016
-468.4268,931.5894,89.543396
-486.37405,1010.06903,91.905304
-429.92493,904.8482,86.80841
-411.8752,879.4114,55.245953
-416.69327,941.88495,35.735703
-366.16064,990.08154,5.0162873
-338.99423,1021.90485,30.45791
-349.5168,1021.2165,48.3459
-362.39502,1053.8705,43.828316
-375.9481,1114.3867,80.60448
-415.44824,1121.9355,98.25176
-421.1837,993.50696,119.89199
-426.75424,937.6756,134.27261
-463.58536,898.7302,190.90282
-502.3748,850.16406,208.66982
-547.5869,816.2515,226.66936
-557.6638,759.2463,245.4639
-573.01917,721.4262,261.24927
-608.6553,678.6141,267.8951
-731.6634,613.63904,296.75565
-903.8362,541.6498,280.19656
-1319.8871,432.59525,255.56367
-1479.1731,435.42252,201.71352
-1592.3281,463.83536,194.18925
-1728.3813,426.78528,248.4698
-1347.208,256.6236,242.31987
-964.8015,-18.425714,207.74922
-993.9706,-130.46524,169.0553
-977.89465,72.20661,271.86212
-843.1291,226.32703,289.4823
-688.30066,418.97668,288.40225
-521.3813,490.0009,299.99686
-338.47528,433.41446,280.63702
-319.6475,455.52972,246.63925
-337.98627,452.26523,212.48427
-446.89035,475.2328,212.94582
-646.2108,538.03754,280.15366
-859.3357,626.96063,354.45383
-1249.2902,541.9751,385.31662
-1389.5681,524.39606,425.2914
-1822.3035,580.1373,426.78418
-2039.2307,677.32983,411.48346
-1912.7377,678.09436,344.14807
-1789.7797,532.39777,306.32883
-1624.6178,504.03207,242.11438
-1402.3087,441.66217,130.3664
-1072.8547,379.3399,55.393482
-802.6903,284.05984,24.110888
-569.49146,200.85687,-12.698979
-417.64194,150.07707,-42.443913
-332.136,185.87335,-28.446884
-327.0063,220.05522,-46.135445
-323.0233,269.63333,-42.342354
-409.44327,435.60617,-5.379269
-529.1484,585.24866,121.92307
-772.55994,741.1259,306.3713
-1034.1454,623.0486,353.54312
-1177.507,360.83545,309.77283
-1322.0293,375.6791,416.62305
-1598.8943,331.89017,477.9247
-1683.7052,483.7482,450.4465
-1574.195,534.35596,426.6801
-1352.2092,600.84735,422.09274
-1096.5396,622.4673,352.9736
-933.87006,574.0267,251.80605
-801.1882,530.392,222.45395
-708.79407,461.63528,174.01804
-581.4571,521.9386,100.90905
-512.09155,687.0543,139.65828
-544.7558,763.6087,205.03139
-672.2289,775.3123,303.6334
-998.214,814.26886,329.3067
-1477.7534,867.89154,411.64114
-1622.7352,706.43256,453.45193
-1527.6862,483.75162,406.2754
-1634.7911,545.6626,371.2707
-1812.3789,470.4834,313.62054
-1699.8392,345.4391,257.17548
-1495.5165,339.18594,223.50702
-1157.4354,286.29208,132.91492
-878.5119,272.08932,62.557808
-718.0402,277.92233,13.349652
-626.0246,265.577,-25.992035
-539.72534,203.92093,-43.649147
-544.46063,243.7676,-32.575504
-575.27545,315.0434,-14.343646
-582.6267,357.17255,43.58296
-688.0326,444.57684,170.06696
-913.053,694.2638,326.9686
-1085.624,594.1528,386.10208
-1204.964,390.3314,408.1556
-1387.2065,325.05603,479.7525
-1602.7687,213.05281,511.9818
-1686.1852,368.04846,530.2649
-1563.8925,573.52026,535.704
-1242.2017,660.9172,427.72122
-1029.9938,539.7921,332.6444
-904.8949,423.55643,283.24222
-809.39764,404.1261,181.64731
-737.9006,535.18933,168.72668
-698.25525,650.7391,149.32608
-645.10474,744.2973,186.63158
-664.7365,743.163,292.4499
-842.2159,724.4396,365.0361
-1197.6519,695.67316,431.8273
-1368.6039,696.8516,439.49313
-1460.3597,597.0634,399.98703
-1462.1921,520.71967,334.34598
-1687.2881,533.0228,286.98218
-1800.3356,335.3428,285.0283
-1481.4591,290.63016,247.7149
-1228.1461,316.4115,172.35541
-1023.7539,350.02448,107.63723
-884.7657,369.60004,60.22564
-768.023,297.62573,16.23947
-675.52124,204.73903,-46.12542
-674.90424,209.02582,-26.82481
-715.56177,272.46884,0.28071105
-712.36847,365.80713,47.44496
-809.08026,467.14597,136.66647
-930.60504,503.0422,216.92714
-1084.4822,490.04218,306.3713
-1128.8707,409.66602,419.51263
-1182.575,283.81436,478.34003
-1380.156,226.51793,474.9057
-1551.3873,266.62808,469.3593
-1550.4406,368.4968,529.81287
-1437.5006,492.94055,475.85178
-1250.4663,595.4137,469.30103
-1066.6665,428.5995,304.29822
-893.2125,522.4445,203.48997
-826.0549,641.2448,261.50397
-721.8961,534.28577,143.74673
-629.7227,636.2987,98.2842
-600.0731,673.921,157.69362
-615.0924,594.03546,191.81758
-733.07245,637.11694,239.76521
-1000.0209,676.09125,211.85617
-1159.7062,706.1791,165.46614
-1170.0194,719.57684,129.1304
-1325.7458,679.6935,41.967632
-1513.9662,594.59644,0.22854385
-1746.6976,427.5277,-13.216393
-1763.0424,230.67778,43.626785
-1506.3881,226.41977,79.12479
-1334.3789,305.1586,89.0273
-1090.0215,305.09067,75.54075
-964.88666,267.54855,-4.2653685
-849.20935,235.15753,-21.122501
-743.7604,173.04373,0.62741685
-548.4168,144.68207,19.147606
-397.77533,233.20863,60.243195
-200.68335,361.21844,73.547264
-66.56183,538.32855,133.67319
-100.71673,826.0669,151.22768
-171.2355,987.6001,156.83078
-212.89723,1083.3296,170.62479
-501.76706,1090.7821,261.9523
-675.13,905.56683,414.86765
-808.4706,630.7371,477.59793
-1028.1808,640.39417,544.80334
-1196.2288,586.04626,559.213
-1356.8956,497.0926,461.36914
-1334.7188,404.28403,289.72726
-1228.9603,291.06134,223.03122
-1139.0753,324.98886,256.50336
-1043.8665,373.88925,245.9529
-957.267,492.15244,227.58318
-815.6542,564.0139,195.85054
-724.31067,565.39453,168.55934
-641.76685,543.1304,150.35022
-621.8729,486.89932,163.30844
-604.0536,455.31232,168.75726
-669.86365,476.33978,238.09373
-733.6588,489.09293,268.68683
-706.13654,534.65436,272.54462
-751.4725,536.5004,266.30084
-729.0106,459.18707,207.34084
-758.7383,461.26993,190.88191
-747.08344,481.33826,148.95699
-756.919,495.7744,93.29622
-908.38965,502.28464,74.23832
-961.7183,483.21008,-46.754574
-1167.3501,490.92044,-163.88011
-1456.8309,710.5919,-80.50843
-1521.5562,738.89825,-17.815268
-1331.5054,618.0381,-64.28592
-1316.4221,562.8858,-152.12827
-1359.0449,502.22208,-229.7565
-1314.5521,476.4742,-204.34923
-1186.542,454.7297,-139.19115
-1071.5944,465.95944,-121.693695
-994.59467,470.98712,-134.89621
-889.82294,478.52518,-137.01851
-810.28467,461.00607,-89.55353
-738.6135,505.54236,-73.14607
-700.8231,525.583,-63.321884
-616.75256,533.246,-0.7180017
-573.0443,549.16626,74.71148
-556.92554,562.0061,98.99911
-624.72284,601.7908,160.54303
-754.04297,643.635,284.64545
-967.6284,626.3704,431.78152
-1126.4915,500.1379,495.60873
-1405.2046,485.2031,570.6082
-1516.9882,403.13962,614.2727
-1419.9539,229.49179,531.824
-1420.5344,123.57542,374.83365
-1280.159,118.86716,356.43558
-1097.3181,115.16143,427.02908
-915.30145,222.0924,372.8646
-724.8165,449.29257,341.56885
-539.95215,516.402,280.79315
-447.84854,535.32495,209.46887
-378.13107,534.99744,178.40376
-395.45493,498.88956,201.9444
-506.21313,502.2228,253.97285
-634.7752,532.1284,312.22098
-764.33105,534.9136,313.28293
-942.38666,498.55487,302.33347
-1134.1022,474.24155,299.08145
-1553.1053,482.61868,361.0016
-1734.7582,457.84286,366.83
-1606.2225,468.07925,344.10693
-1507.5713,450.46103,307.04056
-1380.7645,433.0539,218.07996
-1405.2697,386.69827,159.74615
-1264.3691,270.09833,108.488495
-962.92084,210.9547,54.020813
-721.9442,224.05568,60.97116
-580.2983,294.98804,49.15573
-484.74585,297.88684,30.017302
-406.73013,274.44058,10.486065
-397.76236,329.46143,31.667263
-404.7175,363.779,80.362595
-460.91513,424.54,77.639366
-601.5899,505.9073,155.1042
-757.0386,489.1672,331.0409
-1030.4158,325.4889,390.30438
-1458.9565,228.30049,308.34753
-1657.5735,263.34485,335.60776
-1781.5187,341.57733,508.01828
-1706.8955,358.4283,479.9003
-1556.5734,318.15204,390.08978
-1397.2432,298.1776,372.79633
-1202.2537,320.98077,363.83154
-970.4175,397.58252,250.73409
-715.4772,497.76852,134.6358
-536.7354,558.17664,96.21761
-438.0178,549.0106,85.147606
-354.45792,530.8466,90.78085
-347.10477,518.7017,133.95432
-420.61423,553.02344,221.26396
-646.54065,641.1587,343.72162
-893.0074,608.5755,406.8973
-1230.8751,478.557,469.78146
-1527.1251,366.14496,552.04816
-1529.9644,402.30606,555.74023
-1586.3363,509.06003,596.2611
-1550.1241,447.86642,611.6035
-1442.0005,387.2652,564.0599
-1326.1843,359.72888,349.79147
-1661.5281,448.95587,172.53067
-1754.0573,359.53308,143.92972
-1559.193,314.01523,120.52758
-1478.259,432.36954,119.12286
-1236.917,445.67328,66.19991
-986.3633,436.8465,-25.89375
-793.24115,425.58167,-61.76712
-615.83984,314.98114,-74.55161
-441.75552,190.55994,-50.665028
-316.09174,141.0529,-2.3882046
-269.81937,163.86972,29.501854
-232.57776,279.38394,56.35919
-114.2554,306.21097,137.71715
-18.521324,421.22302,226.23428
-39.567257,545.1094,305.1035
-83.93777,685.02563,379.9669
-186.06642,926.6484,389.3129
-536.15546,1148.8824,451.1707
-929.6182,917.49945,442.12726
-1178.2817,530.0897,401.1028
-1767.8081,558.32166,316.45236
-2031.3002,742.2471,339.0689
-1709.2693,789.02826,283.23587
-1566.0281,529.983,73.32294
-1362.3682,252.61545,5.8059864
-1307.4037,108.04351,11.420927
-1202.8005,-19.175127,-6.5551662
-968.0347,140.07903,-16.406693
-836.3869,395.79282,-11.89777
-708.3482,528.3817,-10.081295
-568.3121,528.41785,22.019907
-411.9509,459.65268,40.130943
-359.38733,418.88477,123.93364
-329.22464,391.25363,190.10594
-276.1761,433.30505,130.79362
-320.53668,570.1748,194.14589
-316.4193,598.6636,274.3979
-580.3352,677.75476,293.62482
-1091.6039,780.05255,392.25244
-1249.1753,674.97705,450.04272
-1463.2373,612.6476,484.54294
-1694.2358,549.5238,475.96017
-2021.0264,517.57574,446.56525
-1827.7458,428.43845,418.53793
-1553.0686,400.59048,349.51535
-1485.6069,369.89767,232.07365
-1324.8777,307.35104,144.5636
-1085.7688,275.82193,81.749245
-846.07587,246.2349,71.63683
-633.2521,253.37524,49.274582
-472.07608,258.12683,28.96966
-347.4658,248.24417,5.6531305
-299.30438,265.61652,46.547913
-258.02853,270.23837,53.798683
-189.45184,251.80159,61.504906
-142.48674,362.32513,120.08708
-158.97496,514.19855,178.33398
-156.76288,577.34344,255.74138
-348.12405,646.5154,319.58932
-574.5567,538.4948,387.07608
-1112.6963,377.006,376.79553
-1737.1722,385.29483,429.916
-2212.0955,439.19684,501.2056
-2442.3835,739.8973,698.8873
-1740.466,654.03125,630.074
-1209.9316,212.5746,218.44102
-1094.4806,42.92994,211.76549
-1118.0017,84.15323,174.58672
-968.9018,250.1378,114.39266
-723.86304,494.583,34.214336
-533.86847,605.8476,36.584225
-360.66077,511.65793,74.47593
-224.57222,354.8874,66.82826
-261.365,381.63635,178.55557
-332.0028,374.67993,244.10774
-412.26904,405.44232,233.51318
-575.70416,472.5803,284.25323
-781.7444,453.98782,331.37656
-819.56366,411.54745,383.04004
-946.5678,480.7975,418.04398
-1107.778,549.8418,448.9332
-1208.8466,538.59326,421.85004
-1366.7028,614.9274,437.40677
-1503.4025,637.1754,492.8331
-1563.1366,569.56305,431.44485
-1449.4393,562.1136,376.68704
-1314.7688,431.6527,268.8019
-1208.248,356.2221,212.25346
-1155.805,380.13397,176.19205
-1007.5181,292.37564,127.53986
-814.14264,309.44897,84.55432
-696.4876,361.4613,36.247917
-593.68463,351.43607,-0.30736557
-531.28564,352.53937,2.9389613
-484.78003,324.7328,-1.3089615
-443.18265,323.80276,36.159184
-437.98676,351.59387,69.77123
-470.99347,393.18198,78.488754
-516.96155,399.11914,141.0718
-651.34296,461.84415,233.49402
-821.0822,459.22836,375.27374
-1065.3662,419.01276,501.55972
-1374.822,374.07196,607.0296
-1492.4355,343.6175,688.23926
-1334.0752,286.9872,769.3897
-1196.2286,328.7207,709.6635
-1099.8175,351.94458,500.6949
-1079.7523,360.58252,447.48996
-974.39624,353.423,364.72867
-831.0092,431.7825,328.09863
-694.77637,492.2911,281.18213
-604.802,587.51685,214.9491
-606.8887,696.4442,236.93
-564.6037,671.7766,244.71765
-613.6254,595.4138,273.81323
-702.8567,568.7044,305.5379
-732.2084,521.8418,282.48602
-795.9563,491.29803,226.97432
-827.1598,477.71225,188.7544
-979.7825,536.19617,189.36937
-1112.1805,563.7973,149.95857
-1345.3125,639.86127,135.33632
-1566.9662,720.5747,182.68591
-1693.0771,699.71216,180.40662
-1565.508,639.01495,129.23117
-1340.8619,447.77698,49.122456
-1273.104,398.92188,0.10017634
-1174.0515,450.9302,-15.205242
-1003.1735,451.82474,-25.328846
-853.4002,455.6516,-67.85297
-761.0932,470.29013,-112.82988
-670.0895,424.6437,-155.13524
-668.35,442.72537,-160.0642
-714.89294,483.77008,-147.84999
-708.67194,473.90976,-134.74026
-690.59155,458.4094,-103.730064
-683.4256,465.40305,-29.311337
-722.2499,486.34143,75.10142
-862.01526,549.5462,204.4588
-977.05945,641.4256,444.29578
-1047.4258,530.5395,505.39685
-1061.35,393.31668,641.72876
-925.6397,85.23531,788.1157
-843.43665,-58.55975,838.1555
-922.4365,54.633606,874.4588
-940.0654,201.0947,813.0871
-886.53174,386.61023,802.31
-827.55096,455.1985,748.6277
-757.0904,507.37238,622.86316
-745.6435,484.2326,482.32803
-825.5078,524.76575,394.91544
-867.11005,587.54224,350.01462
-834.6844,556.4771,285.20212
-767.1258,511.88226,213.3357
-701.6107,470.21964,179.99081
-719.1927,474.52823,170.97185
-805.29224,522.21423,173.88895
-967.6034,544.34045,163.78394
-1239.9031,562.7321,149.20161
-1739.3586,618.9946,195.00116
-1984.822,558.80493,244.42644
-1535.0009,392.8538,176.54753
-1467.3815,370.87088,88.23221
-1537.6306,343.6693,71.17385
-1302.998,262.36316,56.33776
-1143.804,297.128,48.549007
-1023.8157,323.76978,23.012272
-870.8722,298.8805,-3.5138361
-701.8303,334.7924,-2.265868
-598.00195,336.80905,-16.805138
-511.21994,317.62732,-9.852793
-488.824,353.61017,-0.6492439
-514.7895,385.78268,25.78597
-644.27747,470.1268,112.256004
-789.8499,553.8395,248.42693
-989.6525,553.70667,323.34738
-1162.1045,407.31018,306.82233
-1401.0348,264.00812,437.80652
-1423.2391,173.3136,531.0382
-1361.0433,223.41016,525.5053
-1304.4211,287.60834,525.1972
-1271.3406,338.798,506.36386
-1205.8447,349.1137,485.25266
-1033.0048,336.36115,438.5701
-833.32916,346.73355,305.66132
-703.7905,391.0861,196.75441
-650.4169,517.8402,186.35461
-579.01685,554.89844,197.66422
-541.2848,563.12115,144.23364
-579.7661,651.1391,190.82866
-651.17847,655.92175,263.88055
-777.7142,635.05585,321.4138
-983.89325,706.33075,379.8791
-1344.1578,747.7971,457.0295
-1649.7471,692.8156,452.72177
-1651.7302,560.81836,432.63852
-1524.4767,476.72348,359.96692
-1630.9341,391.20773,276.2013
-1666.8784,239.94804,258.45154
-1347.8423,203.63618,190.2533
-1040.9896,252.13622,147.72867
-814.61395,278.45105,109.30429
-653.33405,311.22278,78.35477
-587.0517,349.38434,29.375029
-528.9931,274.50153,-1.3376663
-483.01254,213.68861,-29.58315
-512.3514,261.34534,-19.84228
-586.0699,382.82367,54.159115
-654.6745,446.48523,135.90683
-793.33405,506.37518,242.72336
-1086.2157,496.93558,285.34067
-1344.9941,340.06107,275.2446
-1543.642,337.51074,361.22083
-1474.1466,294.02884,534.823
-1475.8168,229.54182,456.64792
-1402.742,277.8634,367.2237
-1290.5525,293.7798,397.67752
-1141.5852,310.432,375.684
-953.17474,452.40762,268.13293
-787.0451,523.2071,185.60092
-683.8929,545.4496,110.032845
-581.8983,603.43195,109.98095
-600.84875,639.0654,160.59082
-641.61615,612.8864,178.42332
-723.61096,636.4667,265.6218
-813.255,643.34503,354.47733
-982.8342,678.7016,410.02194
-1183.2992,698.0366,435.49423
-1628.1556,723.5451,459.98508
-1640.0021,541.63983,411.78912
-1381.7668,391.4474,322.12894
-1429.289,370.77832,303.1569
-1548.5272,280.60474,236.20425
-1366.3988,294.16653,185.2221
-1105.3065,304.26932,176.51651
-887.0512,280.0847,128.32866
-719.5849,273.108,89.73427
-601.46826,267.1681,27.35013
-541.46747,270.71317,14.50673
-514.5867,253.9288,-2.4213119
-550.85004,276.7754,23.773571
-671.73004,369.78442,76.73201
-772.56396,411.1442,110.810616
-973.46356,488.3997,176.55862
-1203.3958,479.308,223.2512
-1332.383,389.78552,234.821
-1409.1772,376.5142,342.8329
-1418.6584,354.68732,424.21854
-1416.698,383.99496,384.77237
-1368.6112,352.05923,378.8074
-1273.6182,315.47864,408.84985
-1086.8043,348.3019,406.80408
-910.6031,418.98456,311.3704
-765.6678,480.75705,223.1736
-686.6549,523.2158,167.86072
-616.3518,568.8254,153.58353
-623.48596,636.81323,196.6936
-637.0129,630.3539,217.04477
-665.8051,628.5043,230.74757
-811.7422,689.79596,264.91324
-928.22235,702.04504,314.7885
-1156.2198,712.47797,391.16458
-1491.792,714.6249,484.01205
-1734.3843,678.2342,527.1647
-1783.4031,497.05838,403.8639
-1614.2958,329.29922,249.09114
-1747.4896,325.45438,256.5026
-1709.3302,269.06238,282.94147
-1319.1687,251.70238,212.94678
-1006.57355,254.49501,119.568565
-777.373,251.06783,59.05131
-661.23206,235.7182,17.421936
-549.639,195.45732,-14.579695
-459.94388,168.54396,-10.019672
-404.40274,159.88815,-18.09534
-391.63983,192.06374,-23.248524
-516.3859,352.7587,13.885926
-758.0387,472.75223,100.127235
-972.6292,562.7957,227.93488
-1243.4126,465.92838,306.38855
-1483.3176,375.32693,340.34387
-1653.848,415.53305,463.885
-1796.933,408.68704,596.8628
-1810.1222,383.04034,537.46136
-1514.925,279.00363,461.4546
-1224.8262,227.98186,387.23184
-1069.4689,326.62958,282.3997
-878.58514,465.8752,144.73857
-709.8513,625.3368,46.27097
-562.2579,676.7871,34.10813
-452.6472,654.2167,29.13761
-400.1844,628.78796,88.57138
-437.8514,554.749,128.66148
-608.78674,624.2306,221.7018
-892.74194,755.26013,341.1864
-1074.9447,799.7331,369.9041
-1415.2361,747.4499,426.89606
-1818.5724,653.4477,519.3503
-1704.7755,502.91534,473.83252
-1564.0776,453.93555,349.76465
-1749.4669,357.3162,261.47452
-1633.5199,268.81665,262.90668
-1374.0985,319.6911,232.18596
-1111.4277,306.585,185.78316
-865.8127,257.57126,79.53568
-715.4215,263.0645,14.849077
-645.7802,256.52838,-3.707485
-537.93695,193.5156,-10.3420515
-457.9825,162.63664,-2.7345972
-435.18802,183.79388,-4.46866
-521.3183,324.8974,32.83147
-697.3398,454.46872,102.69131
-907.4655,511.61282,192.90242
-1137.3624,498.65707,233.03038
-1397.5428,377.39517,299.6165
-1684.8331,388.3447,456.5436
-1771.017,351.30258,571.83246
-1775.8226,216.97578,474.44614
-1641.9622,197.33223,396.8005
-1370.9219,259.15497,427.31863
-1109.6318,293.03207,339.12552
-922.956,448.55655,194.50089
-747.46356,594.6099,96.88589
-616.69336,632.08356,73.9885
-475.18417,612.5997,54.61232
-452.4033,616.47345,71.72515
-471.6586,540.30554,95.97445
-579.7877,541.4341,158.21494
-734.2301,608.55396,216.04416
-946.20325,706.21545,290.16586
-1292.5557,803.9412,335.82062
-1690.6971,826.0617,389.63593
-1619.9672,635.71967,335.55463
-1644.1063,549.20526,286.35132
-1747.8967,441.2672,241.09906
-1801.3329,253.29109,251.6979
-1673.0018,240.99315,297.6846
-1310.9897,223.90947,230.65436
-976.5788,208.81996,109.79545
-752.4695,227.16084,48.99619
-632.777,233.58061,8.843169
-510.71622,189.79613,-2.8387356
-434.38083,148.80577,0.6739567
-347.638,161.40196,-1.5287226
-318.12842,181.21454,-8.584358
-408.1047,283.12466,27.032173
-645.68475,479.2939,88.89633
-989.4259,582.6397,196.14801
-1280.15,467.7715,241.5219
-1675.2731,384.54355,283.79297
-2058.005,434.25208,498.65527
-2048.8193,354.4105,578.24536
-1845.1504,195.53554,432.62775
-1518.6055,147.25793,366.3986
-1258.5322,201.5925,350.36755
-1053.696,377.23642,252.20088
-832.3611,535.6045,67.057175
-635.6645,670.9487,-8.034134
-508.61447,686.32776,-17.212652
-390.17807,617.89594,13.6938925
-373.52405,540.74994,73.69228
-369.18106,476.0611,121.92791
-532.7848,546.4235,185.4233
-724.9065,604.2998,271.68103
-1046.6289,775.003,364.88562
-1294.2828,810.7312,391.38965
-1610.5514,735.7135,370.25708
-1792.6105,618.03656,340.12106
-1585.3408,400.4972,248.05338
-1664.4645,379.22406,180.92694
-1856.6246,335.43085,184.61617
-1733.2605,265.18533,202.39859
-1390.7161,229.92778,138.15692
-1066.8936,211.63681,33.697628
-817.92194,239.34578,-24.148834
-681.502,281.61685,-21.941431
-579.77264,247.80464,-44.16797
-486.52026,206.51231,-40.15617
-397.78537,186.85107,-48.05798
-357.6271,205.5305,-23.554365
-326.26556,254.22205,-26.373123
-394.86557,358.43005,11.333677
-562.49506,508.56717,77.27666
-785.2113,526.97406,174.16641
-1108.5515,442.21024,252.84079
-1529.5228,409.39847,342.86313
-2103.9717,500.98523,581.55286
-2281.3884,582.5358,905.4301
-1680.462,345.4944,747.01
-1196.5354,-6.8556113,413.36288
-1121.5677,-55.52826,441.46497
-1066.7892,69.59179,381.93747
-930.6724,305.39685,203.44392
-720.1398,650.84674,138.62437
-537.5751,783.41705,134.7745
-378.29507,683.88043,120.43395
-319.09607,534.22784,184.0121
-280.64127,396.04214,206.07199
-350.47443,335.04776,237.85587
-463.59366,373.95078,278.41806
-601.1387,427.93613,301.94812
-606.56976,389.2122,306.59042
-719.08484,373.93176,341.88052
-843.5849,349.20624,361.04
-1168.3971,344.65555,455.25388
-1239.8536,354.72314,481.2124
-1337.9421,406.32782,485.9386
-1461.1536,442.16028,429.24545
-1609.2896,514.28107,404.09848
-1773.5668,524.71564,317.44562
-1408.247,275.1652,99.36077
-1136.9899,185.23834,-96.5579
-1070.9631,198.77284,-99.30773
-1074.4225,188.62772,-17.50551
-968.97186,256.403,15.159396
-911.47284,404.91647,-48.071465
-791.1997,428.6757,-134.20175
-708.485,383.10257,-186.6268
-648.93475,386.68073,-178.55537
-633.13074,421.306,-130.52454
-595.2726,462.66263,-88.92869
-549.8785,523.1293,-65.811676
-509.3292,566.6898,-58.986885
-548.31744,578.81824,-26.679901
-573.7635,583.4943,13.834472
-584.67426,553.4868,54.467705
-589.3332,562.00977,91.52529
-605.90607,534.1857,155.00177
-711.2822,479.51288,237.94576
-886.17487,409.19836,289.94016
-1044.7057,325.40723,391.60196
-1176.16,262.20328,575.0524
-1249.9313,273.15097,663.2563
-1274.0796,337.65958,716.4031
-1166.4275,354.33618,681.8297
-946.1622,279.23434,572.88367
-809.4246,162.1602,473.67694
-849.03784,142.43304,438.04272
-830.6663,173.02866,369.75162
-843.7287,296.0063,335.378
-830.92755,413.66443,305.5627
-874.13837,491.53796,294.84143
-815.4908,481.33395,240.15631
-809.8945,480.66428,218.99585
-771.976,437.55698,185.51537
-716.46704,414.03308,117.70535
-705.4143,449.8823,85.58201
-734.54803,478.99118,79.26462
-724.7287,441.8414,89.5501
-912.85394,444.17715,94.585686
-861.8427,381.31604,57.926113
-1008.3012,411.80817,93.54666
-1208.6404,497.84274,143.32149
-1570.4613,532.6426,129.31679
-1941.9219,563.15356,190.60579
-1664.9982,532.63525,200.59825
-1430.5664,460.896,64.6968
-1512.3499,435.22345,-27.554426
-1559.4863,454.1637,21.396463
-1366.3337,446.123,45.00379
-1115.155,407.0552,-0.49234802
-901.3065,416.26288,-12.183106
-796.1469,481.5685,16.799868
-720.40466,449.70898,-9.854569
-627.8967,367.13666,-13.678584
-519.2782,276.79623,-32.921295
-411.2043,232.1233,-1.9805135
-366.24692,288.80896,54.337414
-392.71555,375.90683,131.70442
-446.6568,426.69235,221.6083
-600.5072,494.90915,340.7241
-811.4167,503.13156,438.85516
-1051.8116,290.12354,413.4806
-1389.666,148.6055,369.1993
-1794.671,194.76683,486.87125
-1888.1198,323.35297,590.28174
-1750.1409,366.40933,463.29257
-1568.2426,267.54486,257.4767
-1418.2225,222.0504,266.48334
-1311.5679,369.3075,293.23956
-1095.0487,532.0848,151.90154
-822.7063,624.84906,43.054893
-546.7677,668.7919,-4.769897
-385.79742,572.45514,9.601368
-320.32834,460.42923,51.03214
-290.50497,420.74216,64.19991
-269.63104,453.3573,98.14521
-361.73358,509.21533,214.61983
-487.54922,564.85986,360.91602
-672.9498,583.0581,468.8413
-1015.12494,605.9569,657.59894
-1499.6642,523.754,782.82355
-1752.8698,441.52576,792.0276
-1686.262,485.00345,724.5756
-1478.1655,464.2893,611.2006
-1611.7782,581.73535,523.47144
-1744.1036,571.7554,333.35922
-1346.3723,330.51392,123.74529
-1267.2522,343.45453,41.98993
-1337.4258,436.56546,72.61237
-1304.8905,445.35214,115.62611
-1233.2029,544.82025,104.56135
-1128.5234,603.7493,59.77593
-886.4864,430.78735,-32.063576
-624.05585,303.69733,-93.70083
-488.24387,299.35712,-80.46196
-438.7213,351.17532,-48.783085
-420.81018,407.27716,9.243749
-398.8011,441.60428,22.442757
-344.91592,425.9219,46.155224
-317.49078,401.2429,88.62261
-302.37384,344.56677,107.46282
-275.54294,316.37912,116.94193
-260.84097,331.90164,186.54373
-303.85886,468.0442,233.49559
-315.448,472.91467,244.52757
-391.12137,703.5672,247.9884
-711.6373,957.92316,274.75705
-1155.9679,954.54877,410.02274
-1864.7963,723.9752,515.2607
-2654.1892,824.1129,661.3037
-2802.6912,1100.3461,774.5243
-1996.0596,832.1817,520.6413
-978.1718,282.59482,75.53831
-885.9388,-32.16511,60.54003
-926.3215,-313.72116,-174.56175
-780.23004,-221.02188,-314.56476
-790.3036,179.03087,-318.0486
-693.12,452.17664,-298.7733
-587.85046,558.55023,-147.90504
-620.88165,436.36734,20.556707
-634.57104,365.40778,187.65215
-559.74713,250.27223,279.3761
-516.8963,206.61372,309.1039
-445.08737,272.14175,281.25522
-376.04697,313.62524,257.71106
-357.03546,282.45346,201.59085
-421.181,241.68999,222.32422
-479.88278,169.95804,284.2927
-634.0051,119.51864,344.34
-744.45514,99.63216,411.9822
-1059.5393,156.24614,491.84406
-1460.394,221.12367,534.4536
-1631.5555,243.8026,599.3613
-1901.9102,259.13773,647.1319
-1812.3857,355.78497,569.73615
-1522.8755,471.575,466.3022
-1273.3583,433.66623,370.51038
-910.7163,303.57452,197.35193
-785.8587,264.24854,57.75638
-758.2917,274.89026,-83.672
-1009.99945,538.5532,-66.33181
-1195.7739,762.6775,43.89704
-1136.6788,603.7135,11.019502
-1069.7627,464.04718,-135.4715
-963.65063,455.59988,-176.80875
-930.3663,455.87552,-186.57709
-916.2045,447.81454,-145.93134
-809.7359,413.42365,-94.8776
-706.608,358.68872,-56.83038
-636.64154,295.3977,-34.266163
-530.579,278.8224,2.6734796
-453.0894,284.89972,93.70297
-380.99457,247.00037,157.7924
-330.52164,230.6215,191.99686
-318.78397,340.2117,239.08855
-295.5498,464.54617,309.1486
-243.85805,597.5066,382.1731
-298.59805,889.99725,444.73196
-419.93887,985.4987,373.1877
-672.62213,1125.6085,314.1236
-1032.2079,984.6743,306.0313
-1266.8927,775.46204,315.11148
-1478.9612,809.75104,372.1109
-1696.5686,890.29956,387.38016
-1441.979,886.8507,410.105
-1024.0792,714.83057,257.28726
-906.4597,498.38382,134.92162
-961.52155,269.30914,38.114613
-937.34314,121.50892,0.7191191
-901.3295,189.67693,23.698385
-848.89777,293.7424,-5.346103
-798.1682,454.7456,18.679525
-758.25946,577.4797,36.312847
-734.52997,543.6668,38.0598
-746.1935,494.99362,39.868618
-771.70624,438.56754,37.65108
-846.54376,400.01157,45.480446
-852.55347,358.19308,30.963963
-874.9447,341.41507,38.62172
-842.18304,286.13947,90.92862
-837.5798,261.36328,72.50771
-831.7473,305.86902,108.51158
-857.01117,357.93567,213.65741
-803.04034,370.17847,240.44702
-724.50165,378.82516,209.45987
-713.8831,408.44894,235.9409
-720.3595,417.45844,277.07843
-749.4596,438.94223,299.2996
-764.00555,499.70407,276.92056
-879.6978,617.58167,243.55565
-1141.3663,712.18945,231.62987
-1337.0353,735.397,260.3917
-1246.6522,695.55597,217.45493
-1073.6083,543.7891,51.690117
-1040.855,449.3913,-27.09655
-1148.9054,496.5517,-69.05401
-1178.4955,474.38922,-56.536625
-1068.6466,426.88943,-28.45171
-1044.9069,461.96402,-77.72959
-945.73114,465.71194,-48.44295
-993.6558,492.45844,-112.60216
-981.10614,533.81915,-139.23682
-851.7508,530.68207,-82.70642
-802.0971,525.0281,-50.514355
-733.5857,528.3955,-37.999474
-681.0234,527.0303,8.330954
-620.83765,522.3926,74.91881
-564.3563,495.76147,113.914635
-542.4444,515.18866,179.28404
-597.02014,547.3098,276.7172
-674.7412,528.43427,377.07318
-877.9745,506.82654,399.83337
-1171.808,475.1071,489.83026
-1527.429,347.82892,594.17535
-1585.0599,317.71902,638.6651
-1488.6543,369.32443,627.03326
-1313.4062,163.86383,445.4678
-1262.2593,-8.247977,250.40315
-1134.5614,-36.155903,126.19506
-1110.0269,119.744484,127.25035
-950.71857,467.61993,115.44721
-790.18427,593.76965,190.76674
-617.7354,621.3453,193.29695
-474.3005,579.74524,160.4381
-423.84955,506.58224,132.16727
-399.71628,428.60272,121.77693
-463.49545,411.86783,154.35687
-547.6807,449.88882,200.83215
-591.2915,489.66986,216.88132
-692.10205,506.93002,241.85606
-843.6256,478.50583,223.03203
-1177.1941,536.165,305.76907
-1593.5791,493.13992,362.30603
-1805.1274,437.3874,397.95645
-1874.0009,541.9347,410.18594
-1516.0244,372.69376,281.27557
-1413.6327,327.27722,173.91682
-1348.3108,286.89923,134.89967
-1120.2773,258.65387,118.35372
-933.5674,303.1317,106.84106
-828.17816,366.3682,77.020454
-730.0144,394.609,64.25139
-602.4378,355.7233,38.924538
-485.27997,294.75327,14.466818
-404.59528,264.38638,10.397578
-346.41425,260.4557,26.559479
-330.72168,296.29456,37.6803
-362.91898,335.45578,77.961914
-552.11945,425.08707,146.14348
-762.7066,489.63586,258.0311
-1103.1793,416.24655,315.4524
-1433.416,326.579,296.7238
-1711.6776,268.66006,323.89194
-1994.6951,312.9957,458.77264
-1949.9056,450.17307,573.8181
-1451.4468,356.2201,443.22147
-1227.5784,155.90121,291.30743
-1151.9982,171.71985,257.09543
-1033.4363,338.6861,201.0237
-863.9709,477.38498,87.33854
-665.0054,589.35284,22.385828
-465.92535,621.2389,8.781778
-339.58774,576.6165,37.944103
-319.24197,505.0267,130.17278
-342.3383,469.9966,179.46228
-429.01517,519.75507,187.11903
-618.11755,641.4868,273.78085
-910.3981,691.1534,378.12787
-1193.1484,690.7567,467.2025
-1618.399,671.76746,549.2893
-1844.8223,509.56378,491.1061
-1563.1246,299.0902,349.0977
-1447.7494,313.42908,317.44095
-1332.8484,239.81767,271.4655
-1390.3102,269.87335,261.72034
-1325.3035,296.66785,208.76476
-1019.7187,249.6949,134.82843
-781.2754,231.69806,64.6929
-570.2519,245.61699,36.552185
-478.77463,291.0927,28.180658
-405.42126,295.5821,34.11529
-362.01462,234.66571,23.308176
-342.1861,247.63406,8.071883
-435.0688,345.35907,48.021458
-575.9526,434.81714,112.9826
-901.87585,531.0552,237.29257
-1173.3788,452.81796,305.3347
-1423.1646,340.19275,269.75436
-1639.8689,313.12537,324.76117
-1769.8962,386.9819,538.18256
-1713.2694,482.8453,634.2744
-1408.4442,291.95288,426.54315
-1217.9907,111.65519,315.28305
-1101.7367,189.33109,315.6111
-930.6429,376.03354,230.18211
-776.99896,517.4232,120.44795
-590.6326,671.79675,89.11914
-431.80667,640.79,86.92261
-346.46054,639.2435,149.22179
-362.87598,561.44745,264.88757
-450.94742,477.87735,286.5931
-672.9388,497.98706,345.8267
-894.65857,518.5095,399.47208
-1293.8179,507.52457,485.54248
-1718.3779,567.90393,558.0371
-1724.9878,462.7949,443.09958
-1468.3113,332.72055,346.655
-1416.7451,331.1505,286.5455
-1406.1371,219.62021,220.2131
-1332.8463,217.24706,205.37909
-1140.1237,267.41122,170.6665
-909.7748,277.37872,123.32659
-703.3767,287.69077,84.59241
-587.7487,314.4517,49.0626
-489.59482,262.2036,7.487788
-438.2577,202.68459,4.9008975
-413.3566,208.29852,16.409454
-464.86713,247.77368,49.050667
-631.647,360.79706,87.95835
-933.79553,466.3401,148.68332
-1162.1249,482.39386,217.06523
-1329.6711,426.4932,262.43225
-1598.0416,387.101,315.79495
-1724.6686,415.28217,486.58975
-1613.7892,370.57184,551.2258
-1410.626,179.25758,363.35333
-1253.8254,79.102135,277.19977
-1153.3416,188.49852,313.48016
-958.629,371.3486,250.47096
-768.42535,523.4948,127.716545
-601.7785,613.28357,87.51045
-516.4805,637.71625,59.003338
-499.815,632.08826,130.94989
-539.98737,535.1674,198.36618
-589.96954,485.71576,236.94366
-717.6363,491.5101,274.13104
-860.9902,530.0623,338.94952
-1075.4556,587.93207,378.39484
-1305.3658,605.46765,414.36905
-1547.9117,566.8948,408.57233
-1408.63,421.62274,369.778
-1290.6232,433.13797,257.57376
-1314.0283,428.14386,122.25726
-1389.216,400.72128,51.69157
-1402.2327,331.0157,49.425747
-1197.3584,247.07573,53.13641
-954.5163,267.5613,-3.2787747
-746.9828,286.15704,-75.10685
-686.72144,319.21558,-126.992805
-580.2506,310.57648,-131.64116
-430.8681,288.90198,-90.68598
-397.94968,325.31442,-94.36708
-347.50006,309.6428,-57.66286
-302.81622,367.2498,-52.642853
-313.82025,578.2173,-11.234636
-326.69232,781.208,67.353035
-392.13785,965.2693,92.79857
-467.7317,993.2808,144.94391
-644.2644,1091.1257,260.20938
-964.134,937.00696,356.31418
-1151.6807,751.4762,565.66626
-1333.34,653.70056,617.41614
-1432.6821,517.2599,571.14655
-1403.9696,445.97562,456.60565
-1383.086,387.06436,312.373
-1169.7806,285.52438,162.22813
-1024.8743,210.8596,97.39283
-919.9217,230.54138,113.016335
-800.6161,320.87912,92.06812
-726.1896,513.3914,64.1623
-699.2356,570.925,61.60035
-657.82776,523.2784,58.40407
-606.26697,421.29443,62.1338
-637.7908,340.6848,82.00712
-661.8446,325.00186,102.923294
-758.11584,365.93198,168.70428
-806.05597,337.22736,256.61288
-787.36646,278.11603,208.4706
-818.9442,315.25726,277.02603
-904.95917,319.35196,414.40976
-889.1504,300.44943,503.3765
-788.97626,247.71457,483.57822
-748.7662,252.2963,455.68436
-749.34314,264.6469,441.15475
-784.9285,333.12195,392.62515
-809.57837,373.58548,276.70145
-981.7512,435.68002,89.208466
-1265.5912,627.3433,43.64543
-1349.6655,878.7756,178.44016
-1021.3852,791.4609,118.790855
-929.6006,511.83554,-147.12837
-1031.2286,508.47842,-226.80833
-1139.8596,394.66162,-227.17404
-1149.4316,267.73547,-142.78983
-1165.1285,361.61694,-145.17128
-1178.5361,396.02682,-171.17107
-1105.1686,365.46585,-178.36458
-1056.7568,420.44016,-134.37112
-1034.062,447.09665,-89.99121
-967.611,450.70544,-26.606546
-894.3752,446.7144,46.264824
-835.44696,422.14386,94.48612
-769.898,378.12503,106.00647
-838.44006,427.35428,129.31618
-968.36237,457.3164,211.39275
-1100.6001,424.26038,347.26758
-1211.8992,375.99695,398.1929
-1187.6411,364.78812,422.63785
-1263.4895,371.17004,457.26602
-1185.3652,289.77274,416.9551
-1101.5625,231.97026,367.59766
-1184.8143,155.14558,308.28754
-1153.8494,132.34154,266.1173
-1112.7908,180.20607,292.06235
-1024.8748,228.44461,306.6701
-792.4991,320.49225,274.3841
-628.29626,419.70956,255.81503
-545.36743,469.1633,288.73438
-494.29388,463.00876,283.5276
-502.41446,436.52954,281.02725
-485.50485,411.51328,265.99225
-568.1196,424.8531,296.12665
-665.8494,462.15005,318.42215
-826.26447,497.4902,308.00378
-984.55597,574.6445,283.94464
-1227.3077,573.3708,258.2685
-1663.7844,771.8601,305.46136
-1720.5631,806.89984,305.87775
-1417.5269,548.6208,195.37651
-1410.2996,458.3825,148.27028
-1432.9292,332.16995,126.42381
-1274.9761,335.41193,94.761765
-1095.2445,398.4132,15.979344
-965.2499,394.6753,4.4337516
-805.643,362.62552,-23.25927
-644.5834,345.4073,-23.286022
-523.67816,328.11728,-23.113865
-451.98932,271.82483,-26.764925
-429.22308,294.32867,-30.164915
-444.0087,305.26096,-10.494767
-544.08026,369.627,24.7131
-702.4178,420.88904,133.73206
-983.46967,531.6857,266.82614
-1275.5858,535.6311,304.1185
-1370.0372,391.55298,263.49023
-1509.9207,280.8272,343.66092
-1538.2252,283.39243,480.78027
-1535.5426,301.60654,495.32416
-1456.9971,305.37387,364.43396
-1265.4242,187.25775,334.91434
-1114.0195,351.34802,321.81873
-921.4001,577.07916,246.42986
-738.89166,511.1796,183.0513
-605.9582,628.9037,136.8272
-504.99118,618.0771,152.59978
-443.84167,591.6489,170.07948
-477.2822,522.85693,209.84644
-587.1007,514.9184,274.4594
-715.8788,512.7847,311.85202
-922.85126,531.46173,376.30692
-1179.1816,569.12366,462.8532
-1517.2408,598.4285,515.90094
-1642.2728,519.03436,447.6834
-1550.5468,437.7986,359.89175
-1534.166,403.78183,285.97028
-1568.5026,304.69696,225.42007
-1379.0823,207.54588,151.15991
-1284.7253,256.93448,157.80933
-1101.0016,246.43912,138.3195
-810.8787,253.89536,67.68564
-594.40027,260.21924,43.753117
-513.28156,296.2935,13.4816675
-441.40143,238.87752,1.0638428
-390.97885,196.72766,10.397285
-370.16553,193.4912,13.545581
-439.2384,271.13416,64.91601
-613.3963,424.27603,126.26168
-910.78064,550.04297,227.47717
-1203.0991,452.57724,226.78596
-1511.3938,364.85806,242.35916
-1759.1603,359.91714,326.23416
-1834.1976,397.9559,526.1808
-1750.0806,380.34784,486.43283
-1508.6578,217.18108,270.81512
-1248.9315,183.14517,268.96945
-1107.5706,379.04706,310.89575
-880.47046,514.5107,171.00491
-707.2158,647.8813,83.23809
-555.7822,678.9367,98.2106
-453.2744,575.5403,96.52537
-371.84653,504.54385,170.56776
-439.197,440.10083,227.33052
-529.9923,439.6122,238.73764
-739.5361,547.5354,337.81174
-878.4579,567.1172,424.85126
-1255.8527,628.97345,536.93256
-1572.6477,634.15826,618.29034
-1712.0613,519.05945,457.45395
-1688.0443,387.759,336.0999
-1447.7863,393.4549,299.8881
-1501.8157,333.23474,234.60936
-1432.4117,255.68123,174.24664
-1274.3213,266.99295,98.60121
-1070.223,252.42697,49.306652
-821.366,274.06543,23.711754
-639.7439,297.66537,-3.26724
-529.1504,290.527,0.65633637
-414.97958,223.15959,-10.796464
-367.74573,171.87675,-9.806286
-416.20282,173.83882,-6.336989
-476.60565,228.17458,31.093359
-692.5977,392.86856,117.951164
-936.28326,554.9188,211.97636
-1186.2417,549.86755,269.90872
-1449.5457,378.35767,213.3944
-1689.4486,329.79483,252.54362
-1832.7352,391.47794,434.14474
-1735.8016,416.4797,495.13153
-1391.0386,307.76138,373.89578
-1187.9388,191.6128,331.80002
-1074.3164,161.38248,332.6219
-884.67413,285.2662,267.06918
-790.56635,373.9422,211.93256
-623.1452,432.49197,105.09886
-463.84784,530.38666,54.625183
-420.74722,597.93414,113.088936
-448.42206,558.9252,202.80977
-516.3825,504.2319,278.55807
-615.78766,498.4827,337.63507
-674.8367,476.16013,330.4625
-787.69385,565.2619,353.02264
-992.60474,671.7992,375.13757
-1362.0402,785.7368,428.35974
-1609.4464,765.03314,389.42126
-1472.9545,467.4595,188.28404
-1463.5359,262.7362,80.72651
-1549.9141,229.07304,74.61277
-1535.2089,162.80635,38.64774
-1400.8606,279.84244,59.968113
-1284.5608,371.37772,35.959
-1042.7888,311.02066,-28.301517
-821.0063,315.7739,-84.74301
-744.73883,353.1756,-99.62878
-628.5002,298.10733,-81.012054
-480.4236,197.87772,-64.9101
-393.45987,225.96439,-34.14354
-315.14905,279.65002,5.2812896
-263.08725,354.87448,62.713104
-172.04965,415.1375,94.69567
-236.3473,618.5093,153.56253
-380.21393,889.91724,220.77515
-433.8881,897.9766,272.20712
-724.0458,1039.5662,380.46286
-1173.0292,1019.79596,480.1164
-1233.2545,574.48627,528.23474
-1568.8743,468.96262,652.416
-1813.3419,430.97824,970.6176
-1630.7997,298.1399,546.1248
-1460.2023,478.516,245.84833
-1136.8022,381.07672,240.11826
-961.7892,190.21588,199.23366
-904.2373,318.94153,248.74791
-859.4577,439.2115,146.85611
-765.59485,495.56912,49.352722
-722.4962,508.85895,48.842434
-711.65765,453.74203,36.639404
-687.464,367.79037,49.39365
-673.6643,266.4054,141.86122
-643.1848,232.92062,151.39308
-632.94727,326.62134,217.90086
-728.64014,337.75995,352.64746
-742.8568,240.6604,305.20377
-836.4977,299.26428,289.63922
-872.5193,302.36212,311.25693
-889.7088,295.7845,273.34076
-827.3021,317.8172,254.68106
-705.30554,317.29572,163.51253
-783.8371,369.73843,154.31555
-845.2265,347.3911,151.29715
-845.5324,363.77957,78.80063
-1174.1636,469.93805,20.41116
-1508.7505,627.51306,11.536886
-1553.4453,681.4759,94.51849
-1280.8525,407.98898,1.6111215
-1354.7717,421.15665,-53.01497
-1478.517,450.1583,-37.777493
-1417.5703,312.7485,-114.03421
-1225.5717,352.69574,-100.851776
-1183.4906,358.6461,-133.22275
-1115.7208,351.84442,-86.25817
-1031.1781,353.5387,-130.2369
-997.6488,408.90625,-179.48401
-899.55334,446.50787,-160.65407
-792.1444,477.4344,-91.86929
-691.41797,461.5809,-75.732285
-633.4551,492.98972,-38.963875
-628.1032,524.097,50.555492
-601.31525,503.1119,99.19926
-632.8907,494.27716,115.34959
-733.44867,503.56818,222.15428
-972.08215,458.7957,365.53647
-1117.2073,383.27664,474.94653
-1255.7717,336.20944,487.90488
-1492.3234,379.948,538.2359
-1511.9644,373.9189,623.7412
-1377.5449,277.13535,637.2335
-1310.905,148.87354,514.4112
-1238.4923,37.052032,401.96555
-1082.0801,72.89295,406.91425
-961.694,226.6556,395.25684
-776.86096,398.7335,306.72113
-594.48065,551.82416,219.03413
-507.9733,607.4385,186.254
-457.0402,559.8588,150.96092
-489.42126,487.40512,212.90984
-507.6359,394.29898,226.42201
-582.6584,407.93127,213.0866
-698.46423,455.98904,223.08217
-777.0413,460.04916,220.597
-952.8344,471.16782,271.47296
-1103.3076,493.2904,296.43155
-1608.1354,626.1914,369.88678
-1793.8823,615.9468,385.06107
-1582.1691,539.1235,358.22253
-1433.3187,482.07858,292.44916
-1383.7902,439.7848,207.21838
-1268.1195,375.61972,144.4405
-1166.032,339.9792,116.113785
-971.9311,303.16998,108.12642
-765.75085,295.08105,81.951904
-573.2232,299.8221,51.992718
-427.22903,318.5452,34.468124
-346.81622,290.48206,26.308771
-319.58435,283.79956,20.397255
-334.01428,304.84952,54.680347
-451.7734,392.6744,84.12114
-647.81635,439.17532,186.39444
-920.88666,464.37903,280.68475
-1153.7985,403.43167,310.1478
-1423.9662,329.43695,308.31195
-1697.4681,357.38373,360.0418
-1748.7833,448.00327,517.71204
-1605.7799,413.96606,536.53973
-1477.2806,249.33286,378.8949
-1231.554,148.66043,311.90475
-1027.4506,235.40454,271.1488
-887.60846,440.397,151.99863
-729.70984,607.7654,81.93118
-583.0481,673.8448,69.99374
-460.49258,647.4512,56.110516
-420.01834,610.48737,137.91887
-402.57413,463.42078,204.84497
-427.34607,414.25446,217.70807
-578.80695,493.6588,281.75995
-878.2165,708.0115,388.64783
-1140.3109,766.24725,417.10416
-1614.499,816.0993,504.3744
-1928.5757,746.80786,518.0233
-1670.9138,345.91968,369.1528
-1436.5598,237.44215,319.24802
-1451.0625,200.89418,300.0989
-1299.9198,222.06136,298.74423
-1026.2438,337.2707,185.65562
-813.6671,395.0219,120.615
-637.5431,325.66052,67.74227
-523.42267,315.3063,44.94194
-454.35257,256.35992,11.601908
-380.15106,206.26257,11.443775
-379.95465,216.01505,35.47099
-421.9998,295.47424,47.5349
-496.352,341.72754,70.39147
-792.10175,484.1168,136.63664
-1063.1088,514.54236,219.27446
-1364.4554,397.20526,246.25262
-1703.2369,350.95648,287.26837
-1846.8506,347.23315,428.31122
-1779.9769,343.20218,578.4811
-1558.8192,307.39136,507.10284
-1233.7759,190.8071,412.005
-1085.449,141.23373,352.19458
-904.0534,291.2445,266.64578
-756.94257,432.14258,191.95976
-601.96564,523.3842,125.32398
-470.04956,580.9459,84.64462
-413.76614,586.8777,114.833755
-426.48657,523.42737,162.62125
-496.59793,495.06146,179.81487
-656.0854,540.4814,259.1507
-801.36865,561.5343,302.093
-1026.4941,630.08386,378.95444
-1333.244,647.8141,420.66928
-1591.8154,619.5054,412.6784
-1662.7382,573.16693,361.38004
-1488.7434,406.7946,288.45123
-1502.9387,395.25378,257.08936
-1504.6223,274.63385,218.10849
-1443.3909,272.5237,254.47537
-1143.4221,243.92297,220.27502
-887.93274,244.9951,143.3887
-684.9627,261.1755,78.35699
-587.6724,262.0306,27.16306
-466.30505,220.86198,18.883038
-437.1571,222.09079,13.714591
-398.7108,204.50172,9.634296
-437.46365,252.26016,28.505583
-614.0649,380.3878,74.50813
-853.2753,514.63245,183.92229
-1077.2734,551.46124,260.93585
-1332.691,424.76562,273.86682
-1591.503,363.03033,300.99228
-1794.815,413.41885,472.28098
-1776.4535,445.80646,571.33887
-1547.8657,298.28867,382.15765
-1231.5913,132.69882,272.643
-1081.7574,144.78749,249.14058
-999.17474,322.33844,220.57465
-835.5233,498.27402,144.00603
-675.596,607.0595,77.53656
-522.4006,644.4886,63.923477
-448.674,628.71594,156.94525
-434.94043,478.52426,190.90327
-465.56805,469.65298,216.42906
-565.1968,562.6064,304.53763
-671.8764,622.11786,378.35437
-796.4409,620.13116,365.09467
-990.7088,627.9883,368.86102
-1343.8453,614.7771,363.51898
-1691.0111,606.9874,387.3912
-1469.4122,468.52628,312.1911
-1293.5603,410.01807,171.36516
-1448.8901,426.09268,135.05638
-1508.6284,355.71796,141.12756
-1487.0309,266.21585,85.38937
-1333.5966,237.96211,14.709987
-1087.05,225.9958,-35.21375
-896.5368,268.74347,-56.58299
-754.26514,321.7473,-71.33389
-612.0643,289.65253,-63.47641
-490.91608,247.93498,-31.040434
-394.92984,235.6228,-30.213337
-354.10333,261.66757,-1.8008125
-309.99976,341.78976,23.72251
-319.27835,464.8803,64.546814
-332.57626,575.8674,140.22119
-391.50662,702.5258,176.7604
-438.42947,766.9691,188.23135
-677.92957,954.0407,276.38953
-1026.6812,1070.4758,427.45636
-1301.5906,745.2769,556.2222
-1612.9003,608.38226,615.59485
-1701.173,660.6426,655.95685
-1544.1594,622.59106,620.4846
-1313.4417,455.86182,549.4691
-1066.5535,270.60785,398.3411
-935.93616,182.71562,249.40974
-934.4804,197.82364,205.3921
-856.96454,223.23022,145.89876
-775.8731,293.84723,72.542496
-741.30023,399.6793,96.58792
-753.3488,397.1724,159.31691
-678.7573,350.06094,166.50548
-729.2212,351.33554,214.23018
-758.9657,308.33484,308.4806
-709.97266,287.36566,314.63025
-737.48047,328.42798,334.10645
-761.78125,312.433,328.91162
-729.1181,284.02798,305.6622
-762.2412,325.17334,321.95154
-739.1431,317.19647,329.33777
-752.95654,339.77765,341.4698
-687.0917,381.4889,318.0131
-657.4334,414.02884,269.993
-716.5681,453.71585,247.84128
-782.9248,448.51126,151.92383
-1170.7369,467.11526,33.739544
-1345.1505,491.09186,3.116157
-1275.5652,557.6263,20.885395
-1141.9667,632.6099,43.59795
-1137.3097,541.7588,-127.817406
-1349.9438,506.94315,-242.21767
-1557.8574,473.53333,-243.66986
-1474.7339,381.20212,-213.97646
-1315.7225,343.08496,-202.63072
-1271.6305,450.08817,-144.89885
-1163.3784,478.1018,-111.46427
-999.4452,471.3325,-70.848076
-960.7343,470.90286,-98.18874
-925.5668,455.69974,-14.130267
-829.9547,417.89948,59.597206
-739.82385,410.38858,83.05855
-655.50494,416.50858,134.57799
-614.5816,416.46945,188.50629
-602.0253,447.00647,286.57233
-696.70734,521.1824,334.70688
-799.30786,542.10297,387.28754
-937.73425,510.07144,438.12357
-1248.3646,505.7099,415.9916
-1417.1027,508.47888,568.959
-1407.1185,413.03253,574.26935
-1406.812,272.5752,356.2422
-1406.3041,192.09006,282.46323
-1370.0521,156.03217,334.70483
-1225.6691,144.7906,329.44095
-1032.0557,305.7549,321.63736
-820.903,490.0179,320.68634
-618.3458,545.4287,237.2661
-454.16245,552.9402,176.0452
-385.2529,495.14682,169.05568
-434.27576,483.41644,204.43013
-458.47894,477.00534,202.07947
-523.914,485.5997,200.02637
-642.2329,553.4081,207.27344
-811.06775,578.84863,247.88486
-1026.4832,597.3149,261.77335
-1500.4963,635.33344,265.8152
-1727.5577,606.16046,231.78632
-1457.4957,549.2105,201.1838
-1451.339,480.8887,118.92113
-1574.0469,377.1502,53.277416
-1483.2128,308.93097,24.83276
-1328.4119,285.46414,57.914944
-1089.416,259.3394,73.27337
-877.19147,279.35104,40.36596
-741.27826,336.16907,19.599201
-633.10046,327.27612,2.800691
-580.22327,253.88472,-2.481063
-532.0184,225.61137,-4.9030404
-574.0152,295.8103,55.063564
-732.674,412.7474,94.73894
-858.68494,404.36066,122.20211
-1043.1206,444.352,215.23074
-1278.4075,447.96127,320.44635
-1436.0284,353.77762,319.45905
-1499.5977,330.33545,390.8056
-1525.0917,269.45554,455.67392
-1436.7118,226.01222,382.3461
-1273.8386,250.10345,357.16544
-1117.1364,267.85303,347.61823
-920.51636,338.6553,283.65442
-795.0881,474.3355,197.47224
-700.557,556.75006,169.83731
-602.4985,573.4432,144.3234
-556.44556,548.09784,173.00627
-587.9818,531.92633,196.32576
-659.53485,573.8226,240.87407
-786.59,622.49036,317.43518
-912.61505,638.9813,374.98065
-1109.5723,620.6975,423.8149
-1274.232,546.40283,437.0659
-1599.1877,546.4189,396.8261
-1699.047,453.66153,379.2539
-1596.6771,307.84576,247.20692
-1674.4199,198.62807,178.1936
-1487.5469,181.25125,157.23898
-1224.4993,261.99475,154.23117
-1055.4841,312.16187,106.148926
-864.87274,302.29404,81.16626
-663.98083,287.78235,39.13958
-599.17346,264.27573,-11.836661
-543.192,210.39896,-18.196184
-506.83453,201.79611,-8.149403
-512.603,229.5698,9.362986
-603.274,314.27002,37.3022
-766.70276,407.4481,100.50243
-1067.5128,493.52863,196.79056
-1259.1107,470.27505,203.011
-1481.7755,377.39636,231.42055
-1603.0192,357.58368,367.58218
-1581.4205,308.10803,447.18576
-1529.1143,288.3444,368.771
-1423.2063,279.87396,322.0546
-1238.6323,275.2763,323.26996
-1059.8782,342.5412,272.25253
-882.65784,471.3582,147.18854
-730.07135,570.1338,74.37458
-607.3932,589.39886,61.5923
-572.74866,599.42065,131.96925
-549.862,552.0183,124.80616
-573.8267,546.1882,140.87978
-709.58887,603.50073,230.52197
-886.47046,636.43976,315.283
-1071.4178,712.8946,401.24826
-1372.5028,772.1062,506.51584
-1686.5873,705.0274,485.18524
-1644.4246,473.3307,384.5954
-1539.8676,367.48325,347.8822
-1665.202,223.47879,287.506
-1581.6439,132.18593,223.9835
-1313.936,238.99075,127.461555
-1036.2645,317.9162,104.798706
-807.35254,334.58856,85.11897
-656.93115,314.38654,25.703255
-580.6823,288.92706,-15.60853
-536.02936,205.1717,-28.92645
-445.6552,161.68532,-40.970867
-436.9721,210.19435,-50.628597
-538.0543,325.76178,-8.0990505
-736.419,447.12668,64.70405
-907.51746,528.2516,145.47641
-1207.9642,455.53247,214.7174
-1421.7155,359.22482,215.95169
-1610.8917,370.6882,312.37106
-1756.8053,389.47568,523.9583
-1721.2968,382.19025,538.4491
-1395.9312,250.44646,409.34918
-1200.7162,155.18587,406.84848
-1065.049,157.34123,398.28122
-882.842,264.3128,274.73798
-742.485,435.7979,160.48929
-569.64325,589.4362,98.81634
-511.50763,632.69775,116.3128
-473.65735,576.8079,149.9456
-499.761,493.93484,181.64171
-562.0709,489.81705,212.56306
-692.55927,544.3559,310.43103
-814.04285,603.39124,380.53793
-913.86884,648.75714,379.1453
-1274.441,698.1238,430.8696
-1736.5057,611.26843,419.47568
-1507.5769,402.95056,307.0497
-1382.301,375.54578,218.1609
-1459.5381,353.38504,149.85094
-1634.9696,297.33224,104.44276
-1634.0887,285.50766,113.55243
-1300.1312,218.94609,58.453865
-1057.622,199.57173,-40.38389
-845.3428,235.08055,-93.147934
-710.52905,266.368,-106.80166
-596.054,243.40674,-95.709435
-520.66693,195.39815,-86.30341
-418.8839,171.62265,-44.200962
-330.57812,186.47559,-38.032272
-272.54886,307.23334,10.096456
-256.4332,485.85703,85.379906
-199.13145,589.6307,140.5376
-288.76874,793.39154,180.94937
-430.52695,995.52325,256.74982
-618.37915,1163.7018,331.3395
-878.1414,1057.8679,404.93286
-1058.6334,799.0491,465.25238
-1238.5487,732.1029,518.7129
-1343.2233,706.94476,476.94754
-1353.5034,745.1462,502.90378
-1244.6125,694.92865,404.4564
-1164.2169,522.3838,161.00128
-1101.4203,258.12814,-22.432089
-1072.8948,143.67447,-19.810822
-1035.071,142.3773,63.564667
-942.65247,231.9197,94.78683
-842.6823,414.30765,77.48618
-786.7701,563.3287,75.73268
-763.57837,532.912,73.53583
-692.7616,429.77646,61.612568
-689.87103,326.00665,69.64856
-700.56586,248.97066,104.02005
-718.04614,215.40283,107.797
-753.63025,258.04218,125.88886
-795.2752,266.5589,208.67078
-817.88025,248.12088,280.6849
-792.0925,261.03134,385.10605
-762.2168,269.0832,459.96088
-721.8154,249.90062,465.29816
-732.94714,329.71594,496.30896
-768.25323,358.0206,489.4
-808.2979,376.6615,464.36386
-799.227,394.10403,472.66895
-804.83795,408.67612,415.64127
-794.5238,447.71463,370.0246
-899.85803,538.944,334.21716
-1127.793,791.4312,246.7447
-1170.3608,855.5737,148.23187
-977.58795,840.821,90.66296
-866.6808,728.0053,-42.441193
-1021.2214,576.8596,-154.3621
-1196.1975,421.61502,-234.44658
-1271.383,349.51312,-284.81516
-1206.2598,364.11243,-180.9737
-1299.2094,359.05325,-239.79735
-1450.1085,416.41217,-204.56157
-1273.4946,373.2077,-194.15996
-1287.8359,344.59604,-308.33414
-1271.5305,377.29944,-206.16354
-1071.4526,339.41336,-71.36759
-981.7374,365.24615,-41.276287
-923.3091,437.07098,-5.1897984
-848.81116,419.50464,67.93666
-713.4469,390.4504,167.36081
-599.3377,343.60944,171.43436
-590.7967,359.9336,192.01843
-742.07794,466.11334,313.95575
-914.96313,526.30945,462.42575
-1079.0299,461.01862,495.7885
-1285.614,521.9897,626.61536
-1431.4891,435.40784,656.39233
-1398.6046,263.58383,545.54095
-1372.3643,110.55666,463.2024
-1311.3167,27.567757,352.1125
-1248.0691,76.61254,297.38058
-1096.3748,81.43388,271.34958
-957.35846,270.0931,254.19016
-804.27875,492.68835,244.40573
-612.5959,606.58124,215.08748
-501.3877,557.09143,190.8473
-498.3428,463.88,176.64731
-431.442,402.43207,175.59517
-498.40955,408.7931,252.44463
-553.53284,401.15085,268.86255
-593.7844,428.8289,252.7501
-670.8635,437.3536,246.25632
-800.4509,438.10788,263.05386
-987.528,467.0212,324.48996
-1147.7377,465.37766,367.4024
-1459.4325,515.2743,424.5491
-1708.5942,612.48395,483.45312
-1709.8479,551.5674,423.06854
-1436.1567,359.7801,302.17346
-1237.5607,318.7673,227.91832
-1251.3599,315.09695,209.5704
-1129.0846,291.76334,164.8949
-940.04694,322.26257,134.47147
-822.7104,360.609,110.726555
-750.6961,396.7887,95.71773
-654.21674,384.1687,68.92097
-579.6685,354.3466,52.157356
-506.11234,301.7904,38.941586
-446.02505,255.7732,16.782845
-407.1946,274.27206,45.83124
-414.11417,327.90854,71.100006
-420.58328,369.98486,101.55639
-545.06323,433.92328,144.48425
-828.13904,507.73935,244.43973
-1162.5311,459.09143,340.51166
-1569.8472,419.93304,362.69284
-1989.0931,451.6471,503.72577
-2057.5337,461.5151,700.7668
-1500.3197,269.77914,598.7625
-1123.1282,34.66805,312.6068
-1037.6635,47.774952,308.1815
-969.8919,226.83313,301.36035
-894.36633,443.48886,193.7819
-744.66406,607.5254,95.034004
-576.6083,675.6137,83.349464
-449.38718,620.43933,124.6556
-388.69183,456.57245,187.9907
-371.5487,398.03882,225.07097
-407.63364,431.5483,203.74808
-507.59958,489.11584,193.14676
-667.7583,529.59283,230.0889
-860.40985,553.36755,314.3479
-967.87036,543.9291,349.579
-1224.8982,659.9124,518.9439
-1460.6738,369.19937,573.25323
-1646.4158,321.93906,493.23148
-1782.738,628.08435,557.11334
-1480.3563,387.08026,531.8488
-1187.1746,381.89056,408.455
-1083.8125,413.85037,260.3551
-1055.9553,372.676,165.76935
-964.31995,360.05557,117.53314
-829.06323,350.20694,93.06262
-691.53033,314.62277,48.519833
-578.8113,277.73688,-3.7047439
-489.47504,285.61465,-11.060879
-438.4924,268.7706,3.9342258
-371.8494,279.6348,14.998012
-387.8059,300.29666,23.959726
-481.1058,352.7967,54.06532
-689.8085,430.94833,138.87811
-910.45795,477.7541,265.1493
-1188.4257,438.6216,351.3385
-1484.3616,328.82407,345.0182
-1754.5106,277.08368,390.68726
-1795.8722,283.875,554.41235
-1551.563,294.4007,580.6518
-1229.3903,262.62585,417.77847
-1121.7374,174.61028,338.44153
-1041.0507,161.63,308.84885
-939.7706,215.19858,252.51047
-752.1013,320.37262,161.78719
-543.38525,482.90714,134.93947
-428.52762,523.4195,160.34517
-323.68112,487.40033,143.42819
-275.41388,485.83566,195.49275
-337.07352,425.17322,233.08998
-440.1475,402.42102,215.23576
-645.88025,562.556,322.34793
-888.83453,654.7048,412.83804
-1033.8561,680.9314,480.67728
-1144.8959,618.79956,490.4589
-1385.9432,628.7142,537.0838
-1696.075,732.0289,571.4287
-1664.5228,491.54672,465.87494
-1347.6431,254.62247,426.88318
-1234.1367,261.3134,379.5021
-1150.0419,304.57028,303.32257
-1066.2257,431.4086,243.29143
-952.5181,462.35403,196.48042
-860.30615,402.8105,158.20166
-725.2849,329.55936,104.79578
-602.6849,300.646,80.87294
-505.4223,283.4199,67.19242
-451.91464,281.17282,51.48689
-393.83707,261.55988,6.5866504
-392.01642,269.7389,8.185538
-452.6421,312.7799,37.250652
-645.0283,414.8513,109.7659
-856.40936,476.26968,190.14896
-1162.4199,460.56937,296.10342
-1520.5852,394.1227,354.2175
-1767.955,308.47394,381.4855
-1809.4652,275.77414,509.9444
-1528.4517,273.31766,604.5336
-1199.7765,186.55815,481.32578
-1007.7507,140.57016,366.29443
-995.4132,183.68361,379.25006
-897.58466,224.55887,322.5441
-774.24493,370.5183,227.10924
-644.34186,504.114,211.08887
-501.7519,543.51013,227.41632
-445.6329,498.3511,241.32204
-410.8107,460.6841,222.81941
-487.5392,462.9323,279.01535
-564.37024,426.86557,330.73578
-626.7087,445.97183,302.28677
-720.871,485.26987,367.41113
-809.52295,497.70065,403.54352
-937.5936,539.1027,440.59198
-1299.6858,640.2517,474.28244
-1796.4222,731.0313,519.35535
-1762.232,594.0752,382.69647
-1344.9696,338.2115,214.96742
-1196.8679,289.30472,176.4619
-1256.4803,277.1841,155.97334
-1272.9803,298.00952,142.99356
-1138.8461,324.84097,90.70198
-1001.9009,330.98047,28.086466
-853.91296,295.83572,-32.58884
-734.1605,273.03076,-95.48982
-615.50244,295.6548,-68.43104
-546.4097,303.67117,-71.66262
-462.58875,254.32849,-42.543545
-399.93756,276.33032,-30.654428
-380.05524,346.57687,25.24194
-318.7133,399.0516,81.09628
-293.2988,533.33545,112.34535
-337.0705,737.0931,177.82712
-421.14468,818.47174,165.92967
-656.5593,997.85126,207.80582
-991.0494,1159.463,354.6793
-1205.1542,961.87946,485.2775
-1379.4316,724.82135,598.33875
-1609.7242,689.6995,707.7211
-1486.9694,664.32965,734.8607
-1225.4736,506.8627,521.37964
-1111.3121,242.56625,288.2695
-934.88617,-19.500412,164.37344
-884.2135,56.49779,177.99352
-857.05084,232.56905,81.71749
-782.76227,404.3717,63.107777
-701.2798,591.3083,69.582855
-652.98706,634.1655,61.313473
-670.1824,507.0082,46.650845
-604.3639,366.27603,34.75901
-642.05615,314.5446,76.69643
-702.39545,311.33545,105.76304
-786.5655,339.63696,148.66211
-767.72473,352.2701,183.73909
-793.514,339.41364,227.76703
-790.02344,305.12012,284.78192
-757.90533,276.51312,328.50104
-692.51953,304.83356,401.59216
-629.1416,335.31775,383.6067
-603.2288,386.94775,367.5321
-689.2279,460.4726,401.68536
-786.84467,492.49707,426.8523
-893.9276,513.45953,349.8301
-1121.7085,647.3496,267.4587
-1403.1003,756.1368,280.1527
-1365.1222,684.8021,274.72372
-1062.3036,479.38327,142.70596
-1005.9743,484.28574,60.621296
-1131.8177,519.044,-7.8966126
-1249.2516,519.31024,-37.189507
-1123.2976,453.08658,-68.92248
-1051.1879,462.0626,-72.60424
-1027.1588,465.40826,-106.93402
-1001.53973,510.0446,-120.02745
-930.94714,534.9094,-84.65244
-929.49524,518.9453,-99.93557
-911.39496,503.6701,-53.360523
-856.04913,473.22626,-7.890617
-770.81366,433.131,31.691662
-762.243,410.34763,88.47921
-801.18024,429.08182,170.44714
-962.9969,439.06192,239.4866
-1073.7601,428.43594,375.85782
-1187.4187,356.07416,451.8245
-1253.2015,268.2643,435.95822
-1274.0505,249.5142,521.406
-1242.9048,251.3926,704.1964
-1126.1625,139.75441,629.86224
-1163.771,124.83587,441.32947
-1118.2529,135.42802,391.36972
-1029.2433,149.00533,412.35605
-890.3278,272.8153,408.2337
-779.173,415.11206,369.50146
-645.513,533.21075,307.52243
-543.8076,565.9741,257.515
-476.08533,500.9221,230.74211
-458.79797,469.181,223.47012
-491.84317,420.2078,259.9588
-584.75116,431.72964,273.2978
-697.10156,477.50095,320.10855
-863.0283,493.62115,335.06384
-1005.09033,497.91684,351.1184
-1359.9702,520.8226,387.43988
-1696.1509,563.31573,427.13336
-1746.8944,560.2092,436.2101
-1574.7175,553.47473,360.61926
-1343.4865,457.7995,227.82199
-1271.4158,408.06863,136.10077
-1204.1428,344.6423,118.17782
-1102.5995,286.6626,113.96935
-904.30853,274.11148,106.37459
-734.686,285.64542,70.33811
-569.8272,281.487,48.819263
-478.86838,278.52182,25.72737
-390.3557,275.54797,12.080265
-353.46945,253.76503,8.802763
-353.83466,260.963,4.003163
-550.3474,314.74667,34.546757
-877.9327,410.88852,164.79352
-1149.9481,400.6729,282.8847
-1434.6002,394.81232,342.69635
-1624.0098,286.57513,350.04453
-1650.1503,209.96254,396.17197
-1478.4348,257.80167,555.59766
-1252.4644,210.41916,475.41272
-1088.4451,174.37491,328.6462
-917.3542,243.87448,311.35635
-850.1156,300.23538,280.84653
-742.9343,445.21713,221.46344
-618.51764,539.1114,179.61983
-481.71362,575.1977,189.24927
-456.58203,561.1047,249.86452
-492.01523,523.4369,284.07254
-595.9537,511.3089,290.84827
-771.3035,523.0237,353.6605
-992.4647,516.73627,422.84067
-1164.1875,491.27713,499.31702
-1350.842,486.38528,530.96686
-1625.5977,507.38925,512.5551
-1529.6161,407.77408,411.7573
-1239.9373,345.1125,325.5503
-1210.2562,328.26004,224.27249
-1242.5032,299.352,160.9611
-1150.4802,284.2299,153.70262
-975.3353,257.64157,122.33547
-856.5698,249.44919,85.05467
-743.6512,235.89693,39.72583
-662.8446,263.14233,5.6879053
-550.48883,246.83118,2.6338768
-506.89713,255.62733,5.798044
-481.54126,254.67253,-0.3389125
-535.0538,287.98212,40.477036
-683.5274,354.653,87.37259
-869.0933,369.22705,143.29454
-1105.0803,382.2201,236.33238
-1360.866,351.45294,301.8518
-1611.5748,276.27502,343.4282
-1732.2762,276.6071,459.95822
-1528.0216,247.12349,512.7554
-1231.4734,190.07225,461.36877
-1073.5723,173.8207,402.99908
-994.6783,215.25864,383.1412
-890.65454,269.35104,352.092
-741.1438,359.6892,254.97475
-589.1944,488.2052,205.42262
-504.91907,523.26483,254.13727
-452.65472,456.107,235.75935
-460.87143,447.31284,240.96957
-557.5145,468.47006,317.66718
-667.08276,410.37784,329.15997
-778.59686,431.2781,374.6094
-904.75385,431.36438,428.54117
-944.95105,421.72867,457.42444
-1199.8864,493.70468,503.12857
-1612.2749,602.37134,611.9875
-1604.8993,503.82516,548.71826
-1205.6959,271.87415,353.41162
-1111.0575,224.39111,271.46042
-1113.3043,234.7247,239.97232
-1028.0398,296.3488,226.84145
-930.0024,380.92358,207.22514
-868.45996,396.55264,183.20753
-792.9588,339.9283,153.04822
-679.8968,290.87646,92.953575
-589.8999,272.86905,57.72816
-549.0675,268.91904,48.083736
-527.5157,255.50557,57.553394
-597.65753,270.2719,87.06018
-722.1642,291.97522,110.073135
-889.47424,307.1192,171.19746
-1083.0842,327.3136,242.09741
-1260.8345,336.5074,288.3527
-1507.4933,307.5887,307.44452
-1614.8463,276.549,381.29422
-1581.4913,295.41492,521.1917
-1281.6353,230.1443,458.2805
-1114.8079,203.12517,425.5665
-954.0647,164.45049,399.27936
-844.70294,199.32553,353.57166
-758.4409,293.4222,267.5929
-639.936,361.9727,175.25787
-540.5879,441.71655,157.71133
-497.01364,456.24387,214.19594
-469.87256,422.89285,234.71086
-515.981,413.3608,237.66731
-601.411,409.42886,295.16205
-706.37286,415.21365,387.46002
-791.5831,401.10016,411.86526
-854.8578,394.44638,451.55417
-940.6801,399.85226,477.22034
-1086.1516,396.55768,522.9615
-1340.38,498.47543,546.293
-1378.1388,551.15094,527.54333
-1137.7693,345.36823,329.43518
-1080.9642,336.5337,242.88503
-1064.2657,373.60266,219.11484
-1105.0634,385.20734,180.51146
-1092.1655,509.9553,165.68188
-1000.6936,506.85458,130.60214
-856.50104,466.51596,59.77877
-787.82574,517.3487,43.156673
-690.3444,493.69827,1.554075
-618.71594,545.80023,-7.1459303
-558.4251,600.85956,-29.69694
-465.6412,550.3718,-39.123825
-369.432,611.9968,12.257076
-341.18573,722.5873,49.907864
-320.17303,780.4097,75.45242
-342.7846,829.6424,116.41902
-402.24286,969.6119,184.3232
