# PAMAP2 dataset (wrist-mounted sensor)

acc_x[mg],acc_y[mg],acc_z[mg]
-1291.9728,528.6402,153.00691
-1447.4739,340.29236,336.5773
-1080.4138,-406.1921,430.0966
-864.72943,-557.5937,428.93616
-743.5505,-321.17612,275.86896
-657.5701,-41.368496,160.99255
-583.04034,178.07693,120.530266
-552.5472,372.85214,119.312645
-485.9046,424.37067,128.37077
-481.3776,412.9236,172.37672
-517.1251,348.17288,224.01901
-515.37494,317.4321,253.58363
-612.4498,279.75595,272.29486
-595.35876,193.88443,214.28577
-642.58093,126.67233,191.04932
-734.3779,126.18894,218.34181
-1190.5477,136.33284,212.19121
-1925.1577,135.82347,49.477417
-2268.3965,202.42021,14.472804
-1537.7904,217.76239,80.747894
-1126.0632,196.51277,150.62483
-782.4107,352.54028,217.01196
-618.67194,356.0524,181.94977
-362.3378,259.8138,183.51927
-489.32056,167.12547,208.4367
-531.7545,54.071457,208.6723
-541.27106,-59.095375,151.00201
-722.67944,-2.2204025,109.254
-1471.0188,81.53364,75.340294
-2300.198,390.92395,225.20232
-1573.8608,812.6346,701.0399
-1182.224,651.6031,752.17786
-1031.4592,381.38916,283.2235
-955.939,267.1687,33.759384
-719.8014,-113.771515,101.46284
-621.5664,-151.21423,122.97913
-610.6738,57.84929,69.04871
-500.40985,307.1453,51.024757
-483.854,554.7582,3.0420287
-263.29813,631.99554,34.32014
-371.39154,655.6103,83.87762
-649.53894,700.3754,171.64255
-2115.1318,772.3145,-80.78428
-2951.1338,352.5209,-276.99457
-1285.8617,-139.09386,67.545364
-1358.8905,-99.33705,376.49213
-1222.7017,202.26326,380.7917
-1256.4296,600.0166,210.18916
-919.78577,549.5397,221.08456
-890.45935,216.28691,192.69753
-807.7044,-21.060081,158.6795
-819.44037,-209.90778,80.19064
-608.87286,-188.61012,113.54632
-596.63947,25.288296,126.67005
-621.8676,415.42413,275.7718
-856.8684,746.88007,431.9909
-805.14874,981.57947,782.96234
-828.3608,822.175,727.7787
-726.2013,334.12616,531.2885
-902.4166,-93.76671,597.0313
-938.8551,-84.10717,576.6743
-941.4362,245.28226,399.03348
-787.3623,563.6994,225.27408
-755.32697,721.04016,188.57323
-679.3018,697.7557,134.56584
-744.2943,636.58777,106.79217
-637.49756,592.78033,102.62668
-595.4593,478.13297,86.296196
-457.62076,402.60638,80.26994
-573.84235,346.13437,70.30464
-576.8248,338.00443,129.79453
-817.2782,278.7918,159.02283
-1068.3944,289.64087,180.44981
-2467.49,213.74573,-0.15244797
-2558.0032,201.16765,42.770226
-1327.0336,344.81454,330.89734
-1473.9153,567.61847,440.01004
-1148.2377,650.6952,353.35358
-920.0047,522.3855,195.60089
-660.92285,200.05208,197.57909
-475.19144,-130.21034,195.1062
-297.16736,-211.61371,203.7639
-331.1276,-140.18283,134.55038
-405.34735,-38.845024,60.64435
-575.3349,121.70724,-2.952763
-715.32965,226.83615,11.204888
-848.9593,322.3656,68.54764
-916.32043,341.46637,112.9934
-1083.5045,311.83923,110.28007
-1617.3739,411.6187,115.64416
-1861.1862,757.6123,428.9028
-1609.26,877.16077,662.3908
-1473.6497,575.0336,356.08356
-1117.6,236.3151,110.14075
-858.9943,-43.880535,273.93887
-776.6961,-133.11327,405.79977
-725.7105,61.49204,433.7733
-603.2825,263.41,409.10425
-472.00827,481.57074,396.7333
-353.1851,591.9848,357.1074
-455.52234,586.6365,271.91882
-526.67615,447.78467,207.21182
-693.23755,331.074,178.1768
-1135.5729,297.2237,222.91583
-2189.2502,231.966,37.4893
-2635.1887,181.9204,-193.39836
-1897.8312,112.388214,-34.001667
-1708.8967,15.616096,130.54793
-1237.3943,299.45758,161.3112
-936.5224,502.68842,-1.3427147
-600.98364,157.3492,-103.7511
-359.65805,-634.77704,33.051197
-91.022804,-894.97375,169.10834
-433.92023,-527.09467,144.19968
-732.2447,-173.21507,172.99783
-1320.485,529.09863,0.83577025
-2301.8965,1458.4496,288.93613
-1627.9662,359.54642,927.398
-1486.3262,-109.710144,707.9299
-1405.2351,1130.7874,340.17218
-772.45386,874.1683,135.66898
-505.245,651.0185,91.88631
-503.7661,778.68243,11.545313
-303.60022,693.7803,-105.94244
-214.20398,547.5213,-283.97253
-35.143654,474.45868,-328.94138
-185.32901,622.8524,-261.87265
-639.7095,936.17285,-246.99632
-2134.7744,1230.5978,-322.596
-2931.3867,830.3371,-511.03348
-2029.3569,812.95703,-47.365322
-1481.5498,916.98987,123.68009
-1302.5646,1491.3152,253.66692
-1375.4564,979.90906,-205.39685
-1239.1606,50.12828,-337.77106
-1091.4595,-634.88715,-60.90948
-617.9451,-1013.4843,82.60875
-473.05804,-667.3066,69.85901
-747.07837,-90.96589,77.544304
-1211.1213,816.99414,-147.96178
-1194.5404,1522.0962,198.45221
-1020.6731,924.3694,809.1676
-693.1556,653.25934,520.92346
-581.9717,747.9183,127.1523
-819.65186,770.4473,27.377344
-720.5858,626.9808,133.96199
-644.0935,379.056,274.44885
-709.41125,412.0535,225.1998
-679.17676,404.96365,35.49658
-628.27734,492.83673,-128.5356
-614.3155,770.5928,-234.96878
-423.80096,1019.7284,-335.8602
-150.88889,1212.5143,-511.9747
-109.60664,1264.0062,-846.3472
-95.20618,1166.611,-1282.2465
-102.16832,1196.2991,-1386.1528
-248.36588,1134.2905,-1320.8806
-382.3485,939.3767,-1359.8152
-497.73328,719.89545,-1311.3826
-449.48242,908.0691,-1108.5109
-366.75784,973.9927,-912.75433
-237.50694,973.31433,-666.45935
-109.803635,774.69525,-504.47824
-83.106995,248.15503,-374.59973
-138.61722,483.4764,-502.62402
-86.53188,989.6219,-703.71564
122.20984,730.6051,-669.05054
117.77426,589.89984,-290.32462
210.09456,595.4247,16.452103
219.5853,716.096,489.042
164.24736,766.3716,498.93726
280.36008,901.17,14.4054165
351.99292,1051.7805,-590.9938
303.35004,1411.1353,-809.63354
273.0582,1178.2749,-705.7417
363.73477,930.35114,-552.60846
305.66672,756.2221,-495.00043
231.76263,703.74896,-401.93256
150.52373,615.38306,-362.48154
101.58938,684.3451,-289.6239
86.63251,529.8572,-216.24695
130.97699,469.489,-240.05614
183.46503,537.00037,-291.95377
305.26938,684.6522,-408.63437
451.59988,796.5021,-575.3008
633.69604,989.48193,-666.9897
744.03436,1010.21014,-664.192
869.362,1082.3134,-780.1296
775.208,1336.812,-970.2157
617.5432,1317.4832,-904.37054
492.7455,1289.7347,-964.5684
264.10245,1408.5028,-928.5909
22.143433,1431.126,-831.091
-258.5136,1293.9022,-596.119
-399.74774,851.789,-308.76862
-332.115,448.62494,-158.5607
-281.44412,160.74419,-35.793663
-279.9347,-33.994926,94.46855
-408.3536,119.61584,164.02473
-499.84525,466.4994,293.87952
-599.55096,902.67004,384.79465
-604.7996,1017.7432,372.16174
-487.39246,582.73395,391.04938
-692.58997,453.36877,645.80725
-875.2539,283.27814,900.0921
-1045.6985,380.48837,914.64984
-1131.58,322.2465,753.1822
-1181.9338,352.3433,586.4539
-1118.3092,476.7805,527.9565
-923.17834,491.36377,432.70496
-759.8492,507.8356,309.03137
-592.4246,535.2818,239.04814
-658.4748,672.1734,317.7602
-617.61597,744.4172,380.46176
-523.1266,717.2489,407.45215
-476.2053,658.7396,477.12943
-392.19128,492.9057,431.35605
-395.00378,434.5312,429.77115
-436.55466,269.13034,476.67258
-362.3321,188.06973,333.25522
-341.6987,280.59457,337.25674
-510.35413,504.3281,350.76923
-1339.8666,1065.5358,560.4375
-3036.9302,1523.2765,503.64377
-2123.769,1107.7805,360.3924
-1616.0841,563.0741,386.92715
-1448.727,491.0439,305.4429
-952.1344,500.9119,226.11229
-627.10956,261.55984,165.0543
-378.42538,44.862465,111.483894
-306.76465,77.07193,76.477425
-296.74005,230.58868,89.58505
-337.4876,400.07233,97.97046
-412.2906,537.30505,198.05663
-564.49725,641.60425,312.75998
-331.34882,432.96347,353.89243
-339.91965,588.8581,574.0932
-135.4628,436.28888,591.11176
-70.10602,581.29816,841.93274
22.443857,578.2857,1040.1981
-77.06483,777.4065,1110.9458
-323.43192,704.5089,1196.1538
-163.13109,210.0215,888.9084
-376.3813,670.3875,933.7005
-521.463,611.3766,953.10223
-395.86935,442.67926,771.97424
-369.83597,416.24896,649.52997
-238.10155,397.31943,467.9226
-114.47744,403.3001,409.8055
-114.7133,442.9441,454.361
-200.93541,442.15585,489.34027
-268.29034,468.30582,496.31866
-245.51741,296.7465,542.5982
-409.9342,402.75195,657.36554
-749.1246,475.33994,920.62665
-1258.7496,195.81725,1190.5315
-1763.2362,43.041245,1387.3986
-1529.6702,363.05438,1222.2125
-1005.3512,328.00717,878.8543
-581.28876,398.65668,596.29114
-298.7864,188.2757,386.7221
-379.77548,386.26294,355.68472
-571.3849,435.70932,800.51514
-568.48975,174.02037,827.082
-541.6407,213.52344,524.1626
-475.62106,16.70018,308.19443
-588.37134,457.60834,220.27295
-734.805,818.9706,545.0124
-688.1677,626.8824,653.9585
-593.9925,481.65878,653.32355
-537.3553,601.42206,872.6459
-480.7418,491.79437,1062.7894
-608.6787,300.98865,1270.4484
-578.2986,215.68797,1152.5647
-612.1143,341.0419,956.2624
-500.82376,458.49658,681.5089
-357.6373,506.23096,498.01328
-220.38501,473.90234,496.29492
-39.67678,335.41208,644.2359
137.66942,328.43988,668.72516
171.3167,357.8689,669.63495
3.0391197,340.0524,726.6001
-331.23764,432.40485,816.3341
-506.0385,713.06744,770.81604
-658.22064,928.2886,928.60724
-731.8827,630.95764,1195.6035
-702.97656,447.3221,1145.6035
-454.8716,407.7457,825.4554
-312.2212,342.186,600.8388
-143.82043,503.32187,433.91873
-270.98093,913.8863,703.7246
-385.1883,402.19092,1142.3726
-276.1782,288.42786,743.9273
-292.37857,313.6579,522.61456
-379.81448,421.01382,497.35788
-455.60837,354.0623,529.8922
-550.3668,322.68643,626.37177
-657.57916,525.5073,764.40625
-576.5735,426.2673,744.0575
-726.6128,541.1468,910.21875
-923.8319,344.08038,987.8775
-937.8833,244.62741,1048.4333
-703.4615,-77.793884,910.85254
-438.7535,31.362906,748.98474
-478.06348,142.69035,802.08124
-442.798,61.444996,834.86896
-368.99728,2.533018,574.1293
-204.21523,244.88786,443.09836
-240.99669,154.4089,119.70851
-435.65918,245.5538,-162.38864
-1013.112,935.94183,-648.91943
-1687.2456,1566.3654,-185.47054
-1547.9391,950.9473,-268.87958
-1438.8854,1098.4878,-408.62152
-759.1369,741.7914,-202.6629
-544.1693,515.8489,-200.12624
-441.29175,421.01193,-122.6121
-555.7085,343.8968,-169.13744
-465.6143,278.66956,-95.432465
-695.4875,235.64575,-55.30072
-821.1621,326.26566,-62.440815
-789.8982,503.5907,-158.21342
-745.9152,592.1224,26.867085
-883.1803,712.41724,131.628
-1044.153,643.1013,137.57341
-1171.8693,735.69135,97.588394
-1005.25885,740.13837,-64.014404
-1259.8097,675.48285,-148.04672
-1202.441,494.82614,-118.142044
-934.5185,517.9003,27.814608
-622.4781,495.52277,-4.2149158
-613.57495,604.55914,-9.060613
-775.25995,682.53815,143.69463
-1158.8949,1727.6022,619.2429
-928.4072,1265.9985,701.45575
-524.5955,363.2484,272.94064
-692.60834,822.0753,290.2316
-929.86395,506.35837,518.63477
-1023.13776,298.88165,458.32443
-1024.343,34.983536,76.04969
-861.1887,321.5187,678.96027
-562.34393,147.60114,903.28326
-972.5399,-432.97238,585.93494
-593.6569,-105.92502,478.59915
-318.30643,288.57974,693.8996
-431.07645,2.7085533,523.6858
-436.86792,261.3141,926.8153
-473.16437,203.23839,1002.7305
-636.8573,457.23788,842.4198
-646.6863,454.12985,844.2741
-645.0064,351.76083,729.472
-538.7879,209.5388,634.4586
-460.50406,-2.7182643,446.954
-844.7768,-232.11206,546.1683
-532.329,-433.52835,279.80322
-323.86505,-376.91376,492.96762
-472.9829,-585.61017,1547.07
-515.09595,-697.7781,1701.7157
-700.6116,-436.29874,924.0701
-684.55237,102.58764,717.60126
-518.42804,206.70789,675.5173
-518.8187,125.502525,645.53564
-442.34793,270.16257,610.2817
-440.67755,280.79474,788.06256
-340.1438,253.83476,827.815
-264.3193,299.99548,948.64667
-207.17873,210.29065,1008.4688
-51.62509,-72.379974,1042.5305
-115.97138,99.84663,976.3341
-174.99876,217.84077,843.3864
-197.55486,245.94977,798.5891
-165.49812,287.16733,764.00464
-153.62552,377.39597,709.6825
-191.14905,366.5311,680.6008
-450.53204,363.7978,524.4779
-800.2278,466.2406,566.5938
-835.5947,311.1589,693.3939
-901.52985,184.57504,769.7516
-937.11536,140.18213,727.6956
-996.271,160.83955,642.3102
-935.29724,179.3222,662.06323
-981.25793,18.999157,655.4871
-840.3012,27.64107,768.21356
-664.07117,32.97402,726.8019
-627.1028,118.88044,651.3429
-696.5171,72.523636,661.2084
-822.858,-8.649241,654.8001
-878.2168,6.577818,556.5325
-922.80475,-78.891106,535.1077
-942.4453,-78.52913,520.1939
-846.7342,28.491297,563.792
-651.4387,-16.546652,579.4809
-552.22925,99.45771,614.69226
-445.36942,178.43721,573.59595
-530.49585,245.22589,597.29016
-810.8718,273.57852,718.6336
-901.9309,73.23818,690.4786
-798.3786,62.871445,600.252
-735.2187,117.76455,621.8753
-721.0468,201.65013,630.12836
-705.8185,584.756,726.9126
-685.9402,539.169,839.1863
-553.787,431.13083,866.8987
-411.1595,432.8353,1099.2177
-237.23949,269.29602,1095.359
-88.99056,393.6313,762.9577
-207.71368,523.90704,628.85675
-458.8713,683.13556,669.54083
-206.34633,403.53635,501.13214
-272.00296,465.5822,507.92706
-169.0387,50.038486,523.3768
-184.9052,340.44662,740.028
-29.214342,75.835106,830.33484
-90.68136,40.65889,952.06104
-263.13202,84.12476,864.45294
-669.4273,257.65366,795.3405
-1506.9513,442.8896,920.86774
-2021.3479,270.9962,1057.0099
-1689.1302,19.09756,805.61127
-878.38715,-117.871445,468.70035
-714.9063,319.65515,602.0736
-601.7909,416.7152,621.9915
-229.43762,-108.869865,361.66754
-444.73514,150.70482,588.0394
-724.1299,618.8514,1102.7372
-350.15433,47.400284,559.7217
-565.7906,415.9158,707.09235
-558.2214,285.14075,651.12994
-536.5095,406.83826,528.637
-687.65454,330.681,734.5815
-695.67163,209.25128,891.3395
-810.29694,254.57904,1277.8883
-686.76013,81.56428,1315.3689
-547.399,120.72798,1043.6338
-569.5145,328.80573,852.04565
-515.733,236.6459,707.96063
-506.0582,340.95425,712.2043
-467.25705,339.00055,786.4887
-322.12445,279.9258,703.4905
-286.95184,384.94608,822.08655
-76.43214,406.45468,679.8143
144.51926,524.9427,458.45908
196.87018,267.72537,371.1905
408.11255,437.41913,360.25058
357.1463,705.24835,736.7237
90.136894,635.1221,1270.4852
-349.7297,755.01434,1290.2245
-899.45984,705.72064,1319.1143
-845.5724,223.28595,1181.1226
-664.34564,57.726803,902.3858
-517.3359,107.524414,693.66406
-407.32968,181.54356,551.58246
-326.4589,298.39914,478.9799
-474.83435,451.28616,583.36505
-552.49884,229.58385,717.12256
-621.5869,270.97116,590.8921
-675.3605,576.31396,481.56287
-798.81586,631.8022,637.23083
-808.1519,505.13275,649.0545
-700.94006,590.0404,663.5966
-526.4598,532.129,902.93787
-609.05975,116.36228,1840.005
-304.42993,-434.40677,1619.3577
-101.904,307.8062,790.5736
-309.5888,625.031,703.21387
-193.12381,621.2543,548.51764
-290.53516,447.20407,553.83154
-107.60844,742.1472,641.25366
124.386856,609.4837,596.76514
208.94792,71.991905,438.56046
202.72432,365.93924,455.2864
11.361427,1093.5206,661.1687
-85.863846,636.9952,813.88416
-106.82051,305.10153,928.5812
-78.47508,632.16125,911.6208
-323.73044,994.1963,929.62665
-742.3097,638.5573,1224.5505
-934.26495,-500.61685,1300.9552
-648.4432,-444.88675,1093.3395
-432.0673,-184.55363,794.276
-87.91005,-292.12088,472.64102
-518.33704,541.6954,477.50473
-878.93146,1616.0709,1322.3146
-291.55957,72.856346,693.3625
-415.70822,497.05914,240.15059
-430.89542,770.84045,523.306
-597.26404,159.7798,688.1394
-596.5833,-168.26224,1367.1896
-444.72952,-239.86635,1694.8442
51.36088,138.01424,1529.0692
73.63737,211.63313,1171.8081
110.65325,286.83972,925.9975
38.592697,313.75974,892.6721
30.568253,341.78253,772.5168
-95.21233,434.2015,664.32
-136.08131,490.37375,605.8323
-204.84686,405.20685,655.54144
-202.70258,420.45276,765.71564
-164.9219,322.85577,919.31586
-79.81254,349.67685,836.67
-106.44987,360.29556,646.2929
-99.043335,467.6652,599.79144
-268.30655,293.34686,839.23035
-363.8555,403.0261,1018.8335
-443.57724,336.6599,1213.572
-400.87665,295.95184,1583.6198
-138.33334,247.22305,1499.3121
53.694057,391.6001,1065.8066
148.43985,374.08862,958.8944
228.48528,429.5305,912.3548
281.6466,367.11624,719.6081
219.47424,573.80164,650.5982
98.34282,528.5837,672.41815
-14.673942,703.10394,583.3138
-115.229164,792.78156,559.583
-125.11188,1163.0244,619.77325
-275.3144,-2.495346,865.50323
-173.816,107.836426,475.727
-48.722736,591.3453,657.0108
-74.1102,-12.532065,990.1721
-183.63727,751.75275,1059.0919
267.27112,525.7606,943.1023
501.25952,564.63385,527.01276
665.30225,604.86523,896.9746
485.12936,-271.296,2070.4243
79.22025,-253.4594,1530.7213
199.81306,270.3655,1301.5089
558.4543,-12.391468,1180.73
696.22754,551.6765,491.27808
349.11087,93.66456,496.34357
25.636946,213.5481,557.03046
-157.86891,181.12936,754.9814
-333.11514,335.62833,991.7764
-80.159996,617.91956,1003.7465
33.983837,512.546,1021.382
22.396694,447.86703,896.3799
68.218666,674.5701,864.7115
-109.9642,410.67496,846.7877
-57.96845,585.8633,819.2372
-55.26389,469.82523,857.6791
-13.657945,566.63947,795.97455
-0.8496775,471.0285,886.81714
-3.4578202,532.5415,979.6055
-35.088207,550.42377,992.55804
-37.19111,653.32544,898.381
32.04053,662.8847,820.9366
288.00476,465.19485,602.7933
131.75037,464.18057,752.4615
190.58542,849.75757,874.64417
196.00836,691.3357,757.5659
149.72095,546.75446,630.10254
132.7371,729.21265,562.5129
183.8475,805.28015,645.7043
342.3595,751.12695,751.18616
546.142,530.86273,599.0842
588.1529,130.27882,623.35614
427.30597,375.4533,767.53326
355.83328,-42.143505,789.8857
324.2559,-781.1337,733.1957
138.49416,-440.77246,590.6307
155.64725,-162.41048,548.39386
96.77547,48.9056,526.26605
-192.08,821.13184,1101.1855
-102.58945,375.96793,1432.0441
-224.14995,187.46678,970.6561
-361.0571,295.16306,768.26483
-552.15753,269.908,1003.943
-609.55426,419.1805,1135.5671
-666.65186,188.06787,1033.8467
-353.80228,5.3508134,563.1171
-138.71709,394.4785,221.28976
-253.51007,395.38318,554.81274
-337.46048,100.25132,781.4059
-421.11786,-159.01448,970.129
-441.82315,-39.811237,879.8978
-512.7339,447.96835,957.8929
-366.5699,473.42578,832.45355
-501.9463,617.36163,822.0131
-1257.2152,497.86166,1317.9014
-1489.5819,74.83562,1708.2302
-1159.4816,-42.075367,1232.0286
-756.5555,171.38138,773.0912
-447.46182,536.6173,568.0019
-322.23627,665.773,546.4636
-318.7367,499.16003,540.54553
-321.95605,361.14258,609.38666
-252.80849,430.02475,645.7381
-222.19963,401.36127,629.85223
-238.24931,370.02798,578.3272
-313.60022,391.2618,657.0173
-297.9024,359.29962,659.29175
-371.8602,353.16068,682.25995
-450.5021,292.90298,637.61334
-657.6849,289.1669,759.8845
-892.33484,91.65475,916.0138
-1222.2617,64.180374,1327.0619
-1161.6254,-226.12646,1541.7628
-626.5191,-39.72673,940.0758
-225.90714,177.87943,412.1211
-443.8506,454.97406,567.907
-639.5808,169.23067,910.23584
-445.906,-49.061417,756.7604
-426.96436,441.64917,489.38763
-466.90274,296.94864,513.8263
-301.6872,354.47028,650.48157
-80.641235,297.63913,907.51263
-187.34894,195.02606,1009.9193
-523.0636,300.1512,908.01404
-1181.5361,389.12292,817.42413
-1566.3353,269.22516,916.68024
-1230.1547,306.97946,839.0939
-838.79767,362.9357,779.8326
-641.8506,387.71136,879.5139
-594.12604,326.38837,795.5697
-542.4697,324.53217,444.44012
-530.32214,480.77707,162.29965
-541.25555,591.5029,113.25553
-764.44037,643.7089,177.64438
-862.9301,276.23135,184.98099
-994.5726,314.85815,146.23613
-997.9333,208.44199,894.83105
-556.03955,-391.4016,988.5531
-594.81476,134.9708,881.09875
-585.76447,66.871666,799.05554
-636.26544,258.2796,636.80023
-420.51202,426.55457,651.6433
-258.06302,364.84937,708.24634
-30.861422,346.05606,741.7897
92.80737,281.33813,1034.0638
112.66595,223.10466,1176.789
-115.08017,326.15027,1379.5809
-219.92688,248.2618,1209.1478
-227.2357,381.83447,894.62494
-194.54056,341.613,747.8861
-376.3244,438.87448,884.79266
-318.80997,266.19617,744.8748
-294.11472,462.1499,673.6066
-261.51358,513.908,627.0997
-165.31612,498.39468,505.68982
-53.262386,394.59235,463.95862
-112.05852,377.0137,550.9279
-84.08659,461.4702,619.4257
-204.3614,601.66113,819.57544
-241.42413,459.27832,932.6984
-648.9824,524.715,1153.877
-1278.9037,427.14755,1704.4604
-1557.042,-441.265,1923.4778
-454.20816,-192.81238,1019.6954
1.5490142,284.90936,996.8298
189.05305,905.1842,749.0638
20.956102,1261.1196,674.551
-117.585266,129.45721,493.5812
-699.4387,-367.92618,451.059
-843.9058,-378.2194,475.2869
-815.3386,347.2403,793.39636
-387.05563,-262.58224,436.95453
-762.49316,353.678,416.82416
-284.71277,1724.5413,1669.9641
1392.8597,-407.60995,1124.4872
466.48727,375.8267,1377.301
619.9242,152.27351,1103.5385
-112.06825,403.64767,1034.3163
95.48874,528.99866,648.1636
156.81827,-32.9111,903.13727
177.5045,14.515813,998.12317
140.97179,666.90674,590.35895
512.48303,631.3385,-59.33018
467.61252,561.24884,52.09953
497.44675,139.50124,441.92215
255.58194,320.38266,801.8705
264.8766,622.15466,634.0569
195.40263,699.28735,585.7866
-249.5721,727.7009,990.1114
-653.3021,-349.09094,1659.264
-504.36185,-292.82175,1685.52
-801.25836,461.07083,1970.3274
-4.5566826,-74.37942,1864.0901
797.4605,503.46216,1065.8568
592.27264,467.10437,1063.1017
289.56796,481.99814,759.721
110.83236,744.2914,596.2901
182.30287,547.77673,79.76214
438.49942,254.77504,-412.42914
250.22614,684.07117,450.56686
9.548923,513.9588,1136.5564
63.484615,-27.726345,930.96173
175.21736,116.58702,684.70935
-148.58345,850.9307,1538.811
-327.6765,-682.4917,2305.7095
202.27965,-0.1942635,1288.5209
831.8677,407.6079,1031.3243
902.80334,94.483864,1248.4808
682.95105,470.8299,770.84753
317.0278,557.8492,784.2307
119.814514,176.4469,906.33057
120.27685,-92.59785,879.4739
150.76367,267.81055,815.9357
71.026535,239.63313,846.795
125.11399,-44.25659,855.12244
238.47014,178.77155,794.4892
213.2338,250.54991,743.4893
114.51539,71.87733,737.1248
391.0676,148.07324,704.92035
611.5264,210.38242,750.73474
719.8212,84.54604,572.30865
939.1397,-160.59703,613.7969
1064.4835,-128.90402,836.3033
1152.8989,-290.5668,820.72986
1028.1909,-589.35187,679.4599
881.1328,-375.6102,728.79285
684.0057,-338.55112,752.65936
614.3548,-464.31598,696.4341
596.2829,-209.90741,622.30896
423.18204,-39.70581,748.485
230.14789,-278.3113,725.5127
377.9404,-214.36472,599.91125
436.9473,119.65069,701.62646
521.426,25.590643,775.6901
668.3956,-295.8843,906.8437
713.36017,-76.409225,919.1338
774.1038,320.56174,914.0713
720.9554,386.21912,711.26465
890.7052,404.00507,415.0151
955.269,185.03207,512.43665
1242.885,-99.1147,540.3382
1385.0042,-523.29626,440.7525
1021.6844,-925.344,500.51343
699.4909,-624.4032,531.6024
394.91977,-265.92072,440.47156
198.98376,-279.44495,421.40225
-154.03072,-271.19818,434.66754
-771.6992,-108.39955,726.06525
-933.94904,-68.777245,693.12805
-1020.32117,-185.35255,671.4609
-1183.2135,-154.88356,896.6534
-931.7414,-462.25903,940.50055
-523.6667,-561.2673,785.82983
-417.88953,-432.4213,728.02344
-486.92795,-118.79198,685.67615
-539.1055,-98.38343,706.0046
-623.6825,-294.72107,698.993
-812.64667,-70.57877,637.2358
-893.13824,140.01619,730.38354
-1014.7633,578.1559,823.9205
-1016.0798,363.78015,859.8546
-968.2815,137.02882,756.5628
-893.7397,-204.1974,583.33673
-1008.7971,-177.55177,709.7475
-763.692,-153.89226,660.0773
-713.5394,-19.42986,454.25278
-760.4089,390.2784,412.8372
-751.6701,443.65906,533.7052
-782.14606,390.26523,464.1613
-895.22455,262.078,585.5973
-858.4298,119.339905,600.05914
-828.9444,223.20496,690.7574
-621.3393,260.95325,869.86096
-671.502,265.20068,815.7955
-877.99854,114.081314,665.4236
-950.5063,-79.27392,738.94434
-910.7519,-110.18155,838.59
-806.17755,-135.13101,662.59
-838.0055,134.72519,515.945
-934.0193,358.47202,620.0212
-897.3104,395.71262,728.7537
-950.8581,696.4226,695.0215
-756.51434,791.5607,580.9652
-429.6509,465.86044,560.8317
-41.742672,314.16336,440.48383
276.6068,446.34546,267.38736
432.50647,763.34625,182.028
389.16644,919.60736,393.05798
126.70571,262.64728,643.6533
119.91405,76.36088,629.2209
133.15933,262.88538,566.0035
51.219986,68.7712,676.4237
-64.142296,389.78708,825.8081
-129.63556,509.26913,1094.159
-784.88153,1077.0739,1354.0266
-1337.4819,1099.4187,1494.753
-887.14746,310.45932,1264.7131
-727.3405,338.42062,898.0182
-321.31198,274.22028,660.75635
-205.37167,228.72307,453.5764
-346.8653,456.3241,518.1627
-416.71313,765.3486,798.2513
-228.48402,381.2021,511.2856
-246.52715,519.04425,412.8574
-346.04456,361.05313,600.79816
-454.91382,223.097,750.4225
-424.9909,264.95377,767.1994
-425.33047,534.54016,842.81464
-287.26938,195.13728,750.5601
-349.3123,322.0206,986.5096
-637.1629,57.0252,1475.9255
-706.2755,-38.872437,1556.2477
-639.2133,86.30858,1111.7537
-565.0991,395.8443,726.0521
-409.09903,404.67075,529.3735
-366.13782,437.74347,559.8715
-250.27147,304.39246,473.0403
-77.493195,218.9288,424.2464
-109.29183,537.84644,678.98315
44.268982,210.07182,826.3069
-112.53247,8.989042,1059.4662
-493.60757,211.03313,1061.208
-606.2793,571.0837,647.93524
-1006.28894,728.53467,793.5388
-1196.0754,176.84074,1184.3975
-936.5851,53.763275,1340.6554
-572.4549,275.89557,991.1056
-336.02283,405.99377,775.70233
-318.3637,428.5908,732.3828
-328.78735,514.03345,695.31696
-284.7635,419.55762,513.246
-239.96275,268.8905,405.4284
-270.04266,374.36203,562.13947
-255.28618,497.59952,880.34534
-235.09067,549.3303,1131.9379
-273.43307,356.0392,1198.2058
-403.34848,262.62082,1189.7926
-470.69562,331.9621,1038.2842
-375.26324,348.99188,765.0241
-342.05838,372.01477,642.145
-271.76733,376.1393,580.84906
-205.25241,516.1939,564.55536
-42.210682,633.39307,466.19867
14.326939,676.72186,518.15234
-34.78421,522.7659,640.41833
-461.5998,402.52914,1061.471
-884.7833,503.3173,1216.5623
-1198.6609,630.39374,1006.8428
-1197.798,539.2291,902.74994
-993.23627,222.43309,873.1155
-773.9615,112.060135,728.6376
-564.94635,408.89395,613.54517
-432.25748,777.81366,611.0621
-255.17926,658.9229,564.9894
-188.73509,337.51962,547.1159
-195.44232,135.22177,588.7813
-305.23938,299.45074,600.73315
-517.8787,658.95593,682.1675
-536.87,463.22025,489.84164
-711.49097,563.8736,521.8407
-906.399,471.4448,906.0415
-706.3556,337.7011,1159.685
-399.178,113.271484,1166.4316
-313.94113,103.070816,1098.3469
-407.31854,282.89474,1193.4656
-408.37152,204.65378,1063.3156
-336.70242,251.1349,795.228
-300.48688,446.60962,568.35834
-244.42448,491.849,450.4265
-306.9839,492.623,623.0138
-341.6504,306.92697,792.7843
-372.01288,277.8325,824.46643
-275.38483,289.61105,661.60645
-466.0171,590.6524,816.21136
-415.20547,505.6015,857.3404
-310.74924,547.4194,851.4152
-221.49017,649.2502,928.00433
-418.32785,477.52686,1352.5431
-587.165,176.99571,1461.1091
-471.6828,358.57376,1035.543
-336.73648,433.163,578.274
-338.85904,659.9451,507.92752
-440.43695,472.408,642.18933
-470.76575,392.0568,747.74554
-470.8607,306.96286,844.8911
-413.55856,457.35352,751.6693
-365.2987,450.85632,746.4158
-454.125,310.66296,991.6088
-399.2877,277.58945,1015.3171
-183.69064,484.6298,808.48267
-98.19155,373.45227,904.44476
20.520576,296.5192,1057.4631
-175.62988,240.01462,1053.8905
-313.4682,350.79984,982.7782
-327.28848,329.3537,927.1021
-317.48822,391.9464,787.9909
-290.93564,333.06628,813.4379
-296.39807,327.1338,818.76135
-374.73053,295.55457,908.5164
-577.1076,399.05325,909.9683
-443.68045,488.06808,668.69635
-207.5097,517.4124,760.58344
-66.596924,262.01315,777.9414
62.06992,420.22028,613.65314
360.26044,-29.366695,1087.361
654.88586,-90.12942,1287.179
606.40533,230.3267,1119.3854
320.5426,245.26074,1102.7566
181.49982,277.38263,1038.553
217.28287,207.9138,928.74426
337.05093,-47.43424,824.40106
295.50275,-108.463745,991.8889
136.35406,60.721455,964.8597
18.967403,92.03206,921.9571
19.336355,29.934624,886.5731
41.576717,-64.799416,928.116
243.49016,-60.57743,999.63983
425.391,22.724586,1084.6516
609.123,-185.1535,1084.0267
509.5694,-221.10594,1092.1465
412.02017,-39.285732,1102.3595
297.56732,-276.2061,1204.4895
508.82498,-247.58978,874.79553
504.25397,-56.890324,873.2929
683.98346,-521.72906,605.9658
876.2125,56.99351,801.4368
610.2854,178.40138,717.99603
611.4932,-8.7715845,504.23843
473.1221,-37.41465,511.32776
331.45557,-114.810776,530.764
153.41034,-188.12292,596.8524
33.563625,-212.85374,681.7778
-106.840225,-189.93445,765.2379
-198.92177,142.53787,782.65674
-169.99033,-61.540016,745.69403
-190.92548,-173.64688,643.5673
-430.00064,-362.0202,595.56696
-512.42566,-214.42712,611.2659
-567.5277,-98.64247,619.72754
-626.7081,333.73813,727.65405
-515.62836,564.8742,789.8421
-698.7188,660.6076,904.3527
-1010.1545,-48.336082,921.1069
-1075.6304,-17.451683,1062.3885
-1010.76294,-78.50707,946.20544
-1086.2543,674.9895,941.0013
-1081.5128,1191.9695,1289.7921
-738.7347,-482.91602,1119.5986
-618.93494,-401.9855,725.7162
-628.43854,-62.390347,505.86392
-896.8769,-266.213,487.7088
-898.7906,987.8249,1000.37775
-421.70886,50.927586,918.6413
-576.8113,-172.00243,767.7084
-621.28516,153.14288,879.73456
-610.2836,-124.37236,813.22174
-616.9478,-75.33362,646.7804
-681.1073,-113.03012,628.78064
-726.667,81.57835,745.95795
-649.1765,-48.679443,743.61383
-564.4282,-21.276129,777.09503
-567.8272,44.099495,732.3428
-575.2155,393.19275,829.2824
-518.6044,289.6498,892.49744
-391.4669,72.346985,827.809
-204.1474,156.1578,571.874
-133.69041,308.70587,509.61835
-29.975157,540.99713,406.15228
34.713665,516.94836,273.70224
-64.96575,528.43286,318.5266
-240.17122,403.91895,601.1801
-384.99698,253.57909,1077.4205
-341.48657,66.55324,1117.6874
-640.4045,267.15073,1173.0494
-1191.2902,341.28455,1438.2646
-1259.2231,51.353043,1218.9187
-909.5616,188.84073,1022.91425
-745.53076,288.26855,914.2304
-588.13385,236.3666,847.8579
-454.9533,270.0991,692.19934
-304.59183,316.2771,546.5888
-222.96318,423.81442,477.76123
-246.05376,333.73486,464.06558
-335.1621,268.65155,536.42175
-531.14386,55.13846,755.7126
-690.86523,347.58072,1068.542
-638.65173,308.28207,982.2599
-571.5216,268.8895,869.57916
-563.12256,318.9435,907.0902
-300.81274,418.94775,953.4192
-110.36568,542.76984,1133.0529
-56.55361,401.08627,1095.9253
-99.1877,474.62918,976.8134
-147.27846,567.77124,700.9424
-168.23189,350.569,560.6067
-262.7659,299.34186,585.7879
-381.5887,213.18625,713.4952
-415.09866,119.69333,720.88965
-375.12268,108.32625,661.1647
-572.7219,560.5348,719.3188
-453.82007,312.75662,826.95776
-383.59192,327.7554,546.6986
-462.88715,509.787,540.83936
-539.3985,214.61375,612.31256
-786.30316,232.64232,871.39905
-1036.3628,-55.748714,1385.2238
-1095.3151,-60.24551,1394.9502
-1011.1288,33.2205,1111.9607
-942.1364,208.01823,883.48566
-880.1468,410.48804,734.9652
-554.7989,350.42545,701.97406
-478.24753,363.90787,851.9696
-324.4213,147.75461,685.7972
-427.416,475.7147,667.66766
-284.77136,378.60318,508.77658
-70.3322,494.58282,368.34872
-1.435063,528.2401,374.5784
-92.1545,853.2609,605.7494
58.460938,422.65814,592.31934
-67.38717,269.91516,780.4622
-150.70705,245.20244,1047.2286
-485.46686,588.6552,1440.1085
-691.51,18.074867,1592.7764
-726.4259,-145.30038,1533.149
-458.14792,-206.4223,1261.4053
-263.44342,109.14819,850.55414
4.3983803,-79.11935,511.93646
-503.86646,831.0815,876.6641
-269.0661,689.4475,950.0929
-795.0502,864.7427,799.1827
-868.7459,-139.61316,777.19604
-438.83023,-212.96857,703.7104
-311.80908,484.59717,1021.53394
27.995712,185.26443,736.3981
-36.8691,780.5198,626.5095
-0.6658605,300.39413,812.3347
67.6646,547.7582,569.1066
875.4381,820.9232,-78.845695
795.7417,422.00848,1296.0026
673.1876,-767.4478,1188.2185
510.19675,411.66095,545.25287
45.34766,962.06287,945.9212
-463.08795,-361.62003,1508.4415
-315.26605,-135.78119,968.90045
-35.871445,-18.027777,404.2769
-240.1276,1362.8754,319.7246
-93.67304,487.1463,589.14124
-93.40798,240.38129,166.72482
-293.0465,1545.3829,927.21857
-176.06897,4.1765428,966.1932
-319.56348,405.52908,871.6696
-309.13193,473.73877,1214.5474
-449.2932,568.17236,1247.5496
-451.0807,344.83398,1323.4923
-445.57956,146.34027,1333.827
-466.79868,-80.36256,1274.9152
-548.2637,148.85606,1060.95
-481.71606,181.72237,852.7039
-404.24847,226.92944,679.991
-354.02234,214.67606,673.0697
-200.95105,319.53372,569.15985
-68.4937,231.09348,490.68527
-131.06596,332.53278,470.9893
-193.08176,343.15518,385.1501
-452.6638,599.2123,580.29443
-1033.4264,797.12573,641.48956
-1124.44,942.8197,379.37582
-1462.2347,719.2299,437.23645
-1534.4158,582.6991,607.80786
-1156.5566,370.31027,674.9208
-758.8411,150.93996,590.30804
-498.67517,208.83597,501.91553
-410.4138,163.21165,317.62534
-418.02985,335.3859,310.92642
-462.93945,506.23462,287.74503
-518.77936,533.62006,449.59784
-477.28577,480.60822,521.54614
-741.2387,498.47333,495.98743
-1415.6118,696.5272,704.7738
-1123.934,845.255,844.1506
-1056.4043,762.802,600.433
-811.95294,495.06656,723.2534
-625.1328,689.56866,639.1082
-687.39526,177.27391,476.23447
-579.296,156.05263,404.41953
-528.02356,460.542,452.21188
-435.46408,268.406,421.45682
-509.2091,406.12115,510.91754
-426.8196,116.40771,441.7705
-634.9476,457.99222,598.4803
-475.46484,26.05244,415.8669
-1118.9553,1004.023,1369.444
-1236.9968,773.8215,2380.3745
-809.8861,511.949,-123.76224
-1497.0902,1478.124,30.220684
-854.7007,-182.45389,100.214386
-418.34293,405.5671,195.8528
-411.42963,-202.66817,503.71423
-571.05786,399.23434,756.81775
-465.70334,362.30084,705.1426
-417.0982,354.86502,767.04065
-465.27548,248.20866,849.0425
-509.04684,405.5704,813.91895
-609.6026,698.19037,755.9023
-808.2699,888.12427,569.3174
-671.41174,388.19705,465.8092
-774.3688,320.72375,624.6679
-688.2052,563.9425,865.4862
-524.95526,567.83215,531.176
-573.57117,617.64935,535.4725
-444.18365,342.65643,599.6688
-429.9309,99.76116,598.605
-292.34445,50.30586,1068.6123
-286.05978,124.48852,1208.243
-325.6184,229.60533,1026.3647
-426.50287,202.35286,758.8741
-435.57596,413.8195,640.9317
-445.34946,180.13644,923.7099
-516.13995,37.94833,1095.2847
-337.78894,175.96146,909.0763
-410.8732,298.55914,910.60645
-179.55916,261.22055,892.22205
-232.46523,437.55646,871.5874
-63.15974,527.0635,720.6805
3.3223028,336.32657,964.16547
58.48364,277.35022,1343.5806
127.238686,328.11682,1166.1279
122.841354,185.34969,914.58795
-8.473546,260.04166,871.94403
-42.954395,161.65047,411.20023
-302.4032,1372.2153,345.04678
-175.2104,486.10782,880.8121
-267.16766,-233.95955,1490.7162
-121.98085,28.352398,1101.7079
-125.58087,380.18604,658.1296
-236.72313,568.4467,783.91455
-201.37277,348.67102,972.74274
-105.33264,317.0816,1098.3466
-45.991314,439.45557,902.8207
141.02155,630.966,1030.9786
194.91183,82.40682,1124.0875
-29.401175,41.72241,805.4556
-177.4526,162.83029,987.9172
-174.62814,109.21878,1012.4154
-112.505424,140.777,1035.0153
7.5478234,172.04291,1023.30084
-34.7511,412.11362,1031.3175
18.208553,340.85452,892.8983
37.631157,331.5964,661.42456
162.51016,314.59012,460.6671
382.76996,111.66647,178.70717
577.69617,874.64557,-114.79976
401.95462,1131.1119,29.953827
203.60197,1081.9109,321.86127
-154.71486,674.15564,644.7373
-170.24538,-64.95425,860.3858
-157.93303,-116.425545,923.3622
-74.024,-375.05878,853.7601
-358.3356,77.465775,795.9655
-966.7467,952.808,798.0956
-1137.2334,1028.9912,975.048
-1441.8499,96.383606,1762.707
-1403.2698,86.02463,2295.2185
-620.1674,107.51532,1151.1108
-180.83022,125.89307,572.1712
-92.13002,317.9102,450.51385
-259.41388,499.24136,636.3557
-361.37518,685.5896,776.6051
-334.36234,436.81107,761.4735
-274.60083,551.81226,426.3105
-230.89633,627.6051,368.27066
-153.64613,811.07153,362.40247
-111.738945,386.44666,452.65237
-209.93588,640.4141,830.17706
-1067.2928,-48.81644,2420.3022
-740.405,-1492.3724,2431.3628
-222.24779,37.737522,819.8172
-277.32407,507.7066,736.22266
-543.01117,706.7923,986.88086
-303.42844,-51.192234,1041.6465
-205.53737,110.33322,811.68463
-77.497635,300.27246,588.70447
-38.821598,649.96185,413.7359
156.62036,422.63583,358.65768
249.08597,597.5255,126.21542
451.9287,812.7879,128.96632
367.94412,522.36566,165.8179
225.02286,1045.2408,911.30255
232.85706,93.581314,1099.9504
-246.29355,443.4998,1237.0255
-438.8167,852.0452,1327.9757
-695.7834,638.7125,1322.9539
-759.5546,-116.78996,1385.3489
-503.5104,-576.18427,975.5381
-454.52728,-23.654665,727.8883
-579.2355,387.10226,673.9703
-548.65314,379.5095,634.8248
-426.51968,110.264626,428.5215
-720.274,432.2748,525.7499
-628.8565,1050.0536,867.878
-294.59406,339.51782,687.2139
-519.5116,779.534,984.1865
-336.65466,-618.5658,2034.65
237.27014,89.448425,1439.9698
465.7335,653.42847,904.85956
441.83426,136.33243,746.8556
258.14142,494.09424,576.2751
223.59523,510.451,411.09085
210.46317,705.44104,269.76202
153.18993,623.6287,394.18268
107.2311,500.9736,531.29694
190.19615,283.9756,659.8055
-81.02484,495.5243,875.3063
-66.69357,256.5724,820.1063
-192.54752,646.9705,872.8162
-588.5974,561.9601,1246.8511
-682.0376,-251.36707,1564.8086
-459.8248,-263.11102,1449.0548
-723.4885,230.70148,1111.8323
-680.33307,765.37396,1416.9873
-376.78442,306.3492,1051.3359
-377.17142,153.33907,575.94135
-179.67023,378.38495,617.4499
-235.15308,574.7954,700.56744
-161.08292,432.79886,674.97565
-281.13864,511.69684,541.62103
-283.48572,627.1295,527.4227
-407.655,539.6441,614.9795
-520.468,628.7541,856.75714
-836.74164,398.16656,1195.8204
-595.3623,-663.63306,1376.9125
-157.80368,-488.16272,1483.4896
304.94418,423.22513,1250.0886
251.92775,302.587,1284.2443
57.743305,69.71513,1184.0682
-1.6049912,300.94647,906.0518
196.0233,645.36035,499.28836
373.35995,519.23755,203.62704
428.46988,497.34656,92.231384
448.79205,291.67432,100.90751
395.94733,361.89496,268.65604
255.27351,573.6527,350.33566
165.12634,515.2994,436.08258
8.042033,647.9657,607.5811
-100.61741,472.12888,1050.4812
-163.10541,191.95251,1595.6481
74.45795,446.93753,1439.5508
97.24527,486.45697,1196.5021
-58.12381,591.78723,1351.0466
-161.60533,269.8124,1441.5548
-89.62482,368.7593,1211.0541
8.842531,406.80823,1184.5089
125.92117,297.17355,1073.1809
146.14842,254.04419,882.7156
-0.5675755,479.23535,793.90454
-123.77611,290.02933,766.2334
-355.4517,201.90909,731.7244
-563.9483,543.9721,802.95746
-469.6835,351.9644,622.9178
-368.07938,157.11534,534.7828
-544.27405,-78.09286,323.1589
-673.0227,-157.07487,408.96014
-853.99066,-19.231949,709.57715
-734.7824,2.8155599,721.7654
-621.18994,-210.33664,627.0311
-962.3861,-89.81016,568.0395
-992.4408,71.96056,629.44293
-967.5052,-7.371317,632.38007
-846.52747,145.83704,731.1842
-711.97217,324.9136,846.3241
-815.1333,102.54513,579.692
-924.3525,-17.887936,361.93805
-956.62537,-439.2514,718.51874
-1034.0918,-725.97626,880.6573
-902.95154,-786.3253,882.0603
-986.2489,-568.0648,1136.7639
-724.2184,-657.63605,1000.76843
-672.0101,-534.43134,940.1707
-558.7663,-275.9225,710.9218
-596.2655,143.28069,646.939
-584.32074,576.3358,559.0977
-595.6669,526.7886,591.7873
-736.22205,112.52694,491.7009
-863.8842,113.99144,573.57574
-827.8222,185.60295,394.78653
-730.4737,721.65906,434.21875
-794.8583,112.424324,259.72495
-669.27484,949.6754,1498.3787
-607.77106,631.1491,1154.8615
-448.92258,329.7599,358.2262
-501.47604,525.1656,724.67126
-408.83737,-80.122055,542.24713
-512.07434,-273.20734,645.58026
-583.2228,-152.52979,717.96704
-532.35034,-440.20663,1023.5268
-571.0492,-598.3704,944.5895
-383.28052,-134.74438,876.73145
-303.82986,-347.4916,842.0035
-306.89874,-238.69122,767.0062
-279.1669,-197.02008,515.5091
-293.3024,-2.0457525,541.34766
-427.55322,194.86612,699.8451
-375.85873,425.42932,828.1135
-497.1424,332.11612,855.7342
-713.72015,333.15958,655.58716
-837.62524,225.84674,419.87366
-878.21106,215.47142,668.145
-947.99774,84.2008,665.6802
-952.8229,60.1781,640.8528
-946.8212,-49.665405,602.6347
-952.83496,-3.1672163,729.7021
-983.956,19.237467,840.91785
-864.0108,114.06444,881.92786
-707.56323,48.182552,721.009
-612.46967,191.80603,624.36
-628.8601,217.5018,582.3924
-667.7757,273.24362,579.4692
-731.13153,318.50214,528.5593
-632.3517,354.26117,358.61493
-551.49756,243.87817,287.18063
-727.63806,397.38916,579.6629
-679.5499,297.50284,654.27704
-621.53827,264.87042,641.70776
-441.42215,191.71855,570.69135
-490.80667,374.78174,722.5501
-492.80002,381.64822,678.3791
-492.9607,422.76987,731.7644
-609.9271,345.48093,802.9207
-690.7511,402.40247,884.3029
-689.30975,106.13011,1139.5278
-702.39874,-85.432945,1332.4977
-551.161,484.98007,900.2813
-598.17126,524.79517,462.61792
-847.89667,337.3154,589.9348
-687.1567,96.08744,908.23553
-380.41727,101.13635,948.7726
-99.86997,345.64404,880.2673
154.12195,422.47247,880.72437
174.56526,499.95157,838.12744
49.50238,250.19775,680.24347
-160.44554,233.47435,658.54034
-366.1034,301.92065,581.1131
-834.0885,392.60193,704.9726
-1169.1035,295.17862,728.5533
-1546.1823,377.14532,861.98254
-1643.9069,-50.840122,808.5396
-1255.5681,51.48249,659.86017
-828.2558,410.60965,633.6987
-519.63245,446.99884,733.608
-418.18555,285.3363,782.51715
-223.42107,175.3481,607.2611
-253.49158,321.039,611.3684
-328.7671,456.65424,659.3645
-214.08311,318.53418,471.95316
-374.18747,434.7223,526.0681
-460.79013,416.25912,614.62006
-472.58337,255.6057,690.81635
-631.32263,236.1289,805.71045
-856.46484,309.45438,859.8873
-830.56464,177.13736,756.3676
-1064.2441,197.62172,777.7837
-1235.9791,99.18358,885.72296
-1074.3043,118.81787,919.95276
-819.66516,179.92018,869.1416
-494.82745,201.63852,690.2287
-348.77997,393.64374,607.64453
-208.64923,459.6743,566.95557
-144.56328,312.3655,549.19116
-174.87675,345.981,653.88525
-172.65002,401.34628,718.08466
-196.32373,430.80417,800.30634
-309.14655,239.3249,795.0765
-797.206,253.29819,905.22394
-1539.1915,486.9649,930.6273
-1671.7202,398.77823,893.74976
-1340.8213,269.2045,802.6419
-1054.168,315.39996,755.34155
-490.80072,428.08777,479.6328
-288.21286,830.6379,576.31323
-392.88126,408.68762,877.3753
-256.51584,-28.582636,774.65424
-152.61885,114.22094,567.67786
-269.53857,312.75183,664.0703
-330.64096,444.12405,828.67163
-412.48462,453.61252,852.02484
-427.34995,633.8854,855.6157
-356.4536,484.01355,753.4895
-64.21988,639.098,837.421
65.82501,644.57043,1177.5272
58.329597,431.55734,1236.8667
192.62468,174.24706,843.4354
202.32706,132.11159,463.73837
-159.21423,515.6677,759.4155
-255.7232,522.9623,899.9239
-152.48717,443.82275,703.19446
-250.55171,668.1014,625.36273
-77.443405,576.2855,476.56915
133.77084,438.23572,311.38272
51.05025,508.73,571.2034
123.66722,253.04276,716.58044
-220.5246,777.45636,1185.9153
-684.0863,882.4726,1627.1351
-662.958,575.14185,1468.6113
-694.34735,496.47784,1341.9791
-469.74222,264.2087,1120.6223
-177.70087,102.11329,799.48505
-52.889656,218.54102,609.54736
-84.76255,370.9122,504.32083
-64.08797,433.94922,367.67947
-111.25327,523.4934,229.00674
-200.12709,751.5882,208.7603
-210.297,722.49603,187.57214
-241.02309,753.12744,376.38727
-307.2407,911.78845,814.8237
-191.27005,475.97375,1337.3707
-549.6794,557.0951,2035.331
-572.6594,165.69606,2217.538
-328.9512,-310.56625,1589.0525
-317.65308,-71.21426,1104.4674
-252.26935,179.50795,732.93884
-50.53991,450.28143,370.58524
103.82835,600.0009,106.42971
141.13261,583.1438,93.884125
206.26445,597.94714,44.886616
141.52562,672.13367,153.01051
98.0841,525.3954,293.9749
-223.16846,703.09973,658.1554
-321.42993,822.72266,681.419
-383.73526,1202.8744,741.8814
-375.64465,884.5213,995.02185
-669.7033,1286.5199,1190.9487
-860.9557,1505.9435,1104.4563
-504.99258,736.0667,792.26385
-263.30435,552.1936,663.2947
-73.677986,352.44022,656.1095
-78.73186,414.92245,645.0121
-59.080166,344.1417,569.8189
-122.155754,354.77396,512.8771
-65.94118,375.05106,469.84235
-86.54451,440.74588,507.47348
-227.08072,482.82782,667.9709
-263.30475,781.2933,791.1362
-245.72256,1233.0934,933.8578
-56.96753,695.6509,1206.9996
-43.363052,818.8662,1349.4059
-169.53394,683.2983,1017.343
-83.64114,592.6762,714.32245
-204.73347,498.54855,618.8457
-188.66862,537.6463,549.7343
-137.32112,388.28836,506.72205
-113.97929,578.5241,642.54224
-68.73407,535.50543,713.0815
24.77349,346.45883,709.75653
19.645037,272.90936,655.3032
-148.97298,491.179,758.59906
-220.72044,533.99347,721.77893
-412.79968,678.1119,684.09454
-805.641,827.816,740.79987
-918.491,919.7842,621.17175
-1099.5558,841.6288,738.2949
-927.2571,438.31808,632.4735
-839.2914,118.185814,551.5011
-1037.6389,485.86136,869.0159
-638.4497,348.67624,735.7814
-347.44763,206.67807,541.1609
-435.88766,450.8452,648.86505
-408.99805,420.06113,596.09125
-434.47165,250.5906,537.4902
-536.09186,457.04443,569.6584
-618.91907,381.88522,488.05695
-835.0082,437.837,555.4381
-1071.5195,314.07663,748.99365
-1184.0972,35.277603,1084.4045
-858.1111,-72.73972,1151.1903
-671.39777,225.11374,852.821
-479.10416,228.8204,584.50024
-398.24713,308.4147,531.50256
-346.7827,403.75223,614.79474
-362.55988,397.31104,615.703
-229.62148,110.1681,607.97363
-267.44824,5.062793,715.1041
-338.46198,135.48723,890.6352
-430.99338,-59.72937,874.2823
-806.9803,276.67383,915.0031
-1266.6185,379.59637,852.54004
-1609.418,377.96335,643.59924
-1656.4762,369.26788,681.8378
-1233.3046,-24.98853,690.3592
-849.94104,57.709747,731.68646
-640.5469,84.97867,654.9899
-521.3785,155.54054,704.12964
-487.11267,207.02173,840.9187
-418.20316,144.66486,853.1159
-463.62894,173.93944,773.9542
-492.38184,180.05537,447.8649
-552.0741,120.45949,202.08008
-520.8254,298.73267,-72.45188
-729.2288,830.75134,-4.3464894
-1054.5469,1363.1901,590.5628
-766.73785,958.5859,554.39575
-718.4568,592.55255,392.68613
-549.00104,289.05304,62.07146
-1027.3833,883.4801,413.99738
-1078.9744,1114.1038,640.2574
-484.48,312.70428,66.38984
-721.6552,537.5382,260.23413
-726.14465,537.095,399.1014
-854.2791,362.99466,258.584
-856.9133,320.40564,254.55702
-697.8393,441.53668,-18.837439
-624.78455,676.0386,-163.91678
-592.86536,898.613,-244.22173
-534.08966,688.59674,-204.95216
-904.4085,599.4342,-58.757896
-1159.3673,613.5068,-270.23532
-1678.5183,855.26776,-176.68466
-1216.1207,-300.5623,-105.378006
-949.986,381.30908,11.593815
-489.6962,1132.661,-99.16308
-538.2942,615.73596,93.853294
-628.9885,704.928,-8.476767
-665.428,616.3972,-50.972954
-855.8326,668.87067,-78.395996
-1082.511,329.12186,-103.89369
-973.3937,480.9492,-293.05255
-884.5127,724.60675,-190.58472
-633.49164,849.62994,-6.4064426
-535.44025,1041.5319,-90.58051
-600.7924,720.071,-50.22693
-702.0591,319.51535,7.6176615
-875.79443,305.50916,356.83994
-1083.7625,546.46564,235.58812
-1019.6005,-65.72317,314.67657
-1065.7448,-463.15967,358.4125
-1172.9689,117.2306,-117.26616
-1161.2863,-143.03372,-12.76836
-933.7788,-114.940704,3.0353267
-782.3042,296.89264,382.7931
-911.6586,155.4166,373.52667
-905.18744,-151.41788,386.9466
-863.9218,130.3523,412.11105
-808.82,-115.46799,406.6483
-882.4106,31.736258,432.4449
-692.88696,-520.8525,458.19623
-936.9308,-13.744722,411.56354
-1096.275,339.28317,318.46414
-1168.833,-229.28944,550.798
-991.6061,-20.377821,374.30588
-747.6281,51.354076,242.44075
-829.673,43.38224,463.10428
-944.5593,-3.092495,404.36316
-851.17505,20.621592,301.55554
-667.1548,-163.83022,587.9557
-666.9296,-82.70214,707.0892
-745.37805,-283.63644,850.68585
-658.9293,-172.899,642.195
-559.40076,-190.83432,870.88043
-585.7075,-370.78998,901.291
-484.04883,-232.44904,718.4482
-474.75916,-307.3749,797.87366
-482.01724,-243.04077,869.3456
-429.96655,-419.874,682.2618
-452.63864,-127.820946,876.3851
-323.01318,75.46074,1027.8951
-179.18925,-371.8797,763.76385
-238.58232,-1137.6257,565.16046
-522.1533,-902.8463,620.4233
-652.55304,-764.6627,626.83813
-722.4861,-710.34485,677.7634
-467.88763,-488.7684,290.50473
-864.21924,930.133,747.7168
-669.8436,-302.62552,909.38654
-657.0506,-272.14648,1033.7224
-627.6858,357.17877,1287.2146
-247.16034,293.05075,815.25867
-28.384491,301.992,747.11584
230.35156,643.634,654.8499
515.5455,350.26047,709.38635
607.8143,-64.70132,745.1159
712.66296,523.778,877.45593
667.3774,698.1539,946.50214
629.7195,724.64246,940.1335
309.8765,688.9778,1063.0284
-48.76528,826.0413,1051.4463
-194.92572,889.6507,1089.0139
-453.34097,1006.4692,1221.7472
-263.8821,706.59595,924.10974
-292.88916,830.03735,814.2021
-408.73154,824.054,821.2622
-354.183,430.4389,672.57416
-247.92995,118.51446,463.8998
-304.73737,69.73461,466.46957
-551.151,107.96273,687.64307
-971.16943,242.55766,1012.8698
-1252.5837,293.6827,1367.5076
-934.5576,35.182617,1113.8053
-650.1702,178.15265,737.84485
-535.99524,370.8168,632.6851
-537.6086,679.5244,733.3426
-488.496,789.7066,1012.1721
-209.82948,485.69864,1070.5322
-80.14776,493.12482,1089.8174
-70.34332,509.89114,965.2504
-163.65895,464.83447,840.9741
-215.18283,446.01147,720.42804
-244.39691,570.8493,634.5884
-208.55261,744.7548,547.8237
-110.631584,702.52795,463.49487
-70.331085,605.85254,480.30453
-44.24692,636.771,527.386
30.058908,590.9264,575.102
64.963135,662.4016,652.3037
122.5272,738.54663,713.37164
214.31274,777.2174,765.1463
81.897095,611.4638,889.13995
17.901316,845.2873,787.81537
-20.852652,902.45514,828.0362
-83.59245,978.3449,838.30914
-173.1285,1280.9166,799.65497
-150.20117,901.8692,698.67365
-158.0845,724.3951,628.2431
-44.937332,153.26036,749.6594
-13.620822,323.70273,621.74774
-15.407805,456.22592,183.73175
-563.38525,946.1069,393.15244
-1102.5312,1708.0521,682.20874
-606.3959,1080.0402,397.19427
-536.44855,541.16943,339.01755
-310.3168,231.13176,359.42978
-336.72885,453.32254,490.0301
-413.75836,611.01605,547.2284
-460.5765,728.81903,537.2907
-297.62732,480.72195,412.74786
-174.2555,297.9309,357.79028
-111.77152,316.45657,382.0659
-124.26043,562.4563,430.50616
-86.7254,915.58856,423.8104
36.769386,1179.8445,379.45465
280.12595,1145.8899,368.1064
462.8412,1049.7356,508.05603
645.98566,983.9658,756.4505
102.57367,1381.1095,1166.4592
-135.78876,1466.342,1130.1809
-68.41216,1084.5665,802.01953
-20.4978,798.87744,679.23126
31.364996,716.7775,579.86847
48.469143,581.30066,489.4552
91.355354,501.46674,444.6777
173.04266,452.8589,339.5313
310.57272,570.19916,249.31798
382.42773,531.2345,209.7631
478.79843,488.4666,87.62261
551.5932,13.973789,-19.896402
378.0768,158.14731,85.17777
-233.9538,844.60345,507.78485
-690.29095,1517.6051,767.315
-744.29834,1167.4124,723.1243
-847.3218,1216.1147,718.33673
-863.6187,963.89215,876.3024
-1342.1312,908.8701,1088.6515
-1092.6693,663.2173,854.1519
-845.996,446.41098,675.95013
-454.1533,376.57874,514.4729
-270.01074,478.40997,397.55768
-220.68794,756.46436,388.0893
-254.94434,681.33167,438.5928
-211.66835,561.593,438.17474
-190.4056,611.7929,365.6248
-242.18762,598.6768,291.53372
-482.03317,1010.49835,499.53775
-424.53604,789.5467,628.7614
-535.3296,514.9343,572.91974
-575.7262,502.2087,777.1324
-637.3831,468.60565,990.6719
-597.99316,210.90036,1590.9088
-396.4085,136.4331,1572.4098
-122.7149,644.2611,976.3223
-117.04449,466.30563,638.73804
-275.54807,397.44095,620.9369
-430.42566,311.08463,694.82544
-388.7657,215.92326,637.143
-391.42032,231.62558,563.1615
-384.56097,371.65375,534.62537
-400.46796,437.35144,481.73087
-416.60608,631.4495,610.21
-354.7269,659.756,698.1501
-184.01826,505.40753,664.4891
-115.367935,426.89395,774.7333
-236.71445,424.70663,871.4285
-572.83813,388.41263,861.46313
-1008.4742,324.9458,854.8693
-1509.0847,107.74687,953.5427
-1335.2051,58.797844,910.4176
-1043.358,151.62857,766.5156
-674.3952,297.4082,682.6443
-489.92734,264.88458,684.2262
-362.59543,252.28946,682.73553
-282.1721,379.93896,608.92505
-151.67169,421.01047,567.8984
-149.84941,539.4295,587.9588
-105.42188,475.32428,531.3682
-115.61985,502.92947,441.53955
-299.60382,467.8238,651.17926
-484.70667,251.65408,836.78656
-657.4728,305.85455,1002.38873
-829.5119,162.54596,1098.4639
-769.68414,347.63824,1137.0918
-599.4016,306.85443,1077.2074
-422.9786,404.04828,992.0028
-355.25894,344.88098,911.0152
-279.5508,399.61218,858.2334
-276.99417,390.20477,809.7037
-199.86221,467.29645,779.4299
-130.47475,392.741,709.1539
-30.392223,455.65076,627.4036
-89.646034,371.00046,597.3117
-90.3465,453.0924,694.35675
-201.87708,458.16257,772.1891
-361.14966,706.2502,855.67255
-714.35565,723.9201,1050.3605
-927.0781,612.38403,1048.936
-1156.9503,688.6545,933.37463
-914.17395,372.00992,670.3946
-669.5575,329.39154,465.43613
-418.96826,436.28043,323.08774
-314.74515,375.56613,275.5941
-324.0059,597.962,395.28656
-488.8223,612.18036,622.1956
-464.58414,267.63116,703.5704
-596.6463,234.36401,740.13513
-545.0185,261.54913,794.58234
-532.78955,204.95381,713.3166
-567.79865,417.76193,785.8949
-757.2124,444.25046,957.519
-730.6395,349.53568,910.605
-1044.1411,434.4781,1011.65027
-918.96643,250.01694,1181.6407
-789.3711,101.1788,1047.7
-494.3107,182.04457,913.6697
-442.7874,140.10533,780.28204
-225.63173,4.1146774,655.55096
-408.09103,-322.61038,616.9452
-356.3635,-142.91466,788.2559
-745.8466,179.7311,714.4907
-282.5198,279.92484,461.6745
-1411.4022,487.86163,892.2322
-703.13696,240.13957,-261.71017
-766.26044,892.112,202.78848
-1302.9003,1195.1501,296.07773
-570.46405,1121.6674,138.97646
-1008.1035,749.79724,-170.92358
-1035.1587,524.37756,169.26547
-994.8099,349.4605,594.02185
-446.45544,-246.08125,754.37604
-688.8746,55.97296,895.87714
-767.6345,201.311,932.719
-881.12195,73.03379,745.0054
-577.6425,137.28519,668.56256
-522.9024,158.7998,592.77966
-520.94073,99.61819,682.4217
-570.3303,-43.25349,644.8759
-592.7755,99.659424,689.9392
-743.5987,234.96922,639.93787
-652.15894,415.23972,631.47406
-551.4223,244.0768,693.7405
-423.7212,-119.82524,593.32086
-369.13467,-139.71541,824.16205
-350.47943,-220.13965,885.1076
-622.22485,-475.02292,686.3586
-569.05585,-413.79602,694.64343
-563.883,-631.27386,782.0868
-513.29706,-907.2287,804.7666
-469.9104,-488.85028,607.23914
-506.11765,-202.70802,538.4835
-478.37228,-503.95975,584.19183
-689.4131,-453.53204,759.08527
-702.9736,-244.42847,811.7049
-642.1231,-53.437042,785.10583
-732.78564,-139.83855,694.34595
-690.3323,-276.27014,592.58496
-778.5896,-135.31053,596.86926
-780.7986,-29.209541,597.3828
-824.6818,5.696918,639.013
-789.04364,-527.4812,575.4659
-993.515,-408.04056,576.6617
-988.2993,-511.95273,691.5314
-861.2896,-345.06204,693.27515
-896.4619,-395.44736,730.43134
-883.77094,-462.82504,632.5791
-780.4471,-178.9771,652.8616
-817.46967,-261.93295,612.2731
-510.05576,-101.467186,480.6394
-473.47192,20.594492,566.6706
-474.79388,25.52688,613.62646
-396.3434,47.29423,479.8715
-378.37064,-243.6073,421.67758
-490.3869,20.809937,299.34805
-635.003,565.9447,506.1214
-764.9101,82.887794,473.6424
-1024.8088,464.05618,652.42426
-1527.4719,1272.5583,878.78217
-1177.6445,548.43616,749.6052
-453.27438,528.11395,771.53784
210.12003,-96.99088,1409.933
-279.8126,-202.10257,1415.1642
-655.82947,5.3002234,829.2856
-532.68555,1.6662452,594.91785
-726.5089,254.84401,510.56104
-744.30316,214.40205,632.2292
-634.984,182.83495,657.5668
-655.5316,158.05229,685.62366
-637.8168,226.80026,655.3692
-461.6899,321.89157,738.02155
-392.9631,452.6266,849.9318
-259.25775,316.56714,880.0557
-29.236551,350.38373,765.51697
143.09708,556.97455,589.1472
105.044945,699.2803,446.6761
160.11041,837.0021,370.10153
117.57461,656.0288,243.2228
66.920334,473.90485,428.60013
-38.43059,253.99889,954.1885
-78.061066,251.89157,1103.3586
-548.8809,787.9274,1113.7781
-1022.0537,405.82834,1252.8821
-1057.5585,221.15065,1173.8934
-1136.6433,203.06285,1162.343
-840.0943,224.97816,1067.6792
-583.3876,262.62872,842.34076
-398.09818,245.21442,643.32324
-386.34988,385.86505,620.3141
-355.32983,418.19363,663.0428
-389.89166,398.62244,672.8668
-349.53226,331.1193,599.747
-504.2008,408.8678,640.39044
-467.31985,416.5784,737.38605
-436.0409,248.70895,777.0422
-288.6289,420.77393,563.0476
-236.84818,494.80023,609.0502
-314.17325,185.84982,899.7331
-458.7823,257.97256,1185.9451
-710.3322,206.01779,1427.1638
-743.6553,237.52884,1330.4762
-555.17065,184.9029,997.4491
-402.3723,260.7412,713.8116
-323.7167,331.2146,638.3748
-267.08536,364.01965,597.64044
-208.03831,390.7084,598.57
-207.86101,407.3905,627.08966
-251.50772,390.17435,697.7664
-310.6849,327.68915,785.4034
-331.6167,292.38098,797.76117
-415.1096,402.52536,822.27167
-555.18024,394.2745,886.69794
-766.9125,469.70636,938.3219
-1017.6907,447.6086,1048.8186
-1052.4111,301.7181,1079.0164
-846.10394,247.98491,949.1426
-587.0966,347.47107,762.92084
-417.95517,333.89804,628.3274
-369.32343,332.02924,576.1644
-372.33447,443.41718,567.6731
-381.8168,410.5322,555.12964
-441.74875,371.50745,572.0019
-530.2252,441.21985,624.47095
-529.79706,358.53802,680.26575
-546.87274,364.1475,719.8192
-507.68863,405.8557,840.68665
-400.2234,307.99652,973.7341
-279.17715,319.567,1100.5544
-94.56676,338.46347,1139.9458
-77.73124,268.18866,1120.3989
-264.68588,318.55692,1152.4342
-401.5173,343.9673,1018.02136
-316.82065,392.80203,749.74585
-221.04985,387.3491,618.2681
-176.83015,410.80792,508.18015
-101.13261,388.70013,454.6885
-236.25043,622.15497,585.5885
-229.84131,647.9468,796.78046
-156.18387,368.2257,695.1953
-202.11975,477.88046,747.97876
-290.6563,487.5645,788.28406
-450.5852,594.0523,854.7884
-618.6089,715.0508,984.0293
-787.6984,588.24713,1239.6742
-857.72565,403.32104,1368.1783
-770.6723,239.92488,1253.1897
-500.3247,236.0191,1009.46844
-240.39629,271.49957,764.09344
41.181526,283.2942,526.957
152.14943,426.83447,348.20978
174.08107,566.59674,163.09334
131.60558,758.7344,141.09279
14.090076,886.9796,226.5929
1.6169745,850.4999,402.14462
49.345997,779.9031,557.8532
57.46671,712.82904,730.05774
6.3901715,819.3628,769.98914
-342.8232,800.26794,1179.7834
-818.0736,-82.51408,1849.3333
-571.87103,19.11013,1537.9443
-271.34515,387.2676,945.7514
-158.86491,548.6825,609.11255
-132.12086,634.29114,428.39444
71.67298,691.0276,233.92924
378.13104,977.033,64.64644
524.89825,951.747,307.41788
293.58145,642.46405,566.75446
258.92017,187.68643,780.1442
-215.6693,593.77246,967.26685
-887.4588,1058.7294,811.9377
-1216.197,612.00256,724.92554
-1068.4585,38.074284,693.50085
-972.7356,15.573879,512.84375
-945.15497,227.53963,352.1296
-756.2383,260.11734,322.34476
-664.6214,316.55115,275.11636
-436.06073,279.39594,134.04378
-419.22504,245.1084,64.70653
-728.16907,186.47377,26.876715
-1352.624,256.50443,-92.337845
-2446.2258,564.32104,120.67294
-2412.5347,810.2243,676.53253
-1490.8999,530.2707,686.13336
-1052.9971,520.6222,485.64752
-1150.4004,578.9929,241.81563
-939.4752,360.2909,58.755157
-783.7187,134.81343,170.88332
-725.68494,142.75975,317.7799
-611.7194,215.13289,378.14026
-561.0545,368.238,382.13217
-474.26672,530.02637,306.4493
-454.63486,592.3491,164.6206
-508.63132,737.87195,141.31578
-958.383,871.62714,151.09966
-1743.2064,898.32605,-85.31666
-2347.5896,553.98315,-3.1715133
-2494.8892,-194.2828,145.32611
-2370.1003,-72.76682,287.13574
-2195.7893,226.56229,257.62375
-1749.3167,617.04517,63.188545
-1265.5386,753.58905,97.52514
-1183.1272,625.8714,118.93294
-995.9033,400.74872,57.45925
-880.59265,136.07304,33.79405
-764.2035,-86.21119,78.74249
-732.74347,-185.54497,107.38819
-726.30084,-182.08609,119.30204
-842.2008,-61.353416,74.23906
-702.29553,93.74659,69.61265
-627.06616,238.13045,174.07242
-652.00116,368.20032,413.7481
-779.9192,452.19623,555.3019
-906.30585,290.5115,435.1141
-1162.223,-25.1545,284.6565
-1475.5793,-219.3277,300.00797
-1854.5591,-64.922455,197.58144
-1927.3878,520.847,150.24237
-1504.2052,917.7051,207.00394
-1089.3403,739.63617,65.54127
-998.0022,676.45044,2.0360048
-1057.118,674.05554,-37.477207
-941.386,667.88007,34.79491
-842.5005,563.9125,148.02379
-820.4334,416.9937,247.70119
-888.9265,388.30225,243.10542
-992.37146,384.9004,208.59375
-955.7037,373.84448,138.23064
-962.65686,356.34106,103.509026
-1084.7667,367.65018,121.95651
-1250.9668,426.43832,120.784805
-1357.3016,476.15076,136.41435
-1358.2628,467.88638,144.24435
-1346.5247,402.8468,113.95696
-1415.9296,340.47226,121.496086
-1365.4733,254.45432,138.42062
-1230.8546,159.32361,100.944984
-1071.4946,135.66422,101.43924
-966.36035,219.45435,89.15133
-831.56604,228.2369,45.94907
-655.3586,155.62201,-178.31573
-497.26056,372.59967,-593.9799
-372.47345,873.72064,-733.14874
-296.50314,1048.351,-595.8918
-215.73007,564.15063,-519.408
-245.50858,298.0624,-610.0345
-258.06537,536.1285,-697.069
-237.4735,725.48517,-859.19934
-197.95728,663.906,-847.0407
-194.43146,573.64014,-979.7281
-225.754,620.30304,-1045.5159
-192.84383,631.63617,-992.4541
-131.68927,561.4426,-932.7851
-68.92975,539.7305,-822.42615
15.185905,538.27954,-726.6315
86.510735,505.57355,-731.53284
92.83428,596.14197,-751.08966
125.7058,619.64935,-831.47876
111.10774,626.7626,-900.77704
99.97834,615.30334,-920.86224
70.235634,572.6641,-925.3281
56.7544,564.4232,-926.51074
19.251942,543.21674,-878.70215
-1.4995235,524.07886,-836.3468
-14.673575,511.87204,-811.15155
-25.930365,551.70654,-773.8464
-30.528988,554.3872,-719.2668
-25.798813,585.46466,-707.68616
-15.253737,516.4158,-679.7599
34.291668,507.04306,-678.402
57.41106,538.68756,-620.36194
128.19405,584.549,-663.70465
235.59418,426.81314,-715.4819
295.49734,588.02924,-973.51044
221.27682,1235.8672,-1349.303
291.77417,950.5716,-1939.1403
494.15735,666.7207,-1792.7014
480.34045,585.05524,-1137.4867
308.92114,382.1087,-641.0826
178.46939,265.4206,-198.6929
165.90369,250.84021,220.643
232.59033,240.96227,381.01846
581.59845,563.9411,-167.649
631.21106,840.96216,-659.84686
637.5359,952.0612,-853.1347
686.84015,787.06976,-714.80426
562.59186,587.49664,-437.5523
494.9325,269.85913,-298.05374
498.83386,-6.816806,-113.19465
504.13074,121.79823,-86.41636
534.0304,474.73004,-479.15445
601.52216,713.5586,-798.462
628.8979,780.5462,-909.4493
693.6494,795.00836,-641.9398
608.46027,763.6649,-447.95566
597.9477,702.7898,-261.9279
495.10657,588.9688,-60.88378
505.18054,356.7146,-59.19564
382.1841,232.94734,-197.0709
197.90495,542.699,-210.90703
-184.50084,954.29004,-80.42582
-456.48074,868.9045,59.3096
-651.6618,123.84118,375.23935
-841.75494,32.5022,684.5013
-863.962,167.30304,522.17615
-1139.1093,321.1876,251.30705
-1435.0173,430.51318,-11.817392
-1792.2788,714.69666,10.763523
-1698.5314,653.0408,-126.04196
-1166.0767,814.263,329.64453
-1096.8618,1095.5604,936.57983
-969.44727,813.8441,451.72464
-961.9978,549.53107,39.08715
-914.16345,291.66476,-6.560881
-951.9957,177.3634,96.756004
-985.19574,143.57484,209.84663
-1041.9196,140.11984,239.0972
-967.29535,210.86954,144.733
-1028.6954,285.0493,89.016304
-914.42194,323.7196,13.819353
-934.22,424.5651,-1.382801
-839.76807,447.3126,-17.802147
