# PAMAP2 dataset (wrist-mounted sensor)

acc_x[mg],acc_y[mg],acc_z[mg]
-544.9485,530.02466,429.0994
-1501.044,281.83798,304.8604
-1222.2985,489.63132,440.16837
-1209.6819,487.23502,432.8018
-1067.8634,474.52023,389.0268
-1110.2188,138.06021,98.41087
-1142.4016,286.97122,66.98052
-1049.8293,280.609,-300.80252
-898.3154,792.7724,-106.79705
-727.1878,732.6617,77.20915
-652.80664,465.5946,-23.053185
-676.69104,546.3786,69.75769
-635.5607,321.7651,-24.905485
-584.3965,318.99332,64.29507
-580.0811,178.89137,85.244965
-569.05725,295.6761,255.75766
-572.96484,304.2108,265.3418
-484.5199,550.9922,273.14426
-637.2868,281.38712,-73.5118
-530.05505,599.23254,-114.76497
-746.13184,604.0252,-13.846336
-645.51886,614.049,-55.27753
-1154.1144,699.0591,33.70892
-1667.2222,910.0781,-150.43954
-2523.6318,1349.4796,-503.96692
-2114.0105,790.11487,-520.29895
-1336.0072,390.56036,-287.98215
-1069.5076,587.39655,-252.64104
-635.3393,766.4284,-198.36269
-429.9157,646.52893,-179.49959
-242.0655,419.0306,-186.16714
-271.27985,195.69402,-150.98756
-244.37903,368.7258,-165.12175
-384.94562,639.5076,-277.32474
-509.06647,775.57947,-358.4228
-637.3112,778.8484,-400.4889
-583.0499,871.2955,-444.65085
-374.636,624.0319,-363.12955
-61.925175,439.76627,-418.84927
123.522125,614.0153,-391.87085
254.34802,871.8576,-296.0557
372.8549,748.06525,-287.32074
520.0731,703.7986,-295.39423
587.1367,1081.7766,-493.04437
428.45764,1764.4996,-513.11
274.66946,1889.9282,-547.56866
177.92189,1392.1116,-231.95099
86.04087,1006.21844,34.593822
109.05776,735.77466,148.8048
137.22437,601.1897,54.114403
191.08124,552.5215,55.504166
192.01411,732.3487,26.214966
208.79753,968.5299,-143.12103
152.95564,959.3209,-131.55711
64.96804,710.87933,-0.4643728
-4.7453384,616.9185,46.402454
-48.28612,369.6626,160.07666
-70.69007,444.9274,140.84348
-92.409035,716.5419,151.7023
-59.937386,984.6773,-11.509044
-138.24199,1094.7642,-279.93506
-342.33914,1446.3728,-354.1957
-320.6752,1735.8107,-334.28735
-376.34424,1912.4875,-407.1421
-235.36403,1831.5787,-262.7137
85.68282,1458.7169,-31.9227
193.78117,1327.7875,187.77902
107.66004,1118.9504,265.00784
83.24862,828.4712,200.66191
47.075115,572.0291,166.38326
-38.477333,552.06036,224.86075
-126.620125,504.5722,300.36307
-225.33244,607.7825,359.2199
-313.5836,697.20044,366.5579
-366.43234,781.79114,357.0494
-263.2777,597.3312,263.17035
-191.13365,607.47314,236.11205
-93.148544,647.7415,160.6403
-31.348946,868.15155,150.68106
34.984615,923.25903,164.74023
73.459435,1093.5166,344.7094
242.75642,873.2594,508.05084
131.47827,1364.7966,905.54553
188.7241,2094.9639,1410.905
126.69622,-676.2904,1331.2332
3.0613089,478.9047,1216.0703
-190.5952,675.73663,1104.7698
-395.52664,321.9847,779.1891
-339.62283,230.4294,478.1013
-340.72162,618.5151,408.92462
-179.06564,508.33716,327.633
-116.64485,545.83594,323.91638
-60.866943,591.3919,344.3561
-77.01975,656.866,395.4415
-86.369736,503.69122,386.51498
-146.1283,578.85455,490.47107
-250.63971,578.1344,733.9983
-393.35944,627.06525,919.4743
-474.98462,603.5695,1084.1365
-854.724,1088.0867,1300.6757
-1384.9292,1315.2365,1354.4507
-1048.6392,782.8324,985.35284
-568.39526,415.98303,632.76324
-402.3819,567.0223,495.21237
-185.82625,476.292,305.45312
-180.98204,756.95856,230.69832
-98.094284,554.9858,175.84688
-84.156784,472.88733,102.97785
-64.58446,440.29233,159.19662
-115.45309,368.8968,314.0205
-176.34425,357.77325,421.87497
-174.33997,563.95,516.25885
-219.79524,958.3014,662.8261
-140.6181,1776.7059,836.0562
-174.07005,1243.506,1350.0548
-304.75082,481.74908,1601.4
-109.24418,531.8724,1136.4396
-119.29475,400.81677,748.73175
-159.0699,424.09244,569.80145
-127.21609,391.63528,424.10785
-129.83879,500.6792,431.85474
-193.46349,669.2095,411.55505
-99.54511,613.97784,405.3176
-173.4876,418.63226,422.897
-324.83218,439.0181,705.76886
-506.92123,390.53293,970.9214
-510.90195,445.97235,1177.0868
-674.8431,537.3628,1270.213
-664.1214,377.38736,1302.9332
-781.22455,242.80571,1178.0271
-642.49493,352.3788,904.15027
-540.5341,409.21994,824.9394
-485.72757,279.2607,860.8974
-526.817,274.81265,706.0857
-561.4833,339.31607,559.9107
-717.68243,260.34753,610.9628
-716.4679,233.84737,707.31586
-656.5422,263.46964,749.2341
-346.7949,391.84616,705.71954
-277.85233,450.39383,639.4632
-18.570875,465.01874,544.3326
37.210217,383.84058,880.95905
41.00123,225.67674,1417.9518
208.86058,268.33157,1293.243
-113.97458,216.75479,1181.7982
-3.9797597,358.47186,925.80334
71.94176,420.02396,852.87976
33.52922,379.7045,777.7674
-35.828583,394.54642,827.6214
-4.5361433,372.6971,817.1937
109.00184,285.16397,854.25336
154.87158,224.32668,930.4592
176.84901,242.75279,939.29364
194.02249,156.72166,722.1598
378.16617,55.191845,798.9731
423.13516,-5.16635,1276.4138
417.59674,-28.565042,1157.2487
524.52673,-258.59055,1248.6443
528.90216,-302.0655,1148.1953
417.18234,-270.37885,940.9436
265.96643,-236.24442,851.3137
167.5695,-166.6542,866.5669
48.44316,-233.56544,834.59125
-14.0134325,-98.606285,902.9479
16.065857,-134.10225,850.65186
-24.943998,-125.69971,920.92993
11.392,-109.05424,949.21173
9.365498,-131.76451,962.18866
67.218254,-82.55075,982.2638
106.85403,-139.02582,1025.073
114.14931,-143.63683,1088.7345
79.66354,-210.64653,1095.2714
89.091156,-32.608116,1167.1274
88.13338,-206.46077,1238.5154
272.78586,-706.23566,1105.0983
475.6387,-641.4932,873.56305
469.26276,-712.26843,912.4568
428.7391,-432.0948,841.49194
362.76218,-805.6023,637.5751
620.15765,-649.5101,525.4554
516.1722,-215.83028,621.23883
421.22003,-229.22708,504.87665
369.00467,-454.80466,461.79623
296.34048,-380.1983,378.60013
287.57886,-522.9804,248.10881
189.49464,-475.75223,148.90533
-0.9879108,-411.72876,157.93095
-389.24033,1.7223,185.2841
-498.59708,172.75018,-20.286171
-1130.7195,432.62424,330.73315
-1089.1881,978.5489,529.2549
-1079.7655,1371.7375,206.95749
-885.0212,1373.0774,461.757
-796.1874,1012.9921,618.2431
-1104.9673,812.5112,517.85706
-1271.716,900.7569,464.89487
-1280.8556,750.85254,480.2797
-1226.9048,686.134,459.71475
-1025.114,476.52338,329.4839
-913.3858,452.85635,299.6649
-849.17065,483.57825,357.46857
-797.3693,470.63718,501.9001
-770.97516,305.41388,527.86676
-629.39465,95.2187,457.51178
-611.3563,28.07034,314.58722
-690.7716,187.8216,181.33739
-720.98553,312.02682,-88.35337
-928.85297,502.25488,-266.08383
-816.1451,596.4547,-255.29999
-591.09406,635.5992,-161.57076
-605.418,486.14044,-70.23362
-941.3141,624.93964,27.090443
-1231.9277,473.47034,-37.868877
-2042.0259,378.03375,-23.24021
-1904.6653,292.0336,190.01315
-1040.4044,246.97966,462.18088
-778.1765,171.34148,339.2184
-795.27527,501.89777,237.25041
-721.957,494.32318,144.33255
-607.6755,408.632,87.675766
-565.8407,209.01375,78.48147
-498.7022,388.632,53.14292
-475.20386,314.8612,-8.946717
-417.8841,594.3036,-98.68718
-297.54343,508.2249,-250.7504
-538.998,946.2401,-207.7199
-1332.568,738.3773,-745.6689
-2594.6108,1367.653,-649.7589
-2700.4568,464.812,506.74097
-1611.226,-909.92474,189.95226
-1500.6862,-410.79138,-475.83768
-2383.542,698.3414,-1413.5972
-1294.0828,1560.9935,109.66282
-585.9428,473.16736,-369.33548
-208.53554,462.71805,-229.41623
-417.3158,75.3871,-153.2867
-481.72153,300.4298,-75.97117
-510.44995,245.43245,-352.77423
-642.1139,252.08043,-261.8951
-655.7812,115.83418,-276.84262
-697.93445,42.251766,-172.71916
-676.57324,223.09927,-120.58619
-942.9396,533.84076,-43.3748
-1193.7937,693.1676,-79.66161
-1770.7618,870.33734,0.21781833
-1976.8567,670.4725,214.88492
-1494.533,-37.23432,395.69913
-1033.1915,-8.31801,247.21877
-873.38074,379.1472,154.4726
-834.61487,198.97612,175.93213
-580.10724,104.547646,134.11995
-501.86902,-47.931442,72.44997
-400.16687,164.13318,107.31554
-380.118,267.8966,42.092144
-356.42416,437.57498,40.882526
-607.423,455.5786,64.58915
-1046.509,421.4378,-70.958755
-2381.4136,394.67056,-154.78152
-2480.5808,547.6354,-59.2369
-1610.1306,222.25266,175.54652
-1266.6807,67.44997,334.9419
-894.56335,312.50937,265.2069
-620.4405,536.8754,180.40683
-346.60007,-2.5720463,128.66249
-289.18558,-69.43325,122.16357
-264.93802,44.354675,51.8096
-331.83447,60.706444,-31.568287
-379.3263,161.98819,-97.901764
-600.3752,282.46973,-43.989567
-705.51917,300.20105,3.7205591
-1083.2705,381.7907,92.92743
-1563.9454,472.84143,188.88991
-2000.1768,498.79193,275.8144
-1708.0137,621.3535,792.972
-1293.0883,495.56818,694.7182
-1009.74084,308.87808,200.93446
-807.6448,199.16138,152.11789
-681.12366,0.8252038,222.12335
-562.7761,25.665564,228.53477
-445.22702,94.05916,169.40523
-407.4022,280.1692,106.955894
-432.7041,400.64874,-59.848007
-445.60602,522.1313,-135.78296
-604.1292,627.7198,-173.10672
-1142.2965,770.2949,-248.77094
-1994.9991,790.3941,-405.11142
-2502.2954,605.83484,-245.68526
-1881.2771,374.20636,35.73804
-1714.86,55.88041,55.93862
-1239.9052,-178.08344,-0.24956083
-796.634,72.29342,7.687005
-565.4215,105.02115,7.718151
-291.41156,183.53168,32.941128
-196.04266,129.62764,-24.60534
-151.93979,187.92139,-50.645515
-186.32584,156.20985,-41.32701
-305.87634,251.83002,-0.3887653
-523.75415,448.61108,-20.251642
-1087.6887,1061.0947,-127.621376
-1550.8014,1494.2128,-184.86226
-1729.2361,1618.154,444.73544
-1376.9609,1214.1129,541.8961
-933.6166,1098.4816,434.9311
-637.5303,681.3222,384.2291
-416.4666,49.802467,301.1884
-239.71317,-59.62098,233.1148
-182.1351,91.97083,94.32305
-151.05588,378.06616,9.908729
-143.50035,721.82874,-72.87066
-153.32944,614.6827,29.177917
-243.09941,327.79306,86.796196
-575.73474,439.75305,318.1567
-2005.0662,964.32355,415.45554
-2657.4854,1059.7339,-90.815186
-1846.8184,511.97745,118.04682
-1191.4622,140.11035,195.01126
-760.40625,334.8656,169.06346
-654.06195,377.186,198.61124
-422.21094,480.9273,170.53493
-459.04663,386.50674,177.11879
-426.26923,198.28287,117.440636
-502.11414,145.6404,106.95708
-515.82306,102.46157,141.69118
-560.82587,-58.23475,106.32344
-644.3161,90.678055,121.73848
-1413.0565,195.51758,-5.9710755
-1870.0807,586.1233,-144.55717
-2252.462,976.7973,190.1806
-1956.4503,977.18744,423.72067
-1294.942,541.94586,265.89438
-1012.07745,525.7619,315.89597
-803.8166,397.0587,307.38177
-633.4347,178.60379,354.95462
-592.68427,200.55898,286.18637
-577.04224,-4.83149,142.77869
-565.8134,140.63918,32.0604
-616.1223,169.3412,-89.42992
-688.2127,390.6637,-73.1649
-889.78406,532.1638,30.038057
-1011.5873,570.80444,90.868546
-1215.6674,512.3693,189.12645
-1483.7488,575.76074,160.8462
-1112.6162,587.83844,64.800385
-771.1382,399.47015,1.8190852
-963.2238,324.37646,-57.56383
-1086.2045,414.46793,-123.87262
-1161.6189,441.7864,-109.03503
-1077.0884,422.77075,-61.333054
-930.797,398.03876,-2.2657807
-844.00366,338.95203,6.6315446
-785.64124,317.77448,58.747154
-717.0677,282.5605,16.852919
-722.0624,228.58939,-15.686761
-774.792,181.41394,-57.962753
-958.01086,213.0109,-103.05154
-1084.4805,538.615,-142.61942
-960.10754,634.2045,-204.99597
-824.67926,663.60425,-135.81497
-755.9234,671.0178,-52.0741
-759.1466,551.9883,-52.02531
-782.47876,492.20782,-43.979603
-752.01855,494.42032,-106.48915
-793.2384,539.6189,-138.12622
-1128.9229,665.81836,-19.782478
-1335.6736,756.74347,25.992245
-1015.8018,534.2275,-42.05995
-907.4608,424.88766,82.26674
-994.45026,300.37274,143.53769
-1012.35114,195.66106,31.939535
-1155.5874,260.0393,-41.191624
-1138.8359,339.28732,7.233705
-932.997,282.04926,21.367563
-808.2143,253.54492,34.126564
-691.07605,287.33426,10.675852
-594.354,347.36392,2.283518
-540.44476,392.79996,23.567364
-573.8522,377.49503,85.53318
-580.7814,340.5857,133.68692
-643.057,355.15668,181.81924
-720.75946,464.1685,269.54758
-764.9684,583.3718,346.30087
-676.0522,564.6932,392.63855
-641.05023,358.6803,389.4333
-521.94775,401.80606,308.52267
-539.4938,636.1678,251.30547
-438.62332,744.58527,158.62704
-574.82294,689.7722,93.79133
-893.1375,845.57324,40.742027
-2222.2148,856.8224,-117.591484
-2825.2002,554.2973,-383.4242
-1814.5858,340.71774,-203.7771
-1683.4976,279.79144,62.54489
-1219.7672,327.03198,68.15106
-999.7447,408.77414,-32.48647
-677.565,421.677,-58.294983
-654.6766,285.8484,-74.33005
-495.23502,144.7736,-47.70768
-483.74585,-6.728777,-47.200294
-462.78366,-54.46015,-14.211902
-631.40295,-29.230946,5.157154
-597.9375,75.11707,12.4211235
-631.48444,167.73935,-4.090056
-596.9405,240.46024,-1.9322989
-650.1772,312.36255,-13.137711
-652.3186,372.14633,39.061737
-829.39575,438.13013,78.04464
-859.82745,384.9365,118.28742
-1219.9128,478.81525,192.29822
-1563.4937,425.04163,131.99045
-2354.6726,308.55444,16.671684
-2047.2936,323.07346,471.32104
-1461.7253,221.93237,677.2423
-1106.7694,340.9086,452.40347
-960.6701,359.21884,198.47314
-760.88666,370.691,124.550575
-664.2792,240.96829,146.77092
-542.31903,233.31381,172.20328
-541.03156,228.57051,187.16144
-549.1832,305.02515,124.92816
-604.69885,420.0839,27.96987
-640.0755,531.9175,15.556334
-764.16724,638.7813,45.52443
-668.43256,599.62054,23.946932
-665.30945,327.94876,2.5278068
-605.212,230.84055,21.573544
-896.2769,247.25699,35.050896
-1429.3054,308.92023,107.85075
-2214.6401,255.1476,-241.14592
-2251.3882,285.47977,-311.09488
-1491.3427,297.8822,47.333378
-1150.8885,262.011,241.84567
-939.2872,385.45322,119.62775
-599.2684,548.5905,64.91414
-488.87064,438.58917,-66.37311
-338.99176,172.49196,-95.45455
-356.78317,57.871933,-170.2418
-433.19986,575.30365,-27.34529
-613.6149,806.3631,-376.19983
-313.8704,676.51874,-425.47467
-612.9246,616.01306,-182.95522
-661.4608,511.71265,-268.07114
-936.06055,403.76932,-176.23273
-1292.0178,725.9638,-336.47043
-1532.9857,1155.4125,-448.733
-1963.9966,1508.067,29.643925
-1324.385,1340.9724,157.03929
-1266.7386,2349.726,-135.56963
-1204.7686,2317.018,70.517624
-1097.5695,1623.0865,75.57574
-908.7995,1033.4125,46.75702
-822.49927,522.9461,-123.38584
-593.6002,369.84705,-140.59924
-451.26437,204.36983,-188.02681
-280.48776,172.57764,-230.80995
-159.446,80.773476,-236.2574
57.224712,17.738718,-165.92766
311.60068,288.41736,-75.703476
603.1258,521.1446,62.21353
589.37805,519.5713,178.34103
584.10815,511.7099,182.72441
613.6756,286.24136,-106.92786
548.24646,307.4226,-113.31329
358.24567,494.76917,-67.354416
289.61804,573.9567,-128.29506
143.9312,855.17035,-102.29153
50.76476,1093.0542,116.9161
118.38241,1038.7416,245.15018
150.5662,1025.7748,361.49612
104.09943,700.4556,436.41647
119.92083,486.23822,429.23294
-270.27734,1315.245,543.79596
-356.93866,1712.1752,701.9157
-946.2003,2160.2546,996.424
-1003.72003,1881.1041,984.26965
-516.63947,1299.5114,645.6394
-305.12857,853.2721,477.18692
-218.69702,631.2151,389.66867
-230.39822,508.2147,307.64056
-204.92899,368.53122,239.67099
-233.87321,179.78337,210.23985
-254.81667,84.46394,192.39607
-329.6509,133.58536,221.2572
-508.55182,431.81744,211.78441
-703.5789,684.7378,147.12016
-1361.4152,1037.0199,137.01971
-2458.2322,1370.7853,60.07605
-1810.924,1085.1339,160.43367
-1200.0737,703.5027,112.24202
-803.263,526.4921,11.429791
-403.982,597.8876,78.95215
-234.06702,669.9805,170.64352
-224.08424,557.81665,162.33209
-170.4781,422.34476,104.58386
-137.30371,361.13867,67.6908
-219.10756,414.45523,22.002369
-365.17007,573.1643,3.2013109
-587.0999,818.83923,-20.409418
-1024.0303,1160.5891,-127.76255
-1375.497,1262.5994,111.10251
-1807.8269,1148.2001,626.9688
-1494.9404,932.02795,707.108
-872.83826,382.92654,492.9438
-813.1979,217.2481,424.36636
-774.4918,347.3895,405.19852
-668.7442,329.6502,326.7719
-611.8845,378.9204,234.39464
-490.79996,17.418894,104.455376
-521.5909,111.27039,270.46234
-785.49396,321.1938,406.02603
-884.34247,150.38661,364.6262
-853.97345,72.00625,321.90726
-784.4416,-135.38754,282.74155
-639.531,-165.23546,241.83199
-464.30273,-250.94403,147.8717
-957.6835,131.88522,185.19255
-2359.0762,499.5855,68.758
-2424.5967,389.3156,-453.181
-1992.9609,502.1354,-242.34578
-1116.9032,558.92615,5.147322
-837.7624,569.33325,-80.22316
-830.24097,764.4647,-29.352257
-628.57214,790.8758,-22.095406
-503.2636,597.9666,9.941792
-508.58853,286.79224,126.19691
-714.32745,16.838629,190.00441
-890.98694,-94.4895,117.398994
-1076.4471,-2.3426702,21.309978
-1248.631,152.02539,14.040572
-1240.8247,352.73816,67.31705
-1110.0007,439.94952,88.13251
-1085.2483,350.94156,-2.0043383
-1064.0621,356.76828,-67.66067
-1104.0803,470.8017,-0.08415257
-1019.63184,609.56274,211.3384
-812.3549,573.9236,306.12134
-712.034,480.72968,325.93018
-833.773,474.0361,236.394
-1021.84955,366.69708,160.60283
-1064.4452,168.5673,136.80751
-1003.6079,31.85413,188.80441
-917.9513,33.762188,269.68484
-848.36945,101.79772,334.8159
-745.075,190.95801,349.41772
-598.62244,364.6655,499.20126
-540.47766,422.13504,605.9493
-491.40952,273.1265,474.8181
-560.04095,133.46727,206.98584
-691.47455,541.03827,-61.969135
-777.5741,868.712,-240.06699
-953.32043,1070.0009,-339.13965
-869.6369,1038.0992,-331.71603
-724.65515,747.44934,-287.10043
-806.00385,734.9106,-175.99615
-976.7807,759.0159,-174.99802
-941.8548,750.2846,-201.07063
-848.0199,600.0944,-184.42406
-806.39496,597.6605,-57.239796
-776.0801,528.2143,16.031696
-740.50964,492.79944,20.558125
-732.58136,435.7898,19.45372
-754.7113,469.57492,67.81538
-872.0341,417.77484,107.54352
-1008.5427,379.35236,151.74542
-1109.1566,274.26443,166.66743
-1204.2909,265.92328,170.31583
-1212.8065,224.4586,170.39258
-1075.7455,292.0694,219.32637
-994.64545,344.88193,294.17648
-741.3582,307.0262,275.7028
-733.2208,227.07744,241.3445
-803.9247,189.9527,210.29152
-846.2374,148.69803,181.99297
-944.61584,238.04466,217.93315
-928.9535,264.4998,238.26509
-847.5706,303.59045,198.23488
-782.61884,282.88263,152.47679
-780.04956,291.20648,161.03706
-798.3495,229.47086,141.74283
-806.70966,257.57986,177.96939
-820.91205,267.42703,149.56824
-817.20844,378.96808,205.77737
-827.0977,361.64005,248.30894
-833.31824,472.44583,393.02792
-764.7347,385.00485,394.53168
-693.94714,377.8249,353.83246
-671.1157,393.64,309.72647
-613.6842,424.49854,245.42978
-522.5763,398.5988,109.20828
-496.6233,481.10248,48.865765
-450.0024,419.6338,-82.62265
-781.7866,456.3276,-53.123024
-1727.1299,707.5036,-56.42643
-2284.7842,790.7765,-168.2336
-2313.3848,677.3895,14.069669
-1459.2267,512.4187,21.086454
-1173.8221,117.94799,-17.845043
-948.788,6.983476,-15.315645
-880.43744,195.40868,-54.86531
-664.2315,365.43817,11.147511
-543.08215,363.60788,64.16323
-354.06262,268.6752,89.81836
-282.99008,118.38074,67.94761
-222.15227,95.38629,118.80379
-350.45804,98.944565,116.73671
-285.91147,231.24467,170.09174
-527.675,224.65758,62.17181
-767.8548,194.1733,-114.94364
-2779.3818,343.6298,-505.4375
-2938.8066,1850.3308,467.3637
-1132.992,1367.2057,827.719
-1151.4673,817.9498,228.73573
-773.5447,745.1565,163.78192
-617.5496,451.94037,58.679836
-367.30707,249.75534,64.492065
-392.851,-104.88413,22.98424
-375.614,27.250002,39.293545
-411.77167,208.11177,1.5459995
-395.66177,414.83908,16.048561
-521.53796,549.7279,64.71518
-543.1952,547.99457,132.55878
-613.7358,446.81448,73.36994
-608.47894,362.89685,9.732097
-861.9085,252.2243,-14.522238
-1807.5353,320.15485,159.05797
-2506.6702,340.39847,-1.4603047
-2181.9568,307.4971,-24.75805
-1638.7567,92.76593,101.125854
-1205.5739,192.63026,153.6308
-885.9981,435.86127,151.24982
-556.36774,616.92505,212.28197
-402.2198,495.33755,140.8962
-315.22037,320.0402,104.84578
-385.98782,157.08444,88.41579
-489.6588,79.149666,145.05736
-602.1611,99.6761,135.8162
-709.1051,172.88643,91.15162
-825.6109,246.30267,40.840645
-751.272,354.6024,13.054649
-699.80475,451.59387,2.0076375
-571.8617,577.9144,107.94669
-804.0433,568.75037,46.300602
-1159.6373,536.0411,19.745644
-1493.7263,741.3387,87.80148
-1770.2339,1018.59845,314.50464
-1366.4392,813.6118,342.67993
-1016.6851,409.72534,280.59274
-966.2925,289.5858,172.80344
-797.703,350.93442,89.24094
-583.44867,310.4841,18.98785
-460.79242,250.64438,65.24453
-450.59348,303.26263,132.2803
-433.17072,322.31458,202.14029
-435.57526,323.87836,234.53603
-412.99918,337.4179,228.78252
-685.72437,357.17737,187.38841
-1518.1859,542.734,175.08221
-2220.6755,702.5097,-145.0128
-1785.1742,493.51447,-57.67692
-1077.5286,165.90878,133.18158
-941.4409,140.17575,85.45081
-861.95355,369.77472,40.285305
-679.2596,583.32404,-5.314154
-478.1436,543.0147,7.934122
-427.16586,493.6268,84.010666
-457.37946,380.49814,48.31481
-459.45132,317.38208,-17.696093
-371.15985,285.6699,-55.717308
-775.74835,398.58896,-10.843318
-1217.3988,522.79224,-6.3186536
-1757.183,505.72382,-63.479553
-1968.1467,646.14417,201.71613
-1350.2339,825.7657,641.36554
-1064.1954,654.5771,593.8832
-892.9087,411.0179,384.29294
-681.92676,314.26706,250.42027
-502.99448,227.28957,179.38983
-465.1138,151.58952,91.09721
-422.4799,175.88759,40.891674
-435.58664,337.13507,60.95467
-424.58658,558.8524,65.05386
-429.38605,549.3124,15.511881
-499.0698,455.58557,-9.290369
-780.07983,491.45456,49.156578
-1666.0406,636.10504,107.765465
-2377.8752,550.1934,-79.855644
-2272.1108,457.94952,-68.16593
-1696.4926,336.35165,72.09794
-1157.7478,257.2653,41.02489
-837.8725,422.74,130.31468
-551.82715,545.92773,261.75803
-436.93268,426.84967,152.33131
-337.70267,216.7069,90.78372
-413.63672,184.81921,94.1078
-511.9956,276.1968,75.42625
-645.1101,358.67798,-2.0269217
-684.3728,439.64056,-52.35896
-696.304,460.89224,-90.424965
-585.01324,467.03906,-64.643265
-557.33496,442.1926,-15.581959
-459.92914,448.1598,35.840473
-687.2263,515.2392,-41.534966
-1037.7019,699.50964,-75.185524
-1336.603,780.3394,-80.293
-1711.7048,1029.4404,197.19102
-1579.6981,1241.0944,419.16922
-1185.2545,848.17786,417.25452
-755.54285,451.52823,353.08487
-585.72424,175.90926,336.16168
-493.66965,31.306871,235.74022
-520.2803,98.39948,65.149216
-523.5937,281.41824,74.54813
-572.50934,420.4719,226.7843
-742.5454,453.02383,309.91248
-813.58234,320.4436,313.00708
-692.972,173.30765,249.72105
-731.3029,19.062109,281.54785
-1113.4391,98.084236,233.52248
-1912.7701,265.95212,183.15993
-2469.4053,359.52396,55.89498
-1972.499,399.12238,50.7502
-1269.3032,366.38354,224.40979
-967.873,308.08905,240.65388
-784.61725,377.4279,182.8002
-519.39984,366.95752,133.05505
-504.31158,229.45776,65.421295
-536.0654,126.345764,19.967628
-702.2466,99.246185,1.7896097
-993.6108,159.05962,-48.149296
-1151.599,272.9299,-383.2385
-1039.2582,394.00537,-677.2307
-1034.4708,736.8822,-700.0612
-1059.5817,886.8649,-521.33466
-853.80493,867.2394,-661.6082
-682.90216,819.168,-995.7027
-617.608,730.6971,-748.3106
-289.34467,453.4067,-662.5361
-131.6251,369.52945,-549.6089
-343.42206,506.39197,-268.8651
-552.8223,329.08762,-577.62286
-645.0434,485.81064,-768.4587
-626.8853,750.39453,-707.6781
-457.89297,776.2872,-521.8676
-295.1951,810.4083,-286.52847
-277.87576,648.99927,-257.38333
-392.83347,508.57608,-387.30493
-529.01215,446.99023,-565.8378
-627.13055,626.337,-646.76404
-548.53217,595.1281,-671.6587
-458.9253,598.8857,-643.73895
-369.5293,661.1964,-587.42053
-324.93167,677.2678,-531.0554
-363.5948,615.12146,-542.4173
-502.5981,761.8435,-515.03674
-672.9732,776.0779,-474.83606
-858.8734,762.87164,-219.30698
-962.144,556.6841,49.24109
-1281.4951,431.5235,413.73105
-1339.9999,-459.7249,393.874
-1219.3966,210.59247,159.13336
-1122.4762,152.23747,238.99336
-986.3674,159.0292,192.91849
-897.8252,218.58879,122.3268
-872.86456,317.60236,114.27293
-799.80273,431.15012,76.98035
-738.98376,428.1152,91.82244
-677.1355,367.19955,96.018524
-651.3313,314.9282,111.087524
-764.94946,306.82303,109.2791
-936.9004,313.1643,107.66328
-1267.3617,317.1172,68.42114
-1447.1884,284.52783,58.21101
-1228.2778,257.6516,90.10698
-851.53516,246.48808,156.9949
-683.0199,315.807,166.95108
-807.4762,475.0061,161.4335
-1015.9498,533.9031,112.7487
-1076.2263,444.7021,84.00406
-952.82166,285.34863,138.49779
-834.6825,178.34166,159.72514
-732.7031,144.33913,168.53523
-661.3451,261.45944,207.26349
-630.0119,374.18573,239.99477
-627.74365,366.85043,295.53345
-618.21954,351.06424,307.67307
-577.30273,432.55386,344.41742
-576.0271,419.62695,291.9581
-565.6017,470.59488,231.3538
-573.14215,459.9037,139.49176
-557.7532,455.74048,119.65724
-577.0139,302.8719,-44.096855
-897.47314,333.21518,-95.75967
-1769.1946,560.826,-292.84567
-2751.4294,1102.7473,-661.93256
-1669.8821,739.37036,-450.1421
-1182.0709,297.89297,-62.75669
-1027.4966,298.7807,158.95616
-839.5991,385.71115,143.50755
-631.46375,476.8305,-23.406755
-397.93723,473.85413,-30.635223
-273.2518,405.8619,2.442498
-231.99805,227.3749,-5.967431
-294.256,101.82222,26.87318
-456.27985,44.180004,124.87965
-581.18585,58.035378,123.31143
-719.66003,105.94656,107.157875
-1027.4889,176.57365,52.572395
-1576.5658,202.3464,-33.642773
-1823.7021,244.19395,-53.391888
-1747.463,422.86295,139.71321
-1393.2184,812.293,476.3742
-1206.6415,839.321,272.92477
-983.634,890.757,61.427147
-712.9262,616.1083,-86.20115
-642.1196,261.5001,-37.123676
-695.8638,172.1202,76.712585
-685.5893,72.25955,172.6144
-620.35767,-5.126172,98.43442
-450.79883,254.57578,41.26429
-561.4327,561.47375,81.24456
-453.81818,646.5424,33.97834
-805.65454,728.75586,140.55338
-1332.3563,459.59692,-3.6718292
-2354.998,461.46005,-245.3987
-2117.924,467.26743,-117.40473
-1135.9342,307.6426,72.739655
-1083.4395,319.45535,111.26071
-876.38904,351.89615,75.277405
-725.49677,350.63562,71.02855
-467.7135,289.5324,84.29862
-369.98615,215.4453,75.65419
-322.9294,147.40527,41.54369
-492.7359,142.23459,87.46388
-563.3714,108.85609,83.635086
-667.00385,111.551895,48.87436
-987.78204,152.25146,-62.220646
-1506.1106,278.06857,-139.03548
-1981.1011,759.9896,185.39969
-1664.2782,1050.7046,534.13776
-1359.4292,936.6583,449.33844
-1176.0894,743.5916,189.8486
-846.78217,-194.196,292.9397
-623.7834,-249.02504,386.5715
-608.2756,-0.69861317,325.12006
-596.0677,149.01141,294.61884
-549.2499,306.1228,229.48427
-526.91797,504.21387,230.8713
-520.1039,566.66064,232.60664
-508.52798,509.58664,214.89218
-541.6058,411.05835,164.82011
-831.92737,381.7046,204.1401
-1662.4628,293.60333,103.527725
-2253.6543,142.56996,-93.051186
-1806.5187,169.06476,-5.090388
-1273.7649,153.6091,120.74444
-1099.5576,309.07538,127.875145
-898.2405,514.9484,117.15135
-727.4742,509.75388,87.943474
-571.43054,360.09973,88.71775
-464.62228,247.68466,150.29994
-535.95544,94.46101,175.37823
-475.41064,-31.288076,128.58276
-569.9785,-90.629555,65.496765
-729.3642,22.195671,43.709694
-1191.5457,218.59236,124.11525
-1662.9491,596.04816,336.09866
-1610.1241,785.9784,584.5799
-1417.351,672.6215,611.2556
-1195.6461,419.61865,275.23474
-1046.6042,59.325985,131.71391
-837.8007,4.5342116,201.16757
-743.3318,59.525936,260.2207
-596.42145,103.20004,275.17413
-552.03046,225.74036,222.97038
-547.3913,365.50064,208.32335
-525.6657,413.6898,163.32108
-497.54526,382.3563,120.638336
-542.91876,341.11368,120.38144
-807.0601,335.46817,168.40839
-1689.3502,402.57425,190.69913
-2421.4329,291.22086,14.556518
-1970.5164,307.08917,46.748135
-1248.0391,209.03922,219.18472
-911.5128,208.76964,172.12186
-833.0206,361.16653,124.353615
-694.06976,442.42844,95.48332
-614.8838,331.99344,87.23107
-505.80704,198.38614,100.98607
-424.89227,133.3233,117.89908
-462.54315,182.58647,96.823296
-546.3615,173.42035,88.80713
-570.33405,209.25519,90.42899
-585.72205,182.14299,64.936104
-707.6117,219.6865,9.371499
-1260.5769,255.18646,-31.735065
-1537.1099,605.5,158.06474
-1721.5969,863.2012,247.46906
-1732.0297,977.0462,308.07532
-1145.7,779.2886,338.10086
-934.89655,606.42267,439.59927
-807.6659,369.5432,429.3426
-621.15405,103.64703,366.0937
-499.81393,246.79753,257.52393
-467.0276,158.58472,117.005516
-453.98114,239.72166,73.969
-609.38794,372.16724,77.05744
-675.2516,458.0338,97.42538
-622.62555,410.2221,119.30265
-649.88336,382.02246,145.04733
-1645.3036,528.8089,195.57433
-2246.7107,723.0312,5.0853553
-2055.1248,730.8913,-0.21237355
-1737.5798,561.0084,298.20578
-1376.0758,294.25244,261.6324
-1131.0306,219.15352,166.9468
-684.23474,253.50201,139.89453
-390.68787,300.43723,166.13255
-334.57358,190.82191,159.63486
-273.9126,110.704765,113.570724
-279.29364,185.62036,96.73216
-630.9014,303.15128,48.505737
-1008.66125,534.23083,25.77798
-1079.4697,600.171,24.98072
-998.6667,492.3685,111.26707
-1055.2328,430.05927,242.67877
-1227.7836,488.24713,268.40094
-1410.5706,484.80228,192.34636
-1079.5753,393.74915,67.220406
-914.8573,239.5235,50.83807
-967.4473,98.92057,17.012596
-1102.6132,198.74358,-76.82145
-1250.5248,358.1067,-183.6335
-1167.6072,526.6346,-188.9079
-877.46576,465.9189,-157.27846
-739.2876,355.26166,-172.62056
-629.76086,375.18018,-232.00507
-600.01654,481.09888,-276.38123
-540.28217,567.4984,-333.7487
-483.1514,652.91376,-423.37567
-475.23364,874.2168,-238.7966
-742.0933,1272.2767,-139.5037
-790.45703,1645.7458,-463.19263
-479.85913,1824.87,-528.56525
-613.5051,1685.3864,-601.5729
-947.93054,1422.9026,-741.9642
-1079.4266,1262.7185,-801.35846
-1016.9047,1193.3173,-816.483
-857.0287,1044.2821,-756.45807
-619.05,591.7522,-404.65988
-360.68268,363.08023,-174.82663
-192.22028,188.8496,-242.30556
-97.64586,428.48148,-512.71375
-15.729224,845.5904,-426.81888
106.60529,692.7313,-283.5274
171.0361,288.28528,-221.40555
301.71478,109.75088,-179.10216
379.19916,355.89316,-352.1417
379.30725,342.55893,-499.96783
411.4461,416.20737,-396.2049
79.26474,501.95703,2.0198016
-186.12982,968.9456,421.04575
-220.5499,1042.1129,519.30035
-350.88614,1334.3108,420.82217
-408.6862,1691.8807,420.0714
-365.50375,1307.5095,533.25903
-338.5927,1102.271,478.32364
-219.9087,829.42444,407.55984
-173.30843,801.0727,418.527
-155.84071,737.6827,398.83334
-84.54233,697.79004,288.07748
-8.918344,665.09204,242.57602
50.43165,823.3375,324.42386
201.21254,872.83307,359.46774
176.98671,1128.4655,424.1255
50.146313,1068.4305,414.22263
-47.089092,1037.5421,288.40945
-89.12518,819.6772,267.48044
-177.85686,603.0359,400.8561
-95.49316,402.64777,329.61984
-202.2079,653.98724,577.88025
-666.1114,1298.4482,794.2412
-1241.1814,1749.4609,847.5148
-1093.8933,1417.82,657.1274
-398.54025,853.47034,358.8475
-76.38507,513.5149,342.81674
90.668304,276.27246,276.11377
183.17993,169.55232,263.21484
276.93576,60.972282,157.77306
103.90552,124.85411,161.2907
-153.85236,507.18646,257.8075
-357.76428,809.4922,361.63477
-443.9783,1008.00244,453.1512
-835.8217,1025.3159,606.8039
-1227.4745,527.20557,429.44672
-1241.0698,583.8396,403.32367
-1076.8278,538.0173,463.65912
-1110.7902,468.11472,556.3643
-1123.6608,1248.6616,552.95807
-759.1714,1207.7961,312.40335
-357.76843,847.6432,-3.4735627
-94.65608,595.1894,80.30179
-295.26886,276.03955,-178.89583
-116.28927,610.2351,-57.323124
-814.1471,643.5691,270.87988
-1042.141,793.71893,169.31891
-2465.1497,1264.0001,-373.51877
-1948.0602,881.2468,77.6193
-1404.4727,645.7609,260.28235
-1246.3013,386.8124,137.23741
-771.0206,471.0016,118.79063
-562.42664,478.5989,113.07766
-272.33136,352.30655,135.3916
-171.87221,220.78554,118.633255
-152.73665,210.09473,110.18333
-236.39479,180.71417,69.25884
-376.8456,214.03761,53.74764
-623.93066,214.64523,58.636997
-832.7423,222.59592,62.844913
-1364.5043,151.16829,-75.54057
-1466.9557,256.60983,-122.94724
-1805.3367,501.19858,-5.3056254
-1664.2448,907.63416,244.622
-1436.175,974.1334,251.43394
-1198.0802,918.95386,123.139534
-980.7771,625.98175,75.93262
-826.9075,109.780716,185.65706
-727.18225,-20.598148,316.0493
-610.9364,146.72057,273.06674
-502.0968,261.08865,229.36026
-382.07748,420.0848,195.72853
-405.45462,496.76498,183.03557
-406.27295,497.3731,171.75145
-536.2794,435.94193,189.53886
-752.6896,406.7672,161.00114
-1742.3381,262.404,-58.077526
-2440.122,140.81956,-251.97383
-1805.0793,103.229515,-139.39548
-1320.0696,32.745533,95.23769
-1043.0577,266.9757,197.213
-864.2883,498.2431,187.6415
-635.6387,544.5826,168.87976
-416.3541,406.43088,147.42778
-387.77817,129.05608,191.42241
-456.89102,33.26627,213.5213
-529.12616,-40.414272,135.04979
-470.34546,26.825857,76.99485
-721.7728,82.15255,24.635588
-1068.7495,206.0234,15.531543
-1861.4979,501.41608,86.26582
-1696.8857,839.92035,345.29333
-1491.326,831.5765,715.3753
-1547.36,688.82,492.34293
-1264.7113,556.77875,41.62482
-851.0541,171.89354,88.85857
-692.09436,-114.42039,228.7539
-596.9373,37.07466,236.61066
-585.62787,177.24214,248.23038
-568.0259,397.59985,263.77118
-500.42313,535.02673,295.75787
-406.77618,525.7552,245.88298
-416.3505,446.88495,222.45822
-442.00754,421.5202,147.1707
-551.6314,302.19812,94.55327
-765.5498,311.40588,158.56401
-1795.5261,287.56207,199.5676
-2665.904,79.497665,-85.21432
-2137.5078,108.53178,-50.84735
-1873.4694,171.29694,127.09299
-1247.2975,319.35855,180.00122
-764.37823,569.3881,126.53842
-454.3378,638.9631,178.32661
-364.71652,475.7073,192.4218
-282.55847,208.82642,144.0553
-241.82709,-69.25518,90.17685
-234.25731,-240.7801,66.86585
-280.24298,-175.31203,-3.2151606
-434.17462,-1.0099819,-5.3479667
-716.41724,167.04715,-90.33706
-1600.4785,703.74133,19.654436
-2041.6185,1226.026,107.30291
-1791.6787,1511.7544,585.3239
-1125.5596,1365.3992,472.3145
-935.91864,1119.4569,-77.01546
-869.2785,1058.9265,169.78778
-486.67468,518.7128,562.34247
-310.7182,531.7264,424.8683
-251.72052,782.268,165.36723
-381.08356,613.4047,62.827393
-440.66635,465.08472,76.20698
-568.2629,434.75317,95.64427
-676.01215,439.7684,256.36255
-729.631,285.4836,149.75189
-602.3352,23.813095,133.4514
-769.78937,-83.295334,370.42783
-1706.3118,290.53787,501.2536
-2310.0063,97.53267,372.42905
-2152.1465,-11.380172,295.02856
-1820.1141,271.71924,182.58032
-1351.5602,531.35504,120.95332
-976.4866,596.70734,176.98663
-656.1761,431.23105,130.16104
-469.1637,383.45404,86.39364
-446.3029,316.56888,70.7447
-582.7138,331.75003,-6.921362
-783.544,347.03775,-14.235864
-990.16724,359.56067,-77.700066
-1064.7206,321.81683,-114.509674
-1052.6255,369.424,-87.95493
-947.6356,376.01865,-97.6699
-901.4756,491.3544,-66.40443
-941.9383,590.5994,18.359177
-1037.0249,658.3621,182.14166
-1124.7853,642.6413,335.10474
-908.8427,538.1636,415.83246
-828.6261,367.04184,450.3744
-906.2894,411.7301,415.94293
-994.3264,373.32266,352.39658
-1040.5378,298.03256,291.45584
-946.992,206.47421,247.18352
-860.51794,233.86882,215.09723
-769.31177,232.15874,195.15457
-638.11597,280.64325,207.86073
-532.9851,288.75272,226.25137
-508.21854,330.06274,229.37819
-581.6279,377.46683,260.72244
-692.64984,554.4764,251.31366
-924.9467,767.44836,195.78168
-1259.5421,957.37775,79.579445
-1028.8644,958.8709,62.436615
-705.9917,702.3095,84.83366
-733.5044,507.5791,84.03269
-973.85547,562.94916,70.43328
-1011.39984,724.34155,60.589046
-889.9282,755.8448,99.29054
-863.36176,634.99207,228.6757
-844.5117,566.29095,232.12654
-805.706,458.36432,186.53142
-730.07983,450.7873,151.45586
-699.5291,430.81232,157.87265
-738.26447,439.6866,237.9128
-1046.0309,421.64197,414.75723
-898.06256,244.73776,146.36372
-732.4714,295.68158,9.488573
-948.0893,612.6689,18.294249
-1283.4355,858.08203,158.59618
-1188.7354,678.8247,127.51691
-867.01935,374.47308,102.12482
-822.3996,218.85143,-10.100161
-922.41534,445.46375,35.643204
-872.51105,510.97803,-102.949875
-856.6722,467.93982,-128.48657
-820.1026,429.61035,-171.27293
-812.8338,399.84903,-117.39728
-679.2879,381.99875,-174.59074
-659.09705,414.01202,-102.67216
-534.8004,362.50943,-182.96614
-627.6606,580.90607,-21.236616
-292.06842,556.88513,-78.9463
-400.11038,1282.8751,1056.0637
-796.2679,1782.0002,542.34186
-117.51875,583.2356,16.285696
-414.1704,961.88934,124.270004
-347.6049,523.9916,-123.36913
-449.0104,488.474,-138.05371
-714.2816,579.193,-182.68869
-1617.6024,924.6958,-65.04984
-2512.9685,979.6666,-198.02231
-2180.1396,838.5815,103.55735
-1328.5315,171.65231,196.87074
-1013.4843,135.32915,212.51175
-715.6252,223.80063,164.1724
-438.6083,436.02884,141.92085
-175.51909,349.48032,85.754616
-55.983734,288.92184,93.7899
196.58607,24.907858,17.5333
75.76392,116.75825,-44.852543
-311.20483,170.48767,-33.358974
-902.561,668.43384,72.98511
-1207.3159,832.1849,-35.746067
-1708.1451,530.7616,-97.0602
-2009.6404,729.3905,183.01204
-1981.0901,1235.4524,411.0332
-1332.5159,887.05206,680.6189
-1108.5461,840.78735,389.8803
-824.573,491.38928,198.40833
-730.4631,515.4041,134.48045
-531.0348,286.9813,90.54673
-512.47644,274.69717,69.58919
-335.56754,158.03563,67.713936
-390.10278,351.43115,-5.1264434
-240.42836,242.5283,51.29883
-432.0204,455.3367,-6.205287
-370.7515,263.4525,28.638527
-686.3895,623.5956,-55.458996
-398.5187,244.13557,57.51635
-1169.3894,1011.2515,-333.8627
-1191.6423,583.7169,-229.01608
-2567.047,832.48303,-87.120674
-2167.2732,898.31366,-381.69565
-1260.816,396.95273,98.00621
-1214.8303,524.92944,169.62296
-814.2572,350.05014,159.1423
-607.06323,560.4548,35.24099
-316.0262,503.78482,63.91768
-365.2467,430.91437,37.165115
-327.3223,313.9912,102.84989
-465.5371,247.96773,50.269917
-514.4666,164.49835,68.22813
-638.43396,75.974525,39.16014
-619.93066,134.81273,55.02068
-687.8369,198.38824,44.35601
-1040.0814,444.42236,-26.787954
-1338.616,410.33597,-306.2512
-2080.6875,1195.8727,34.198853
-1733.1434,855.96906,359.43475
-1229.1099,737.98706,362.98248
-1011.9072,58.40011,411.21912
-759.46313,242.90813,298.08667
-582.1713,859.4535,133.94762
-312.02063,317.7756,52.83581
-241.0918,350.98364,-1.4064176
-195.83728,206.56583,54.516605
-323.91043,408.51675,26.020903
-409.10422,393.94202,29.689182
-709.44293,631.721,48.139107
-1115.2567,679.17487,123.59541
-2164.8792,705.1949,-30.460268
-2175.7131,210.86646,-67.48812
-1892.8468,-40.16476,61.678986
-1640.0122,-163.35214,88.33733
-1101.5792,191.91685,58.727352
-663.77264,429.60373,43.696087
-348.95227,480.1218,69.55389
-170.40138,150.92862,81.550385
-159.90768,292.49258,139.19405
-229.2243,341.11673,136.67366
-412.9036,350.71295,94.966125
-722.01196,344.9272,116.26184
-898.8629,254.98294,21.171263
-1119.4728,-11.344297,-139.77275
-1579.5819,103.67089,-162.48569
-1701.6661,606.2656,106.59943
-1952.9309,999.32526,417.184
-1530.4562,1145.0796,450.68744
-947.332,900.7522,121.45327
-727.7364,499.51868,-131.34517
-585.2774,-48.775196,-56.000683
-554.93036,-106.48905,171.22722
-462.90173,69.48931,200.98416
-443.7383,93.261375,219.83463
-493.71838,313.176,174.73315
-658.8926,357.815,170.20064
-658.6617,395.69666,121.692665
-663.62036,339.14835,122.174644
-624.9537,328.7554,160.76518
-906.635,259.21622,182.10559
-1620.5758,270.96207,84.43508
-2585.4177,418.21814,-44.933636
-1949.96,478.51022,89.015366
-1190.7096,175.63155,164.46667
-1073.5192,95.58201,183.45424
-817.4096,232.98093,135.39345
-625.57263,360.67975,81.82198
-458.5395,366.80536,64.97154
-320.346,282.85236,111.20026
-289.80884,201.52942,149.80208
-355.73532,166.22606,117.33235
-410.67233,145.20413,47.271217
-454.15176,204.9398,102.222466
-804.6872,303.00833,126.33878
-1373.1859,357.36896,115.88155
-2326.9792,506.5565,186.1781
-2553.4421,588.04706,551.4412
-1297.3622,487.892,634.85925
-984.1645,198.54663,494.18042
-782.6028,413.78662,491.35333
-653.0286,400.55035,293.27988
-495.24615,183.55261,262.98865
-468.6929,95.61737,128.68266
-521.2732,168.56868,103.73941
-603.2493,356.92676,83.18732
-519.764,429.99115,99.87258
-434.8232,451.34067,127.42819
-572.72107,462.0335,166.05261
-647.13586,415.18326,74.531265
-541.54535,371.8679,46.830494
-499.59503,409.02798,127.27404
-1219.9806,538.65106,252.62117
-1949.4974,522.1665,21.038925
-2255.873,628.9212,-67.5775
-2217.9834,533.97864,131.20561
-1561.1898,320.60913,262.27817
-1271.0273,355.42136,179.71284
-846.3791,402.71042,105.04214
-542.08276,472.58594,166.23073
-393.0886,397.00995,241.735
-523.6236,239.15143,195.70175
-561.50055,91.48449,160.84596
-740.1561,-30.741758,84.772026
-834.7324,-37.708942,34.832024
-914.47046,144.23814,29.230057
-839.8851,315.85938,34.404636
-1172.2314,434.3113,-9.4412985
-1596.0647,851.7688,206.52342
-1480.6931,912.9895,232.65485
-970.7563,456.41867,86.41443
-977.5004,133.45148,26.343893
-1049.0184,-33.82898,-41.945255
-1083.6896,177.86281,-148.8564
-942.1771,379.59866,-265.51797
-774.034,473.84442,-323.38943
-653.52325,486.2968,-244.55481
-624.2158,590.408,-118.60384
-594.12445,575.7266,-42.746914
-620.5338,545.6358,14.40689
-589.21924,519.7975,38.92459
-608.76953,434.9699,31.639717
-724.67206,424.1202,148.32895
-1171.7872,615.7291,178.66223
-1344.189,874.7602,291.8978
-996.7479,993.11163,442.45108
-1002.009,531.96674,293.00253
-1317.1079,376.09952,96.61229
-1211.9912,491.01224,48.53571
-979.92456,434.9751,91.597534
-861.0153,313.9839,101.63224
-797.923,243.34314,95.161385
-670.0536,216.68248,104.86974
-615.26166,221.41669,100.020256
-660.08264,234.79117,29.026949
-791.5952,232.68488,-59.542885
-859.89545,242.88916,-73.71922
-1050.9841,227.76915,-174.27063
-1303.8486,305.1918,-253.5003
-1491.6621,376.44843,-311.43454
-1156.9626,600.23254,-146.32611
-937.95215,724.14417,100.43752
-756.2419,726.31116,104.191574
-768.53656,653.6457,-18.24109
-855.7718,544.8303,-38.570065
-889.82,34.345436,149.29686
-822.61005,-93.18586,235.24564
-757.6097,158.08606,152.96785
-724.48584,129.53485,121.556076
-659.89813,234.57872,65.45315
-601.9502,392.63254,118.15188
-624.074,499.8539,120.76075
-659.3367,623.8215,216.28069
-645.0798,628.9467,248.10426
-718.9152,477.6777,331.87003
-831.7131,274.2464,355.67728
-944.3987,55.671482,320.49625
-1668.8208,-115.76012,114.41623
-2678.6008,-328.70807,-171.29184
-2009.2384,18.723583,-142.37466
-1263.5903,192.15553,-114.45129
-902.7768,293.19708,-35.104816
-603.7057,451.1364,110.10816
-396.43964,522.86957,84.56414
-155.45212,366.68723,83.84528
-138.6206,133.81447,-8.588077
-175.47784,-61.053364,-44.078503
-368.3085,12.737566,-6.8878846
-767.44305,318.12662,177.56024
-1335.5853,436.11603,82.012436
-1679.5428,609.43384,-92.32581
-2067.2637,912.29846,412.7603
-1906.0137,930.8206,485.54166
-1616.1525,667.85614,197.0988
-1371.5228,562.4509,288.09186
-1013.82324,397.70728,237.19861
-479.74048,506.22186,-53.789955
-59.160233,-53.57336,29.277103
146.9849,551.3334,33.38777
53.52459,617.1594,297.52936
-204.58733,799.67267,477.29852
-633.1994,696.0947,257.04877
-769.73663,897.17847,-258.31528
-1342.5331,1205.1917,-775.88696
-1409.2782,682.50543,-807.93616
-1548.321,540.352,-196.19843
-1380.3187,441.95166,-101.034424
-763.3655,1079.132,-206.10594
-306.888,816.1208,-166.6148
24.049479,514.99304,-141.24098
160.4383,146.38675,-162.84137
193.7682,-175.76549,-246.4569
-56.543964,199.85004,-285.04248
-492.79858,357.7536,-107.24527
-677.63885,281.30817,-131.09033
-1127.3999,475.50775,-261.16144
-1336.8643,770.6358,-605.1788
-1569.6633,978.09143,-625.20105
-1670.0376,1167.6859,-544.6714
-1155.1355,1067.7323,-590.00415
-861.25397,605.3242,-394.98138
-552.42114,561.4007,-351.0433
-479.4669,527.0432,-126.06138
-400.15982,509.36508,-53.28967
-211.04094,471.24698,-263.04395
-334.8647,377.3096,-182.26474
-497.53653,559.35834,-328.13254
-673.7856,416.8916,-318.35876
-746.6068,234.02557,-306.36362
-1082.5095,751.4436,-495.9274
-1198.0358,882.40546,-728.7508
-1073.1404,851.53076,-792.1515
-1557.0051,599.925,-275.99844
-1297.2856,842.3002,28.270113
-682.43134,948.10016,-108.20308
-387.5015,697.2802,-36.124016
-264.47205,372.36163,-78.396385
-272.0331,439.11563,-288.94824
-348.79764,597.1543,-424.4172
-399.447,-39.701233,-220.48654
-610.3141,-129.01888,-40.26701
-634.9442,82.6603,-270.60968
-880.86334,350.75613,-668.9302
-1223.2278,901.1519,-786.97986
-1592.4303,1444.4854,-600.5963
-1695.1887,1184.3258,-506.69107
-1363.1392,711.4689,-642.3883
-810.70856,556.6428,-552.8077
-406.31152,517.1068,-744.8414
-208.06848,35.63843,-369.30554
-495.30093,284.01602,128.4539
-652.8126,565.46765,137.69666
-556.7159,626.99176,24.104954
-619.8925,731.5341,-295.6282
-623.7703,655.42474,-381.07138
-484.72562,328.6873,-251.36343
-522.73584,-83.09281,-102.61099
-531.30164,352.46506,-108.25244
-563.23914,497.33176,-364.60434
-1284.4088,1111.9691,-786.55145
-1524.7513,782.2109,-1053.9459
-1411.912,830.83057,-881.81805
-1083.1417,524.11865,-438.3567
-709.1949,334.64062,-190.97781
-402.92123,511.3445,-127.43559
-194.67894,599.5894,-236.42747
-175.66603,679.9856,-478.2832
-281.55838,285.05957,-123.25159
-414.1636,219.98145,3.3530173
-488.92856,683.3672,271.30655
-802.4243,721.56384,50.944427
-884.85284,553.48804,-120.48918
-999.6956,199.40158,-250.80734
-1548.9823,-438.2015,388.42508
-2062.562,-535.9916,1184.1748
-1198.334,385.67258,541.1877
-946.4699,292.50412,120.78152
-670.18317,607.7559,48.918625
-891.5211,1235.1627,157.4575
-758.64905,969.55743,-96.45008
-560.2106,346.7843,-25.41768
-521.04724,-6.3682632,178.77682
-575.9438,-195.76031,391.4198
-624.8605,47.875275,375.2148
-583.6463,224.24294,331.69553
-897.4356,552.3876,221.4801
-1533.3986,846.75415,187.3847
-2159.8525,950.721,67.76114
-2141.438,561.6983,-15.779272
-1669.3773,320.90985,102.588875
-1295.002,189.78775,130.49446
-840.5591,272.561,107.515465
-500.8783,292.83994,114.11433
-334.85205,309.83228,106.637856
-283.7071,237.44357,114.48389
-286.0084,223.7678,86.31098
-367.53287,142.37125,77.01123
-498.0943,164.61606,61.01267
-672.09436,119.06224,86.93942
-1011.2325,122.166275,66.29999
-1204.607,144.5428,93.380585
-1382.607,303.44254,196.12404
-1797.8717,486.60062,366.06888
-1813.929,682.6514,519.4311
-1598.9064,667.32104,430.60944
-1277.6696,408.72272,220.58553
-1014.3017,118.631454,213.41043
-891.2062,146.75504,239.2277
-728.0595,208.50406,257.33435
-617.1112,297.7756,239.89203
-594.6593,427.7369,263.98172
-639.9423,521.0674,222.37749
-624.89795,512.783,219.09357
-664.7709,487.0589,190.72743
-1014.3212,483.6837,146.0665
-1702.8782,336.8178,-57.10813
-1814.3372,169.65033,-104.26274
-1717.5065,61.803596,-34.983162
-1869.2429,64.12021,110.45619
-1566.0466,254.07324,165.65112
-1118.5288,387.81378,147.18037
-771.1734,403.61426,102.9552
-554.52356,-64.49375,143.45322
-342.70987,-149.72316,97.81582
-374.92432,-154.96716,104.871155
-448.82104,16.352694,79.31168
-573.3751,89.366325,39.140568
-622.7962,218.89966,73.30328
-878.69165,219.61885,108.82791
-1046.155,238.04668,84.13574
-1278.1979,231.05783,197.914
-1681.5674,313.0678,328.10587
-2197.0273,474.95654,565.80334
-2114.3943,572.5991,492.94766
-1616.7913,299.59787,265.94315
-1167.0702,82.01875,230.81042
-998.1029,61.32255,248.09904
-801.59827,239.62708,282.8271
-632.6651,343.67636,238.51317
-515.5126,466.55722,188.13835
-518.08887,457.49884,156.79938
-557.7223,468.16003,108.109924
-619.60065,307.62576,35.287365
-603.3249,230.83443,17.12491
-720.22253,112.285614,17.63917
-908.07153,103.264534,10.747303
-1433.6476,144.95168,-9.908974
-1857.0234,280.06995,58.998714
-1996.3904,241.90695,37.18209
-1852.4238,273.02072,45.847897
-1497.3168,279.6767,196.05484
-1010.71875,285.8449,614.196
-701.3081,-92.3615,296.1455
-421.39337,-11.925682,83.913826
-491.8477,-15.337712,219.06223
-569.1728,145.95915,120.24147
-484.14307,219.52234,42.461163
-513.01733,232.94371,-77.52749
-608.66095,214.98952,-87.681274
-709.1156,211.13591,-85.20339
-1170.0669,202.50972,-49.999886
-1389.8022,304.0785,4.260692
-1574.6248,454.83286,202.65569
-1801.1176,765.5082,516.62115
-1591.8877,884.00977,773.339
-1276.7125,595.2005,381.5366
-1055.2052,28.828705,104.09306
-808.028,-292.0927,167.69205
-691.0668,-205.88528,285.58185
-590.69464,-15.990125,268.81943
-564.4844,193.27484,245.6319
-593.2202,421.25385,180.21043
-673.86615,496.07367,170.91774
-762.01135,517.5423,118.14336
-782.9695,463.8298,171.51562
-717.5657,326.16364,171.68155
-666.9235,196.25769,159.994
-640.8088,177.69186,56.7144
-891.6425,211.60202,146.39186
-1710.1688,383.12192,42.2793
-2410.069,661.5408,-138.56384
-1817.3702,775.8488,-193.15302
-1928.1643,1047.3762,1017.98914
-1747.762,156.61726,217.87027
-854.69183,310.1711,80.798965
-634.78046,167.101,273.05124
-312.29617,-95.64468,160.2932
-199.7283,139.4053,146.24863
-280.7421,264.7365,57.961975
-421.27274,522.5667,20.86808
-495.23828,643.92444,-34.688095
-636.55664,739.5179,45.57595
-722.30383,764.43335,138.86409
-765.82166,773.6627,124.77117
-601.9721,759.2717,-8.780903
-521.3685,831.44604,16.634663
-523.8859,836.4618,181.62537
-575.7738,810.1982,270.16687
-703.097,745.43256,369.2936
-1026.3346,844.7,273.15826
-1067.3513,722.6824,123.88811
-1221.2362,712.97144,233.857
-1219.7834,426.88715,315.0997
-1059.2709,134.69057,338.80548
-894.74945,-43.406322,242.27423
-877.9413,68.66878,159.37122
-893.52454,182.84264,161.16618
-918.9919,323.16745,105.951965
-848.8219,215.73204,62.168377
-801.99176,216.28975,6.591758
-748.9126,197.65172,14.696191
-730.6584,387.40652,121.386665
-657.7602,435.62585,234.04741
-637.359,550.65027,232.17334
-594.07837,467.37787,264.13547
-673.1113,575.4705,321.478
-678.00946,242.05608,336.532
-881.9872,445.25284,392.5919
-1109.2406,1401.5996,491.66083
-1349.8643,1162.1531,365.1174
-1265.8097,805.1058,163.91092
-1002.8897,440.78406,115.89203
-822.0651,420.68448,75.01828
-988.20886,249.41133,92.10805
-1197.8452,295.729,24.070894
-1207.0359,253.77528,-117.29378
-1050.0555,326.74673,-80.41434
-946.1828,264.02203,-5.3757434
-796.54425,255.67879,22.224028
-609.81134,282.45343,-92.14127
-469.03336,382.74615,-149.41852
-486.93555,478.0853,-106.799576
-599.5551,498.28207,-40.322964
-728.78265,404.39105,-32.158134
-829.37695,351.76556,-46.158558
-1080.6628,339.9771,-83.68767
-1253.9901,460.29626,-25.44678
-1388.8145,475.86533,-41.73395
-1539.1775,518.0185,-33.416428
-1427.4099,551.5808,-13.182178
-1191.8914,549.1817,53.806545
-855.11163,441.46097,36.39811
-769.1602,332.76215,74.06639
-823.4926,274.17026,116.63313
-897.26056,214.81874,116.70698
-974.0101,189.6513,106.16896
-828.73126,172.27177,91.45559
-832.1178,233.80331,40.060223
-742.5841,307.3984,17.842182
-791.6211,423.02338,-9.804361
-674.63403,495.3685,59.31987
-795.731,533.75916,87.49387
-581.19666,514.30914,325.73813
-1037.1908,268.44186,1055.7471
-913.8033,423.23077,459.73557
-792.32855,757.6538,258.3319
-1271.658,520.48645,127.680595
-1204.7905,408.59827,21.457829
-1234.1383,477.3089,57.549366
-879.69147,466.94986,-32.16617
-972.61615,663.7013,-67.260025
-1006.46875,689.0733,-152.74835
-1170.321,613.33905,-180.79622
-1064.5046,453.66577,-126.418144
-1038.8032,370.0856,-34.497234
-942.5436,356.37555,12.094112
-920.483,328.25772,11.855182
-852.77454,289.23236,-0.3343499
-863.61145,282.3833,8.121285
-838.523,246.90144,-26.803143
-892.28815,226.79205,-32.94034
-897.32666,223.74551,-8.4684
-916.0026,245.2037,43.92873
-892.18933,245.47679,43.352737
-971.66345,274.16928,79.70759
-948.46533,306.82452,183.45218
-980.77563,330.1024,406.6556
-944.7656,109.538506,431.0181
-975.21405,-242.26169,230.87086
-1281.829,38.412483,392.44955
-1566.9718,406.7187,312.508
-1242.7437,655.90173,168.53902
-932.1199,594.4685,67.76655
-811.0232,582.55774,-152.89432
-839.86127,363.8475,-225.32991
-674.0988,134.13649,-254.30783
-604.452,62.324436,-135.95578
-654.6292,169.95866,118.329834
-628.56915,352.39053,235.93246
-536.321,443.56174,208.04768
-697.44025,583.53656,302.0162
-691.27924,678.34686,338.8003
-677.94635,645.8603,337.79742
-687.0324,434.00934,245.45506
-801.11835,218.07936,155.94203
-808.1407,112.245995,146.52228
-1038.5399,101.52802,232.91426
-1790.3604,196.56424,308.74957
-2937.2783,362.73978,179.82634
-2535.352,499.08752,-63.947292
-1507.6547,333.16052,13.609473
-1096.3723,288.37302,82.83844
-866.95667,392.42603,68.18823
-667.2364,474.95975,34.375374
-570.1592,405.2099,18.471193
-472.37042,207.61734,22.202608
-363.13947,10.884149,40.139698
-249.69852,-87.00669,74.913826
-268.19708,-80.78416,90.49421
-395.99805,72.28259,90.989624
-550.40106,184.45992,94.839005
-564.849,219.17288,101.82536
-654.9886,193.35818,72.966705
-952.21875,215.35635,6.3928432
-1499.8556,351.10648,-0.6468094
-2124.9263,545.30096,143.90248
-1963.481,782.81793,586.71405
-1612.2769,656.2385,542.49194
-1284.2445,624.15076,342.97574
-1127.4279,401.22827,244.45743
-844.37067,-4.5265365,199.95096
-736.6945,33.083477,243.79636
-612.904,101.43442,284.77432
-456.0104,376.85324,263.99527
-384.67862,777.7059,358.44504
-515.57715,946.3535,286.00507
-553.0636,909.0382,253.40073
-1103.3737,941.77075,319.93997
-1774.3722,491.28537,51.400368
-2463.9324,64.01713,-256.04968
-2386.0476,-302.9101,-257.52875
-2040.8119,-219.4948,165.90857
-1759.1431,333.5043,411.14258
-1212.8898,548.15,-21.951372
-638.90076,603.22406,-22.258625
-481.13156,382.12173,-7.1580777
-345.06253,231.64008,0.33495635
-331.81985,116.642136,74.934906
-343.81824,-27.42493,105.24521
-265.11774,-72.234406,53.23699
-244.91649,-104.268875,56.558495
-349.38138,9.314509,74.19827
-656.73114,299.86765,174.0796
-1005.2445,661.2746,314.39575
-1177.011,942.51465,477.11325
-1367.3308,746.7332,655.8464
-1582.3329,390.2582,686.0446
-1648.4993,175.21295,520.606
-1486.5742,175.66164,412.52277
-1096.6588,349.7369,324.7835
-878.48846,455.02158,270.27258
-657.4933,513.4593,209.49707
-606.15814,555.70825,188.93584
-535.4581,588.75195,163.4386
-562.01154,528.1182,167.75403
-459.68246,440.32672,113.08357
-639.5264,361.90652,161.24155
-1069.5167,547.63855,309.5588
-2194.3438,685.2522,352.5681
-2248.6208,522.19324,156.11731
-1370.4349,264.46887,247.89215
-1303.0487,371.04794,118.01151
-1105.747,613.2375,-27.501263
-865.28455,865.7668,-335.8689
-613.0208,1039.8438,-382.94608
-561.7837,956.2884,-253.19002
-412.10275,665.97614,-198.25716
-395.08484,350.15222,-137.41318
-366.2055,22.28941,-114.15815
-539.8203,-318.9042,-177.51825
-527.73627,-306.2995,-123.9053
-402.75842,-230.34224,-287.37094
-189.04137,-144.93736,-764.9689
-334.05402,582.31226,-1993.61
-326.41724,2268.429,-2094.4792
-371.02695,1507.8018,-1338.1398
-451.11493,594.43317,-1741.3848
-139.4498,951.1025,-1497.0221
-8.068556,874.71814,-1123.6616
50.719925,654.1327,-817.7954
81.03299,416.0762,-637.7197
73.99782,566.4148,-452.69766
118.944275,397.7004,-399.03683
148.73653,269.4509,-368.36288
127.020935,277.42355,-315.3249
166.78441,340.3684,-411.71774
261.59457,501.41635,-891.19763
63.05758,1336.6921,-1979.5624
-147.21713,1411.0848,-2202.2212
-100.53027,797.32007,-1371.8234
32.6248,621.8197,-821.1944
226.02678,632.63556,-474.1755
241.51978,539.5116,-161.90552
249.09831,363.425,16.658863
218.59775,83.76719,-120.75758
193.68039,45.837646,-247.1305
195.11728,124.31262,-280.0905
202.0707,182.91614,-537.97565
197.55034,224.85066,-946.95123
118.83163,854.37604,-1259.4918
-65.805984,777.97034,-1190.4883
-50.82157,395.78638,-906.76874
158.87497,687.65,-903.499
203.31055,1232.3074,-1101.6532
-71.351585,1577.8549,-859.3571
48.17678,1195.9016,-1072.7689
33.536747,974.5515,-1240.2991
-33.684402,763.5239,-843.2543
39.988617,711.4663,-624.73346
218.85213,624.9334,-508.50748
271.7082,545.67413,-338.16107
318.2641,479.50894,-219.85031
354.55774,537.9939,-251.24417
303.3786,517.5449,-142.88606
218.87419,564.66455,-223.28151
146.74535,736.88074,-347.00183
180.61537,985.61115,-696.1797
17.859112,1672.6362,-1470.8442
-426.1386,1933.8661,-1912.5251
-347.79694,1609.135,-1416.7246
-94.798775,1334.2863,-870.4995
102.23113,918.5854,-597.8878
143.31421,642.92566,-367.9747
161.92473,446.43753,-240.48746
167.05626,414.6135,-156.07336
142.67505,465.8789,-182.53273
87.365,645.698,-366.82812
32.883453,705.1549,-445.21136
0.8952449,771.9597,-571.62726
-30.433266,755.95416,-546.43506
5.794475,667.076,-445.56418
56.169914,634.4636,-456.94147
77.2925,675.1022,-399.52896
74.03037,702.01794,-566.9333
96.03751,790.2851,-691.1506
71.355194,973.7931,-801.8539
112.91294,973.0048,-1131.5759
187.0457,944.9278,-1204.7595
182.68893,928.85046,-1154.6416
191.92447,1054.6436,-922.80365
209.39679,989.41644,-663.3076
147.22078,922.312,-470.38318
50.68647,874.373,-384.51248
-42.284534,798.4455,-429.8212
-86.455635,680.9573,-420.96033
-88.31714,741.52576,-368.6905
-83.08551,668.56354,-386.48596
-15.64308,573.8156,-410.46866
42.134377,528.50494,-408.21277
139.02132,461.8212,-535.7374
189.72516,397.76697,-801.2561
254.74019,565.3803,-1117.0715
204.31224,834.88666,-1342.9441
119.52682,656.8881,-1358.717
171.86232,259.39343,-1400.4982
275.81516,315.2848,-1196.6815
337.10876,370.5328,-1103.0044
260.95563,450.57025,-833.62177
224.31357,199.6869,-1011.26227
114.668816,219.05109,-1311.1874
64.61724,669.0877,-1178.1387
84.42326,532.4533,-987.2126
73.03814,269.631,-570.6082
121.55894,251.07281,-158.42609
100.99704,209.39638,69.90222
31.471764,99.03152,-249.54973
-76.9661,362.83087,-1041.945
-103.05613,659.53156,-1622.6293
20.172676,734.9939,-1667.5543
122.90368,441.84894,-1495.4297
247.89633,335.90604,-1237.5131
362.0006,476.46048,-1153.7925
358.65527,549.31104,-1017.0888
426.92657,525.29297,-734.1511
483.57953,414.3256,-589.1347
432.74515,365.74103,-377.45673
391.04166,343.91486,-264.74777
246.05513,378.66263,-809.076
42.93693,747.73083,-1240.316
110.842064,962.9242,-1275.808
213.42911,600.58795,-868.3719
304.03763,387.80875,-444.36063
331.66815,390.7175,-365.38812
293.21182,435.88757,-252.25978
250.5767,400.49854,-370.05392
278.13464,451.6763,-574.0599
316.33652,528.3604,-557.6552
316.6496,641.359,-594.88477
346.33542,521.0893,-469.88922
355.76968,548.831,-439.46265
308.084,542.42126,-499.87344
258.9197,544.2219,-453.51233
266.01257,586.26184,-535.1964
312.90628,897.31366,-970.16144
223.129,1009.53625,-1621.8005
-120.87882,1171.8761,-2045.0272
-282.84802,1120.0763,-1561.3063
-68.23642,916.4464,-976.49567
84.327065,500.97028,-559.4015
154.98456,532.57404,-407.30252
73.109375,417.28094,-310.01917
80.47392,526.7277,-378.2728
95.882,384.2522,-273.9135
166.30067,542.2573,-246.21027
122.78737,374.80783,-318.7963
99.3197,606.6995,-550.90515
91.78172,303.93182,-635.30255
51.96854,985.12103,-977.48444
59.760303,627.4388,-1158.0808
-109.62426,271.50137,-570.8948
130.80138,1150.8168,-1357.3463
280.4559,1192.0125,-1525.1158
-17.764257,1809.459,-912.53754
136.84213,770.7007,-637.06635
246.83359,618.6998,-566.1944
433.60275,426.6037,-372.79736
443.6184,261.6766,-273.85922
339.6941,373.19418,-216.90811
252.9203,659.88947,-171.04633
219.65034,639.24506,-342.62708
129.486,885.6926,-508.43918
92.84687,1062.5782,-736.9837
-22.75213,1238.6287,-1001.63513
-56.073753,1251.9248,-1290.6051
-270.98892,1219.9402,-1692.8002
-386.9533,1164.0133,-1545.8718
-310.2462,952.5323,-1222.0244
-173.0338,590.6609,-858.5903
135.53802,441.2504,-544.5808
329.0054,245.9926,-404.16376
366.418,203.58763,-406.32272
278.88577,193.34253,-417.73013
254.0674,180.76834,-423.8782
240.07817,194.70335,-463.06348
201.47108,343.43698,-581.1104
121.244194,446.84814,-577.169
83.025925,480.86032,-510.45905
111.522415,446.12076,-471.35883
170.16805,479.6717,-601.3594
172.5258,595.4639,-938.5797
186.2024,894.0315,-1174.0834
99.08637,1025.6255,-1580.4594
-17.918484,1075.2958,-1520.1444
-79.42418,1119.6768,-1132.0396
28.722502,1093.821,-1064.3104
151.61137,845.67474,-920.1003
190.3453,815.7822,-698.8466
228.80565,734.1157,-590.1304
285.1358,715.6132,-485.0666
347.85208,695.01337,-431.26932
354.60547,759.5097,-459.36523
362.05045,847.6794,-527.57806
300.1538,887.8863,-478.925
206.67369,759.63434,-438.29822
121.6379,721.2647,-359.8452
193.15851,721.19165,-396.09625
407.8034,914.5813,-518.5058
750.73645,1260.2418,-802.05237
909.51544,1693.4695,-884.46814
616.35333,1387.5532,-434.92215
630.0584,780.10657,123.08515
703.1695,669.895,352.095
473.90622,248.57977,397.22388
378.20993,-291.58597,365.48346
428.0128,-74.736824,280.27463
349.4542,-30.74228,1.9391798
415.35742,276.47797,-50.489937
641.68396,359.86502,-293.6883
938.3698,699.77014,-437.2391
1115.7308,780.63086,-30.293045
1224.811,926.7937,-118.62244
1311.379,916.7783,-197.73479
1041.9132,903.73376,25.742502
874.2156,1046.0095,-23.214066
778.49524,854.616,-169.91597
534.8435,561.50916,63.859234
473.81262,362.73032,-10.272359
537.8436,234.13403,-124.160095
476.96722,222.56282,-47.960857
435.26953,131.58203,-18.03712
515.3636,314.14618,-34.70552
685.6606,424.6426,-182.88042
1146.5314,656.56604,-240.81389
1256.6528,763.51013,-211.51581
1279.4272,572.5795,-245.32239
1327.4297,619.0688,-385.43008
1206.7511,885.2041,-426.3123
997.5776,753.1948,-189.12196
815.25146,710.10974,-56.26334
780.44934,627.572,-39.221043
686.18036,459.90506,-110.390465
584.0828,380.3567,-93.014595
480.00278,299.42807,-88.80701
462.96912,276.11325,-167.62868
427.28494,246.33096,-87.58604
507.86682,285.1434,-54.81273
579.6086,395.039,-90.52218
813.435,620.36835,-200.72849
878.1303,789.1966,-258.12335
824.4431,1066.533,-124.770035
973.24493,1083.5131,34.77179
1029.1233,940.74744,-58.129547
1005.60706,1003.0776,-347.61853
971.8585,887.2872,-453.65118
699.18494,771.6224,-322.01425
473.38358,547.164,-159.2633
407.809,493.27838,-226.45624
358.01996,467.10562,-192.59483
329.43356,484.08752,-206.86601
344.47025,498.3933,-190.49387
363.82318,517.0042,-226.28108
357.86472,551.2824,-196.96573
388.83295,757.68695,-151.61014
389.37122,642.8776,-74.373314
639.9096,904.01697,-253.0903
795.0298,1340.0496,-602.4561
655.51764,1774.281,-1123.7286
475.27734,1865.8785,-1146.674
426.20578,1492.911,-899.5456
449.3807,1034.139,-659.8626
449.54276,760.56836,-543.675
435.71118,664.5604,-446.41446
388.26178,575.6201,-406.00824
360.2026,563.68695,-357.3565
346.78125,593.64984,-415.7764
362.88196,605.2151,-500.54373
328.9289,775.98315,-565.9725
285.2888,816.1478,-591.8679
273.21423,867.9392,-609.58453
232.46185,881.537,-531.08716
266.59518,835.49567,-416.0235
304.07812,824.8291,-242.3506
349.964,811.08545,-153.10475
333.4375,892.6903,-131.14825
298.081,982.70935,-290.9705
343.64996,1007.3308,-458.29288
359.20285,992.70465,-478.2653
353.4628,896.50433,-388.04086
357.46313,877.7653,-373.68472
385.6039,779.75934,-349.3348
394.67432,794.84644,-364.34213
402.77277,707.2188,-275.9583
422.0315,944.37085,-369.04996
483.16772,1088.299,-569.8909
478.6785,1079.1183,-558.24023
435.0928,1069.389,-515.8405
408.27234,904.79535,-371.73233
373.91425,714.8955,-349.4859
352.64957,650.88226,-281.5222
318.55023,543.7256,-185.21745
259.6012,494.44998,-13.183987
261.2831,639.211,-202.96806
274.7487,896.90717,-518.1345
265.8918,870.1855,-578.48413
273.8594,876.36304,-740.973
349.55328,734.3329,-974.51556
327.4975,778.2446,-909.26056
549.6245,541.70325,-1336.1647
432.3734,634.8554,-1527.0073
524.7686,984.56335,-1915.2031
598.1667,514.81195,-1483.1437
424.84595,437.36987,-766.2778
284.97382,386.8093,-262.42795
204.69305,119.42908,116.445145
275.10855,-30.777155,311.81393
322.4563,98.64354,257.46347
504.74582,322.74036,-227.02026
577.6152,672.38855,-760.28955
720.86456,1177.3804,-893.2513
778.2195,1013.3775,-446.69177
741.02637,585.77295,-133.64185
703.1757,279.24854,200.7141
645.6694,81.61611,161.47102
609.5563,410.1277,-329.4898
700.7367,573.4608,-988.66034
908.0595,583.53796,-1182.9802
945.6505,380.28912,-816.1047
774.4673,263.9242,-423.22366
671.1143,229.77809,-184.08931
554.94653,245.09427,-165.63168
504.09583,412.30078,-403.03174
521.97095,454.96173,-716.2093
491.53726,533.33093,-1067.6135
395.14575,856.85626,-1039.6097
426.30887,793.6243,-893.55884
444.78638,553.2731,-651.0966
419.85904,377.51007,-606.8251
401.85825,462.10767,-801.0658
376.5501,683.03314,-1110.0056
365.25845,782.01245,-1162.5353
392.50113,722.77026,-923.2784
384.38632,567.32465,-694.97
395.5033,447.85837,-503.43777
345.9623,424.4066,-536.57916
349.22092,559.16754,-857.2207
351.54874,582.18463,-980.8312
358.77032,557.2664,-966.0405
359.11243,505.5535,-882.6025
366.3268,467.07538,-763.1214
333.08298,473.50528,-731.69086
347.9374,487.2544,-797.2635
350.7911,494.62033,-819.4086
370.1481,512.2824,-808.5653
367.33118,541.89734,-789.49243
379.71735,574.9449,-794.3242
367.8232,550.58167,-767.48016
364.8857,575.7358,-797.58905
362.24368,607.14,-892.25543
430.31403,594.00446,-1023.2211
487.91934,590.05566,-966.2773
495.765,588.6277,-778.5055
486.32547,444.17462,-607.8965
445.72473,381.25586,-415.48337
344.29007,325.4402,-176.55931
286.1186,213.70047,-197.92209
193.34375,240.54591,-589.6068
155.73592,279.7873,-1373.2852
32.541546,464.0961,-1495.6556
88.30376,711.0335,-1249.6917
213.9545,444.0595,-1025.461
321.098,342.22296,-830.36053
346.68353,427.55182,-782.3109
348.60904,575.2227,-772.6077
319.0273,547.5625,-887.4676
341.95703,520.617,-962.72845
325.7053,575.217,-909.7675
331.3053,642.3936,-884.36786
283.1058,704.3243,-881.53577
261.19196,813.6169,-910.19574
220.78479,821.94727,-888.6071
162.70044,872.58356,-869.78375
71.1025,973.0018,-733.62317
-4.4056726,1244.456,-386.7368
108.847084,1157.9832,-159.9096
198.44861,440.8146,47.06433
282.07077,-65.97139,427.75125
209.61333,220.87639,614.35895
222.63063,601.773,651.057
287.88394,754.4672,597.9869
298.24582,812.9663,590.6191
312.32324,770.14465,605.43585
264.65884,736.3456,638.46246
272.68295,714.75104,617.8581
239.66472,724.61835,644.756
256.98563,701.7703,675.7502
234.94228,659.22296,641.89874
260.68506,704.2659,609.1628
263.6148,745.6845,589.5926
299.7774,747.2208,561.94696
302.26978,724.58984,556.00616
319.187,766.8081,549.51917
276.2378,752.6485,577.5665
306.3478,737.16925,571.98926
272.54932,733.58075,587.1953
297.42972,758.39996,601.3905
259.00372,768.93365,591.8871
277.77704,780.8015,590.5467
234.88342,750.1974,600.2186
261.04214,770.9257,612.2011
202.93579,773.1151,613.91986
271.16888,766.55835,617.2349
248.9679,761.7596,609.0678
324.99512,817.68555,594.8514
297.00275,805.82263,619.96234
459.55695,823.6573,636.12415
373.93115,776.06104,700.4315
759.335,830.7064,767.49445
