# PAMAP2 dataset (wrist-mounted sensor)

acc_x[mg],acc_y[mg],acc_z[mg]
147.83199,861.7389,349.8858
493.17728,676.3286,382.3855
367.54422,697.84106,399.07974
470.41635,837.70984,279.75348
328.01245,751.6347,310.81848
377.30402,1052.7075,317.2189
389.53412,861.1519,310.92758
388.55362,875.6219,292.4238
386.5435,836.5883,324.11792
410.54724,1080.122,315.79593
359.934,950.82007,338.1786
368.452,1055.143,356.63397
344.05478,803.8224,306.6968
290.6011,1129.631,319.919
254.66948,668.89,229.9305
137.73834,932.37573,340.12924
108.2768,794.43787,205.76317
13.768807,857.67267,351.56467
-46.312386,517.0164,392.67957
-84.48145,1717.7979,692.0091
-78.16953,2026.0625,642.2487
234.59926,511.75867,376.94357
71.203476,882.19403,532.7306
98.75044,1217.695,629.7905
134.70403,1186.8005,575.95605
142.55338,948.62616,636.0135
237.05263,685.0646,375.3998
313.59912,658.5343,369.0352
286.3776,289.02402,396.21353
372.5068,479.95715,250.84592
290.88452,462.983,219.86113
381.21484,212.45084,149.56102
113.60687,134.00406,164.66054
-1.2197148,827.82056,352.73517
-204.82999,13.641065,56.60584
152.31625,2497.7393,684.1296
2.6410022,2813.9243,833.8556
83.95908,144.36234,-165.14957
186.61444,793.52295,506.20157
109.0542,1196.2483,588.5694
-65.013794,760.3631,401.6234
-541.01587,1009.3582,524.8795
-523.4697,1203.5017,305.8705
-503.3922,-155.11827,127.02972
-455.87683,-220.67743,103.14741
-834.9876,-79.9776,-99.81943
-813.462,558.60736,121.41668
-1014.87476,1250.0636,123.54963
-898.06396,1166.697,339.72906
-1533.7125,1177.7728,-7.5101204
-951.25037,1768.976,215.53938
-895.27606,791.37634,582.20215
-1311.4989,1904.3137,794.2706
-1026.7974,873.7788,533.0285
-1103.0552,1359.622,821.15405
-907.2453,1236.9868,791.7937
-915.71014,1836.8663,914.3337
-423.15164,973.31775,561.05255
-431.11447,1040.7682,660.31964
-351.0174,558.51984,359.47897
-530.13806,945.31696,270.52133
-350.65143,392.9413,136.7172
-382.01135,569.26825,184.99713
-260.7061,223.85828,148.62375
-171.61742,420.07382,223.32053
-27.317177,25.832474,16.914833
-16.481993,407.2211,304.83994
99.29521,-26.296494,74.20096
93.081406,484.7999,256.94458
56.04433,-121.69216,85.18044
-103.97916,369.39386,335.14966
-242.70558,-538.55493,-184.20233
-227.54515,3518.5847,1694.8153
-579.0344,2874.522,445.13968
-174.738,-881.7031,280.3794
-890.98865,1851.5637,980.7686
-870.5349,975.5129,581.556
-823.6647,809.6757,578.05585
-653.24176,628.58026,484.443
-571.42706,970.09064,410.22797
-528.68066,1108.7902,134.03076
-326.96875,1631.1827,352.70126
-133.11526,8.193271,-20.558544
-158.54192,509.54135,158.15862
-67.714386,257.66705,-147.04752
-198.9897,314.97098,-228.60928
-412.33618,387.1225,-105.91798
-1025.1545,351.44583,445.31702
-1592.791,752.3221,125.635376
-1755.8812,521.8381,73.68627
-1657.1306,810.8348,507.2449
-1674.6538,1562.2019,785.8851
-1821.0007,1102.6931,493.7524
-1559.5496,1332.7802,618.391
-1256.1724,1418.2737,504.64188
-1168.5273,1109.5564,167.39114
-1011.7245,730.8847,-4.0656257
-924.9206,841.7608,-50.148273
-769.9887,534.01526,-47.08334
-561.80896,506.83304,-46.940727
-445.90012,362.33246,-89.14251
-278.58566,339.62445,91.76387
-52.196774,-21.004381,-82.34745
-99.5115,263.63693,50.494164
-58.336594,-215.69986,40.249516
-142.99011,338.0012,126.296684
-171.45618,-188.65607,129.54411
-217.53944,732.5354,271.17538
-235.17355,-214.40318,82.801994
-385.94843,3739.8342,2009.5684
-464.85907,2495.499,357.3227
-306.67065,-348.57675,304.57617
-848.37134,1923.7434,661.35034
-468.34497,-79.33756,379.51028
-704.95905,633.10315,588.48694
-630.9986,877.3934,393.7503
-631.3829,1521.3528,517.6644
-376.90872,-417.38022,9.432602
-740.4819,461.93027,326.15756
-375.20358,19.77581,153.25687
-356.6952,45.35139,29.896194
-406.87308,135.53082,-145.57913
-815.36993,848.57404,500.0172
-1247.94,422.1506,240.5725
-2014.721,1053.3218,48.796383
-1841.335,426.38782,125.5224
-1750.0149,1050.7777,536.5817
-1858.3124,1415.6134,721.1007
-1548.4778,1056.3635,560.0852
-1170.9601,1156.4077,541.7562
-1241.0398,1106.8778,515.65027
-930.43005,757.6281,-195.21788
-946.5399,654.00916,-52.81506
-707.6616,671.72736,-141.13715
-784.20465,795.38367,-94.00306
-498.59326,580.70496,-27.639256
-427.09872,474.7818,-28.905111
-197.30276,423.3915,41.825874
-164.94989,435.50037,101.54495
15.132434,172.79726,44.66077
-10.627927,144.85667,223.67572
148.75455,277.6714,346.71664
18.970392,385.90237,403.61203
186.05661,442.37555,415.3982
-138.10164,78.5285,260.0117
184.13762,741.1615,507.07733
-479.07755,4737.2974,1284.3384
-45.29334,103.26924,102.63791
-220.31285,229.8982,400.88864
-460.47336,1426.0309,357.1299
-340.97592,592.23236,390.3072
-521.9813,707.989,288.25714
-215.4084,685.9296,428.47665
-221.11383,676.9205,263.45297
-260.70615,600.1424,294.9511
-440.94666,510.6047,469.4438
-356.13464,634.002,490.34125
-449.87552,423.06885,355.0226
-417.25195,555.6384,466.1547
-528.5613,635.3421,405.18097
-504.76825,725.2641,483.93683
-798.9897,940.56,506.76123
-927.1083,710.1647,184.76317
-1722.7086,1675.4321,157.80116
-1681.376,1735.8065,475.78625
-1059.965,1599.7186,313.57678
-696.3473,1566.766,479.24365
-599.85834,768.5614,216.48209
-491.2277,732.58496,170.42812
-488.4492,198.32144,46.799374
-483.56372,208.92633,108.56246
-651.4051,480.99493,0.43073425
-547.9792,418.35587,51.7341
-490.58942,489.60605,5.5984745
-288.83606,287.614,85.45932
-204.92957,194.68817,118.27153
-51.981117,76.16602,342.86847
-558.6618,1368.0497,451.81665
-817.607,1997.0477,650.1775
-493.9371,2007.9783,649.4233
-342.88168,2213.4995,860.73456
-251.92827,1626.6085,647.1099
-168.34502,1221.7856,769.6259
-78.55509,732.8597,366.38107
-28.811205,749.2265,341.78134
146.6599,540.97003,37.312958
168.61523,367.70038,47.265778
221.97809,55.872723,-104.965706
194.55708,188.82703,189.86539
236.55515,520.82623,-37.5381
262.7165,398.0805,275.54205
284.601,251.5849,41.193176
260.67822,269.69772,333.6617
216.78864,271.38977,-105.13473
198.86009,357.51614,496.04654
168.0673,221.37903,-215.29912
70.83122,742.0481,905.18787
-798.99524,5611.3335,2377.6255
734.267,-1166.5231,-423.97403
327.97058,708.55853,1231.4935
160.43747,1348.7639,601.8376
-285.90756,203.1351,803.0945
-1758.4474,1555.9263,173.64998
-1245.2748,553.04785,62.121803
-602.28265,155.63297,134.65161
-278.52863,-679.14276,183.16234
-664.8153,-5.558142,83.99305
-760.0704,393.34555,219.49614
-1145.321,1134.6411,286.11115
-987.4662,1431.5583,309.4619
-664.24335,645.37476,-24.112503
-1398.9788,870.1102,333.93744
-1188.7883,1549.9894,316.32892
-1142.7305,950.5356,586.9758
-1247.484,1760.1559,757.5676
-1413.8593,1185.8337,772.7851
-1436.3044,1672.5858,989.38824
-1230.3131,1333.8337,886.1419
-806.8933,1058.1658,684.1495
-705.35834,806.6008,766.20844
-894.6515,926.505,384.43152
-738.4197,818.64905,209.62978
-556.5913,935.89514,253.1719
-502.38184,449.44406,112.91699
-528.00507,1033.7972,146.77542
-227.19012,242.69818,40.010674
-128.16245,560.836,216.9886
5.2771835,93.78275,33.22475
-141.68047,446.33966,189.90761
21.68401,142.94366,-27.966969
-102.017876,582.77954,257.28314
-111.25193,-199.32759,138.59753
-185.97926,649.1682,173.62454
32.077698,-673.7802,-65.9319
-152.96663,4235.4497,2655.343
-306.4136,1089.1882,205.26868
-435.40414,-546.1304,807.55615
-766.13336,2381.3118,862.3116
-837.2292,81.75702,375.07034
-751.84375,1480.2556,943.89307
-220.9491,334.4699,385.22644
63.391068,144.1498,288.60184
-62.64806,-17.489532,78.99579
-93.335594,-110.622505,-187.31415
-572.47766,-15.64025,-246.46492
-817.905,570.48157,-9.769476
-1136.4982,794.53467,269.57538
-1093.2577,840.999,196.83083
-1674.4211,405.30527,165.14531
-1981.3617,1214.209,450.13034
-1405.3477,423.88397,462.15488
-1550.6785,1376.3802,880.0727
-1276.9036,862.51917,717.7343
-1546.5651,1031.5574,761.6795
-1454.2852,969.97565,725.3015
-1512.4032,955.6999,577.9165
-1286.0454,1010.5737,512.42645
-1375.0729,926.5476,324.86032
-1126.8041,646.55206,350.33316
-881.5304,400.15256,358.43814
-579.60614,480.5748,146.90022
-488.4724,313.1939,109.80825
-429.5446,376.6592,171.80113
-259.0523,153.8166,16.989899
-49.943203,280.33923,107.09115
-24.09212,-37.949524,-75.29156
38.54706,101.060036,166.28746
-64.879074,146.82109,-117.95794
84.042145,530.7962,75.07779
-25.200449,-134.02586,-212.13655
-114.61902,866.6033,1440.982
-315.5897,4168.3213,1683.8252
-219.2568,-119.867134,197.48193
-1026.1508,867.9542,1095.9827
-807.30566,777.7392,514.4761
-791.0676,668.4866,718.1501
-485.8552,385.87857,464.5036
-296.4783,542.2171,744.9609
-157.7444,1273.5181,598.8119
-302.00082,328.2044,258.9105
-363.15366,774.09937,264.3274
-283.58548,710.50354,102.31775
57.003574,771.08,103.46951
44.802128,319.6784,340.44467
-264.84305,1254.4287,600.21826
-320.60168,1146.3602,791.7281
-92.292755,32.50756,-132.1611
-256.61075,-404.23785,214.01474
-338.3902,62.06217,394.19492
-1726.6836,672.89545,830.8889
-4651.6616,1313.5992,756.9905
-2057.8584,385.72,-268.5255
-1373.4558,1147.0632,986.3969
-1375.9901,1422.6047,786.7116
-1149.4845,201.74043,-17.186434
-1048.7877,746.0573,11.422226
-811.77625,653.70197,110.51205
-671.78845,911.7603,202.12177
-588.1184,276.87186,-28.369678
-352.66733,227.91599,18.868975
-239.59743,197.68394,-63.362675
-249.67133,177.77817,49.793087
-126.353134,183.09567,-28.551365
17.962608,295.41486,53.05717
138.8103,271.31012,122.11175
57.58488,288.36118,8.832344
134.8576,724.17804,491.52805
-569.4396,1249.1105,1029.9868
-562.05206,2464.6023,903.07465
-798.03723,64.17628,180.62305
-1788.2661,421.97534,644.2609
-1150.015,857.295,775.7246
-540.8069,990.7833,145.77533
-283.57626,931.44507,571.9841
-464.06442,206.00397,265.71127
-422.55927,388.28854,162.94273
-364.3894,647.4478,314.22256
-613.9889,802.7339,350.41898
-602.25635,386.08548,238.76466
-572.7109,618.13153,176.39464
-563.96844,531.96875,309.1696
-560.5994,1059.147,476.1543
-256.97226,391.10675,340.52844
-511.8222,453.72433,489.52774
-1098.9706,418.13855,774.6293
-3054.0063,1623.2186,835.0079
-2600.2297,1151.6882,281.33743
-1523.9635,938.6599,809.3298
-1611.351,1117.2811,907.9541
-1265.7411,503.0137,201.45798
-1073.0641,680.74207,136.06642
-842.7389,545.61725,55.932724
-734.0823,718.3502,78.64219
-609.94354,469.42435,45.40689
-588.80316,363.37405,-33.703453
-295.68295,181.47678,-134.83995
-219.09871,362.03445,-18.82752
-60.239197,-61.728256,-104.20727
-3.9088616,258.3557,42.96757
171.72084,-147.36441,-109.82509
49.229633,448.66913,316.9531
221.65167,-491.27594,-344.49985
-299.33496,3553.5425,2549.4604
-125.80637,2950.5269,848.377
-60.37402,-525.92993,180.35913
-809.2901,1447.9246,846.06195
-344.15567,120.63209,406.2569
-529.2236,620.7891,794.11816
-146.18326,672.85205,203.49384
-287.63956,1184.0627,768.33624
-284.06158,-55.534424,256.1884
-472.4065,878.0739,567.4623
-335.93146,701.1261,306.9677
-310.5094,572.92377,501.96426
-274.40067,876.06555,676.1934
-46.53337,1141.3419,730.8624
-62.91161,317.4257,178.33891
89.12483,1004.5884,649.8141
342.68964,586.9892,362.22333
590.2557,595.797,421.64365
113.133804,795.0703,533.6748
-647.1162,1619.3091,728.3727
-365.24426,247.8282,119.97516
-1692.7859,1603.7286,68.01173
-2632.8967,2481.4893,723.8771
-1537.3467,1291.3385,538.13916
-771.6135,1475.3734,632.4812
-819.90607,1200.5806,622.23236
-721.00085,472.7947,295.49063
-629.6983,478.46558,302.76508
-503.99567,222.26971,123.0549
-214.7825,143.0164,-15.670868
-148.97417,128.35883,-213.53424
-44.751522,126.16356,-117.82994
-109.10329,-46.446655,-156.39241
27.394077,223.52986,-3.705249
-22.13496,-6.916401,-112.88619
57.003803,-238.24925,452.53894
-407.215,5012.717,2352.1753
-551.9975,72.65534,-11.029881
-1016.98065,910.8699,541.87897
-1122.9913,545.4731,-55.2863
-1137.7987,-774.5966,244.12155
-1092.1853,637.5284,192.2484
-522.32556,-549.47125,103.77206
-815.4354,330.04105,7.4020615
-986.2564,69.05884,116.443245
-1427.4419,690.24835,265.31497
-1649.0947,919.7528,535.31866
-1377.7601,1197.6874,188.8988
-1479.0269,91.424095,140.3014
-1752.1437,670.24634,372.63013
-1383.3535,1067.5752,494.68887
-1478.3788,797.47797,825.14667
-1365.3651,732.5957,887.46014
-1490.5822,1190.145,723.39935
-1694.6914,524.19025,874.23895
-1734.0763,1375.6305,788.52466
-1649.5082,393.06427,339.26324
-1484.0247,796.2935,232.08517
-1156.1732,580.4069,409.57526
-1023.4031,863.9993,156.04424
-699.1016,379.67767,109.01824
-453.01593,445.59265,-16.605225
-283.60162,86.63395,33.77669
-136.74454,227.4855,-41.794395
-171.15306,99.25412,30.664328
-108.076866,413.4115,-2.7023878
9.044739,135.17781,207.10843
139.86786,229.38797,-5.250027
177.79665,-321.86246,129.87566
289.71646,52.3848,-293.84583
-378.19037,253.92908,947.4951
-1350.3977,6021.103,3200.253
203.85019,-1258.1761,-322.88184
-1211.9807,1208.2946,1208.8586
-691.4852,910.5072,263.79584
-381.76843,594.093,1116.8538
-110.3249,1104.7239,576.9884
-75.25162,460.23737,696.05316
255.92207,653.04364,386.52936
310.25555,97.565704,461.79764
205.59401,61.96302,-88.33882
-48.839375,-183.43948,-81.36368
-129.87805,-99.35026,-192.46774
-596.9529,193.73387,6.9735236
-708.87445,225.79439,-4.467821
-1300.9718,1071.5138,221.77031
-1409.0099,1652.3848,362.29794
-2453.8777,1628.7892,930.24615
-2177.267,1325.3129,506.47733
-1526.7266,1840.6875,1082.6595
-1428.6227,1379.0312,937.687
-1435.2738,992.42975,635.7095
-1199.1694,765.3727,555.01855
-1214.097,887.98004,616.8437
-1074.1943,675.0054,143.52924
-883.57135,556.5821,319.74304
-565.6116,488.80844,72.73807
-646.8283,650.836,141.64316
-350.3383,174.806,77.29368
-240.0022,514.7905,146.30638
-203.46892,254.8634,-26.353212
-189.12927,424.51987,211.88213
32.100964,95.9277,54.84621
47.344673,545.9816,198.2411
221.16667,-148.96707,1.4952656
154.117,417.1177,122.24594
290.01794,-816.0193,-144.50919
-71.70642,3906.9722,2615.819
322.5175,1359.2255,835.75146
3.5438688,-196.86266,748.1068
-1096.3997,1712.2013,589.27936
-941.7798,-117.273094,301.73074
-1049.9843,1131.9894,646.0987
-382.79813,654.2982,606.5273
-399.8971,670.56494,446.2453
-435.44733,836.4954,548.4533
-438.9709,249.14198,58.154186
93.01975,-312.78546,25.28192
-296.36703,-296.02853,-208.06496
-526.08154,-108.0493,-169.29285
-832.7581,207.86436,-116.10172
-1046.5538,433.4793,176.04973
-2162.6335,787.8443,642.60614
-3069.0005,1450.5563,625.6363
-1808.7395,108.77204,-355.6089
-1766.6475,1147.9221,604.38654
-1470.4482,1657.292,1063.1473
-1354.775,274.13348,749.4945
-1347.8622,666.51666,465.68454
-1381.1537,297.2376,631.183
-1399.6462,685.58923,388.57596
-1459.385,811.43866,276.4441
-1413.0908,587.6424,-52.102646
-1163.6508,459.19995,163.60345
-849.98224,642.2125,13.475528
-647.50684,303.12723,59.239323
-401.54376,171.31271,-46.952126
-177.27908,194.19743,80.33993
15.341698,134.62901,-18.366589
80.81244,-5.789364,156.8118
147.27324,184.61633,72.984634
-15.233335,315.2193,188.2997
150.35411,315.8335,122.169914
89.66886,1686.1053,1334.6154
-40.60756,1450.2626,878.16595
450.8435,330.18097,612.1837
-480.15985,973.64996,879.6649
-907.1065,627.98834,764.7653
-1490.5671,520.91895,381.18915
-1775.1957,710.423,345.42114
-1030.3972,288.36578,-129.37558
-378.5434,-249.48616,-46.090996
-481.97006,230.72923,-15.829163
-689.8061,422.1559,335.40833
-619.6759,537.6247,324.25958
-451.84952,146.79504,229.84148
-1051.0045,350.8801,279.5221
-1627.4135,908.9205,621.1465
-2191.6765,862.52264,609.5266
-1878.8967,560.7908,356.5686
-1444.921,480.55804,321.3059
-1281.0009,1202.8344,850.34125
-1251.0707,574.5998,767.26605
-1658.404,273.55243,795.3563
-1691.2407,412.2577,183.11356
-1558.3373,225.3444,502.38998
-1491.3037,838.4829,445.14297
-1505.1746,390.49304,193.22551
-1264.9031,404.8261,108.01902
-1005.0453,503.19467,197.19608
-811.312,479.56906,25.401014
-630.97095,500.4327,302.98822
-481.96783,363.47095,9.740917
-263.70468,366.9982,169.9559
-145.06744,258.61972,42.53932
83.03271,50.50361,154.11832
74.873535,125.191795,-135.76865
159.4817,-254.10744,176.04967
111.12692,75.09675,-433.24695
-113.57709,-261.3581,696.03094
-467.84573,4125.024,2096.4229
275.09314,784.3434,591.7264
-141.19905,376.3292,739.35443
-597.2566,997.43567,636.16046
-679.0813,284.45773,734.3159
-847.58295,981.4862,492.92215
-762.3169,307.8924,507.37997
-698.9739,656.7904,447.31946
-870.37244,487.68958,173.37315
-449.76468,440.66614,426.14694
-401.9786,1103.0161,711.89465
-208.23222,614.5923,263.53076
120.61414,933.8436,642.93164
-86.18069,832.759,392.5491
223.78954,349.6145,271.49036
64.60225,873.1227,577.65607
45.17628,941.58905,606.20667
26.276356,283.0878,369.37485
-254.12297,821.54016,1021.5343
-287.7895,569.66364,739.0333
-684.2788,119.14415,743.7825
-1796.204,1592.8298,711.9713
-2278.7332,2004.1528,627.9931
-1875.8461,1729.4042,462.34586
-1109.3436,956.8199,460.10715
-971.762,1019.78076,615.79803
-665.3861,645.6285,258.40726
-516.67,772.89874,194.96689
-403.35382,356.62112,131.18874
-374.4811,304.77335,80.26296
-254.0731,107.59123,-29.289825
-259.27118,362.04785,-6.2632365
-108.05646,361.28638,-45.215115
-127.13798,594.76324,37.38723
-18.431356,411.26166,35.636677
-74.0732,468.64664,214.26622
60.87807,160.35533,224.86684
-121.35853,93.54263,46.132347
-609.12964,252.7366,760.4436
-998.0988,4342.896,1244.1412
-649.61035,244.17699,-7.379062
-1335.7888,815.49036,565.5963
-836.7422,681.15894,248.19696
-443.91022,86.818436,735.18225
-284.21133,735.6784,517.98883
-305.25302,468.05484,334.6383
-403.0208,671.6569,237.34937
-515.69586,608.08636,307.16946
-570.12,473.96698,85.0484
-668.5539,619.52185,319.16806
-685.3349,502.8365,145.86209
-705.321,675.8384,344.09985
-714.4027,719.36115,282.6465
-724.98346,883.04376,720.2278
-1046.1277,607.0096,444.6357
-1633.3551,1793.4962,641.7987
-1583.1647,1705.4695,982.1399
-1535.6655,1695.8345,914.2902
-1446.3938,1609.002,615.9174
-1300.1495,1221.8292,544.94214
-969.4206,934.651,257.91336
-759.77795,883.78613,141.24092
-607.5611,443.66483,-115.26563
-519.8387,432.63913,-155.38539
-325.47537,296.5375,-162.6369
-294.65372,161.73126,-51.889355
-129.49066,-148.75322,-210.80672
-110.48101,196.66077,32.81554
-6.0055833,57.163723,22.593964
1.52617,468.73892,234.93442
149.08258,99.30853,74.94023
22.802994,590.4539,367.27695
133.10753,-428.98163,69.98153
-496.63156,3682.4827,2371.6838
-283.30713,2275.9927,894.0072
7.3218155,-427.68384,600.8493
-966.5819,1862.3639,588.3311
-786.63275,190.77473,366.72223
-880.51105,690.3458,515.1373
-491.04224,657.44147,620.56635
-258.65778,729.3255,632.14325
-287.21457,469.21014,583.79736
-172.12465,826.16254,571.7717
-110.77328,321.42435,501.62302
-27.165213,741.4322,626.27606
-57.793793,495.8156,562.69434
-169.22517,844.62964,443.94818
-50.22396,489.9777,386.10846
-112.966354,807.06104,434.50992
-267.59103,718.82025,574.4836
-422.3655,633.96405,423.42593
-466.18887,504.494,290.5161
-1151.593,1743.1105,321.40286
-1315.6276,1918.4272,768.19025
-1207.089,2121.1274,682.7349
-1063.0039,1870.2003,698.1277
-1006.43994,1494.5854,595.78033
-940.8693,1143.594,415.2743
-893.468,1141.981,175.76472
-719.77856,874.48816,189.70491
-489.07196,700.7595,-37.45221
-429.17422,219.48122,-10.452039
-297.3614,241.85004,-10.576937
-214.2253,33.288605,-99.62873
-151.00734,186.19014,-33.849434
-16.103973,-6.780749,37.163887
90.428825,379.53656,26.597721
107.18488,213.25214,273.6355
-23.556713,444.37646,289.30856
-210.04205,175.33167,341.99728
-505.74567,286.5509,224.81686
-993.9037,-505.0755,457.83475
-2087.5115,5296.4214,1500.5181
-230.86894,87.828476,265.9766
-1407.9299,109.62601,605.9668
-1657.7555,1432.6808,757.5235
-674.32153,-485.32382,772.0848
-1058.4985,593.05975,1028.1525
-238.91708,67.25277,729.98114
-269.4192,-153.90958,621.0291
-636.5945,85.39086,500.4597
-552.6826,424.36374,380.76663
-670.8485,16.08342,404.5274
-939.45264,959.7207,459.5001
-1220.973,738.88617,636.5848
-1011.2679,767.92444,391.14798
-940.7791,1012.04346,240.18808
-1050.3225,788.9073,482.18076
-1158.416,760.04926,408.59213
-1269.7225,988.7938,420.66025
-1486.5092,860.77075,415.77203
-1779.3365,1020.26404,520.2659
-1765.3265,740.37256,116.168015
-1726.771,915.9339,350.40854
-1271.1477,313.1074,107.19106
-1030.747,828.22754,-86.36042
-850.1351,500.59454,-136.21
-676.3293,853.6536,-1.5875052
-453.0264,509.91095,-64.12206
-322.38766,631.8073,96.82511
-192.14902,393.3691,-46.74349
-260.93835,665.64044,231.24304
-83.654045,184.88496,-16.960562
-77.829834,678.76337,283.77982
-42.89339,243.06685,10.116967
-246.97601,620.2124,324.65262
-157.81529,-634.3363,-149.11569
-715.105,1079.5355,573.07996
-786.0781,4883.5933,1120.0132
5.849553,-1361.3452,103.49397
-983.59235,1832.9797,729.65015
-704.70856,276.01443,-1.3300421
-686.9372,36.67557,472.26605
-311.44894,428.3232,236.22966
-241.9384,-140.08939,121.34125
-532.9768,137.0979,166.19144
-752.39136,365.50903,640.7368
-864.32294,790.78314,434.68973
-1044.0532,1148.2126,479.59622
-1170.7637,1261.7451,484.96283
-1040.106,747.5905,440.47733
-1137.7509,1380.6857,422.37082
-832.83655,667.44714,231.21825
-940.3019,1174.696,439.3783
-907.65063,1179.0312,436.0297
-1064.7932,1127.3613,314.80008
-1231.1149,1233.0352,470.7708
-1411.7821,1535.5673,395.7287
-1414.8165,1279.4657,187.46907
-1341.3207,1488.8457,134.33054
-838.3411,706.02905,-96.08476
-714.09607,928.1002,-192.06888
-584.7016,527.8881,-263.9482
-436.1793,749.25354,-76.47767
-138.17285,510.25366,-77.65543
-161.73448,566.27997,210.04265
96.908844,54.66588,-6.4809213
-34.012363,353.66397,193.4252
139.86086,-152.42325,12.607596
-39.962666,491.95245,214.14311
111.179214,-180.38863,-14.538301
-293.6334,1007.07196,428.43652
75.59078,-592.6306,-215.39873
-1226.5016,4126.2793,1892.7145
-444.05588,3581.125,838.2774
235.84024,-1786.2157,215.45477
-715.74255,2384.9602,732.3707
-163.24849,-86.37473,345.63214
-438.3382,1056.0692,882.0471
-164.67805,738.43274,340.62698
-45.88847,599.27606,416.25983
-0.30085486,690.45966,262.927
-46.396076,652.3924,411.84534
125.70689,632.31964,307.62103
19.843042,816.229,227.73767
14.312424,785.1543,152.4644
-34.768745,778.5338,274.40176
-209.78915,836.53754,332.36154
-177.32101,575.9454,340.13184
-359.18018,695.18665,483.81674
-383.05185,818.0525,661.28534
-328.35425,648.3493,757.76337
99.81647,817.35095,773.2111
-1230.6711,1278.3057,707.5595
-2451.305,3130.7737,354.117
-1524.6134,2176.332,331.95786
-849.727,1532.9404,349.69815
-678.22516,1433.8341,391.82645
-591.91565,694.2773,70.80749
-468.08444,709.1365,270.12357
-348.93823,431.7908,60.91369
-259.8646,348.8507,103.31658
-204.16315,-24.446583,-134.01329
-160.56982,147.38528,67.93452
-60.811295,-180.44325,-227.24333
-31.19876,203.20561,114.99313
165.84636,-311.25073,-175.19171
220.8244,509.3749,242.49353
233.37361,-597.3961,-378.73856
-699.3859,2867.9658,2655.186
-262.30185,4540.696,1508.6796
-40.371407,-1345.4811,10.071667
-771.64374,2071.5652,899.2976
-512.4033,345.24316,172.74544
-700.90436,1102.23,744.6438
-424.51218,432.42035,225.46536
-461.27368,1073.8905,501.12567
-122.54749,401.07346,250.85631
-137.64302,958.4108,543.1655
-439.10294,680.14014,148.19739
-426.25842,825.92584,348.94742
-195.0361,522.01587,255.34537
-390.95602,638.40906,489.5551
24.206066,-257.00543,132.74748
-90.382225,101.71901,146.98956
-21.5646,-60.06416,72.63975
-776.893,873.9655,590.63257
-1604.7388,1782.0242,431.32376
-2272.0952,2072.726,757.7206
-2087.705,1509.3507,529.67053
-1521.947,1420.1185,479.33618
-1163.1008,1193.9553,549.62537
-1060.6788,957.7443,433.61746
-1072.769,782.5906,192.5764
-1033.4106,956.35693,192.22594
-858.09906,649.7097,40.99567
-701.77783,581.03485,208.93607
-584.15436,230.58958,-15.249842
-526.1667,692.05804,-22.024546
-342.1801,323.75507,18.485394
-182.67094,523.94586,-47.615913
32.501118,389.87946,-111.114334
138.40372,473.55643,178.97997
296.90015,-224.49666,41.60574
275.81277,605.25195,129.41756
-131.98341,-93.32397,499.5759
-238.23744,3421.4993,1406.3291
-376.0627,969.5465,99.73488
-596.2876,923.7598,512.1416
-680.1886,1054.0629,458.12466
-915.1518,769.45575,382.63147
-692.94525,698.25696,182.2019
-50.683895,-346.3255,45.544888
-405.7064,-141.77905,-178.25006
-639.85406,-310.3397,-234.81027
-963.20215,203.4134,-69.31519
-974.847,273.10452,47.28836
-1451.2609,862.41583,115.03763
-1327.6622,1179.4752,474.77408
-1838.6241,876.1187,610.6602
-1900.6571,1313.6207,350.393
-1375.2018,220.30815,334.67288
-1630.6552,699.9229,647.3079
-1565.5616,1313.665,814.8611
-1876.2783,471.01285,782.2918
-1616.9846,239.21025,419.60046
-1502.9852,652.7878,460.15103
-1485.4437,864.0938,435.38727
-1549.0837,747.5861,322.33337
-1198.9901,770.94275,-23.005613
-868.58655,353.34378,164.80994
-548.5479,260.59277,117.21866
-376.57004,88.96913,-26.057323
-294.9859,269.3418,10.203836
-284.3102,233.55687,54.47068
-269.5918,674.81744,-46.51094
-166.44115,380.65826,22.63886
-73.606735,367.72772,173.87459
-23.473257,362.294,18.402145
-66.21881,166.38489,287.9404
-8.681208,67.47505,215.18002
-4.9798183,2645.9485,1890.1575
-275.94257,1917.7241,863.6994
-645.44763,527.639,461.7781
-1587.7252,1335.5886,721.6312
-1236.8021,604.4354,80.13809
-524.66156,262.72543,302.55215
-166.63055,-373.4505,38.921436
-402.70575,19.252762,51.56584
-254.92534,-129.5029,162.37923
-895.127,1623.7642,570.59
-119.10979,1919.0583,147.34468
-825.9546,769.90656,487.9126
-832.376,1332.5197,140.67816
-406.90674,616.1782,167.45642
-413.96704,61.777184,339.94135
-1161.5548,339.5196,402.3989
-1934.5128,1263.9064,255.12306
-1814.4968,185.6619,389.0993
-1796.4371,534.1395,762.8156
-1778.2227,970.9224,779.2901
-1560.1945,668.9337,506.11154
-1457.7152,813.80914,651.2521
-1555.5144,970.23755,469.09503
-1415.3397,599.50354,49.894558
-1256.0529,582.78485,5.4584913
-961.59204,542.986,36.06892
-685.0828,377.86853,-10.06848
-496.84012,116.178535,40.801163
-339.41455,92.17597,-62.477383
-68.76821,-91.30434,-141.48938
114.76904,49.715046,-152.35446
312.01334,-514.54175,-91.648224
372.14978,-66.659424,-203.95529
234.90453,-468.71436,149.80122
-204.19754,4140.1025,2291.9004
33.203434,970.5078,291.55716
-924.21796,601.7662,637.5206
-1636.9302,1533.8877,432.93484
-1356.632,314.4627,281.57614
-1168.1564,1504.3951,709.357
-168.8178,-0.08336758,456.24603
60.91687,744.0207,752.4518
38.65135,491.62515,610.144
-187.5355,1984.591,1013.4221
-427.05807,-73.3037,40.73799
-431.83405,-88.075386,-15.181465
-11.417375,-300.84763,-4.929295
-249.13103,13.9113245,-108.488785
-233.54317,-236.82979,-189.57387
-765.62787,-6.783972,36.966717
-1292.4379,840.1689,46.62171
-3655.5662,1501.4344,1436.5775
-2665.4863,338.42044,-210.95035
-1690.0875,1002.078,284.4239
-1675.2406,1122.7051,1302.1443
-1112.7585,661.02576,625.92816
-1194.7578,185.98494,401.37485
-1250.8351,123.425804,332.9392
-1354.1908,695.6705,266.03033
-1225.7272,418.20663,190.37498
-1080.0211,623.0719,162.46797
-1084.8524,785.0341,136.89046
-1102.4907,523.5702,229.77986
-713.5,250.91838,154.7721
-483.7765,487.4199,73.14587
-354.08978,348.23965,169.97684
-162.48416,355.76538,135.83987
-93.38387,415.53732,214.72722
-106.642685,409.99173,252.90514
-65.33569,364.9575,330.06046
-117.88174,105.4485,46.994255
83.53061,-335.46817,236.01053
-461.51508,2938.15,1566.1951
-535.81964,508.63596,431.96072
-1302.7499,724.05725,858.2154
-1334.4664,1376.5902,475.8925
-781.5168,197.92874,491.68695
-620.9025,1130.6014,683.73474
-220.65344,699.69855,728.8882
-43.813606,319.0229,349.69836
-108.13599,674.3325,667.9026
-117.77907,899.42334,426.4478
-61.321598,120.092606,505.50626
-22.324112,1274.4547,1017.16626
-55.760067,587.009,610.5231
-246.0986,373.46933,302.60016
-140.5982,55.973457,52.970295
53.70787,11.706774,-120.52019
34.569775,-615.02075,-65.44697
-481.24387,187.95425,379.9542
-2940.8225,613.59204,1239.9924
-3844.3843,2162.395,303.61404
-1856.2904,-78.95583,39.04238
-1396.6936,889.0975,665.065
-1248.4337,789.80023,611.83453
-1291.3608,-101.55569,296.00253
-936.0389,112.39296,180.58482
-1171.3115,559.6139,391.54886
-1048.2737,701.56537,333.8098
-1048.9192,964.1075,372.4684
-917.3018,491.33765,196.23012
-687.90247,567.2899,161.54654
-365.4269,361.75284,350.29343
-229.00766,379.92096,111.56629
104.15418,297.88016,-9.240654
129.27693,190.31845,49.14616
297.1684,-53.987988,44.577003
-121.60943,199.99571,81.11518
213.34128,-140.48798,382.58734
-437.18756,2389.7515,1564.5706
-444.50412,1069.3236,803.5348
-837.70685,247.59926,201.70547
-993.2887,1069.9314,708.7905
-1309.2189,1115.7584,920.0494
-1063.9858,265.4962,60.533337
-569.2983,349.87976,171.18605
-561.4389,289.19785,216.4497
-109.64019,-86.94709,184.3989
-132.16777,-137.14598,110.843796
-227.51007,144.50774,138.63687
-440.47653,249.84087,255.00388
-967.2846,610.7373,526.08875
-2019.8734,393.716,684.5886
-3147.4658,1346.8647,467.8826
-1678.8839,-338.41663,-226.46806
-1641.4965,1038.023,743.01624
-1590.4662,1433.4028,1006.6065
-1314.5496,-12.564265,462.14227
-1226.436,681.59503,425.70947
-1290.6128,568.507,347.492
-1277.8064,799.69763,325.75888
-1324.7976,579.9346,117.29827
-1160.4135,627.0056,274.3004
-1140.6334,687.0243,366.9751
-803.4678,310.01898,200.14417
-620.3272,364.80554,230.72853
-413.94498,377.48233,206.95488
-220.98703,270.74393,162.25642
-42.35618,222.19583,180.20828
50.77839,288.77975,188.4353
219.01686,236.80542,218.08557
237.27089,113.75806,118.35894
266.2587,234.74886,323.09244
178.16905,212.79268,162.91023
37.51061,420.5929,1000.01
-393.15298,2424.3186,2184.0232
-204.60394,1414.3848,668.3713
-716.4969,582.5177,752.4707
-941.6651,992.96173,890.645
-805.27625,346.38074,401.55255
-519.61145,103.64583,319.50217
-269.3436,197.37605,142.43445
-31.847727,-194.2638,-41.04855
-199.3087,18.03258,-46.11959
-368.4423,116.21272,33.65889
-726.3662,282.50195,45.74771
-1145.4486,505.016,182.5265
-1636.8932,696.79205,442.09293
-2348.2712,1275.099,580.18665
-2028.8624,614.0975,175.32477
-1494.8237,399.08203,449.96033
-1394.4059,1271.2029,938.3292
-1320.7045,721.71075,825.934
-1422.6443,691.1355,735.20496
-1524.0056,659.63745,519.11774
-1578.488,607.5037,538.6348
-1390.7935,673.4019,501.01855
-1402.3213,729.8567,395.12445
-1218.8578,374.62494,261.7266
-1195.6796,620.5024,242.08313
-821.7434,370.07407,72.9205
-774.7951,783.81976,395.46625
-598.03534,345.16476,170.73108
-324.65912,369.86493,92.32463
-107.510025,39.674347,25.680275
-69.28362,298.6593,180.64949
118.89132,29.407858,-40.305454
145.33743,341.7737,224.71358
282.4036,-197.39142,-90.62245
63.565216,442.18506,405.16586
62.834652,-436.06335,-205.28026
-336.88855,3244.356,2130.8274
-727.0955,3073.2817,1893.384
-194.24696,-1119.5546,12.062691
-803.7105,1173.2805,838.7652
-347.811,717.0108,369.50137
-267.43512,641.46783,431.73703
-89.30252,595.6763,-62.48202
95.75526,81.0935,81.4133
-57.353973,139.53821,-172.63853
-259.6474,409.28976,56.3776
-412.5311,221.7868,96.215515
-663.7313,529.22784,167.23982
-743.6474,435.32663,-47.86735
-1525.7721,864.0877,690.89105
-2095.0205,916.0149,534.2958
-1717.4847,819.9945,181.79521
-1393.7429,107.78826,463.0141
-1553.4679,1174.9122,856.3144
-1751.6326,651.74146,694.8383
-1750.5612,573.50653,581.0956
-1707.9438,491.67908,361.63217
-1597.4294,905.0306,569.98773
-1410.809,744.63495,311.60046
-1113.3392,467.98904,234.45688
-873.72644,771.0006,174.66602
-510.7743,366.72476,147.58983
-486.04404,356.41003,18.940596
-446.22086,432.01727,106.284584
-269.19272,454.26337,59.31638
-116.700066,278.3107,95.71119
-42.92619,224.97375,32.332417
130.76791,189.35205,143.14197
109.14398,330.52124,-13.343817
175.43568,239.19002,176.91017
-29.004211,354.53885,-83.65068
252.87477,248.97171,354.05563
-433.53455,4299.929,2711.0981
239.62152,229.02449,416.3385
-407.7965,298.1364,1023.462
-912.5166,1375.551,494.89456
-1107.8235,698.99176,446.27267
-773.9236,340.07996,-9.334452
-322.09055,813.1347,1032.8264
174.21808,1728.5398,1128.0505
294.64072,-245.21327,314.00928
-150.64388,1132.567,780.4419
83.36089,545.91956,195.90991
295.49493,272.81842,197.4197
276.50217,1392.8647,870.9465
177.11812,651.00653,270.24243
-30.557102,470.52054,442.52414
153.35196,930.2147,451.55038
366.80646,172.28854,370.8744
91.45894,1213.7622,571.1708
38.992798,493.70883,354.2422
-25.174288,660.44556,449.2273
-724.37573,717.5674,575.83997
-1964.3171,2380.0144,436.40857
-1966.0592,2088.7349,773.92883
-1515.9071,1301.9369,989.3158
-836.7994,1012.3914,696.727
-624.33716,771.9084,766.1023
-510.39056,611.94104,459.6293
-556.4449,907.2718,454.62408
-253.30434,281.34927,163.32799
-140.53215,535.3734,278.1771
-52.598576,72.17921,-147.63739
-22.920023,408.61777,-4.04289
158.2387,128.22606,-214.96327
152.91261,694.6848,104.07207
303.256,-588.4069,-150.79544
216.89796,537.73285,404.15518
194.09425,-538.1695,-133.2508
-598.12274,2608.5964,2029.3503
-372.52164,3289.7256,1177.6041
-433.88187,-1017.25446,137.68219
-1194.0841,1870.709,830.39777
-966.8507,-83.010216,222.14743
-1009.9072,556.5518,460.97754
-220.47441,-329.66544,10.589331
-495.801,-435.4749,180.05322
-770.6595,10.750826,28.668884
-958.35315,346.39664,199.05298
-964.63556,345.97345,248.26823
-1446.2274,394.10086,118.962875
-2045.9216,1990.33,385.4849
-1434.4957,242.38539,142.51297
-1572.5962,776.4522,122.9996
-1294.7667,1379.7745,693.3599
-1217.0631,647.2571,528.85803
-1164.4233,1083.353,535.754
-1409.3209,536.3938,589.8873
-1431.7205,886.31244,669.4916
-1540.7854,871.075,620.81616
-1466.1766,800.92773,570.0468
-1452.5618,691.6478,478.6178
-1325.3221,694.25726,460.44336
-1186.8779,655.7765,403.30386
-736.34406,471.0324,104.49806
-646.8093,502.0205,203.86342
-476.13528,394.3713,156.40398
-257.15637,343.5312,28.871021
-100.35858,228.25989,8.628823
-170.10571,220.26157,149.63542
74.83878,45.312504,28.085468
35.7541,215.51497,124.19592
168.79132,-72.753105,-13.857491
-142.491,198.20506,300.8952
162.46683,-436.45517,-220.56593
-255.21188,3960.3357,1858.4337
117.12252,2329.8306,1227.839
-11.723804,-493.22482,667.19714
-1661.9604,2232.0603,721.4525
-975.771,-206.57341,1.8547137
-1292.9332,1243.5205,1028.5261
-320.89337,489.6315,222.82176
-7.680865,517.35876,756.2188
93.25695,1152.2992,712.423
-20.913595,969.1995,592.0412
294.64725,52.58846,95.41345
36.32869,505.58786,422.93723
218.5547,335.21332,-110.13
267.56763,153.50417,124.97211
321.41025,-147.24832,-156.23648
-61.467968,107.48887,210.3154
-247.1836,19.217257,42.489994
-2308.6292,857.9949,1113.318
-3909.203,1289.1238,511.88998
-2160.1252,288.38913,-189.84424
-1742.5981,638.3892,939.1864
-1625.7987,1510.8473,1060.642
-1170.8259,211.14742,569.12006
-1111.2588,295.78122,312.11386
-1465.8011,729.1613,335.1868
-1318.1721,824.54846,19.394945
-1017.90845,420.7651,3.2765071
-841.8993,618.9508,166.7228
-672.91254,503.2165,3.5711143
-685.3366,730.0643,71.44349
-487.19293,311.1344,-40.893833
-239.09856,507.41196,-63.592297
-109.36616,227.0624,96.9448
118.665985,154.90033,81.682304
290.45364,171.75891,168.86066
331.93512,23.78148,76.25278
263.0968,46.19287,244.90053
-194.41148,-91.26989,109.53922
-654.2699,1169.766,877.4617
-1026.1746,4377.7437,998.10754
-851.7559,-358.84958,214.1177
-1511.7411,735.1816,723.9697
-1212.3912,441.54593,304.08804
-673.97675,-116.60458,612.02606
-486.19095,257.30127,482.18124
-228.59395,814.9246,815.2246
289.94363,521.4678,718.2868
-89.48071,1406.3943,1095.0934
-412.43057,1957.0027,1190.3632
54.070244,-564.1733,197.20044
-315.1668,-43.387352,137.12492
72.426956,-85.276215,250.51028
-5.717795,-235.81053,-21.423416
-122.46127,148.60779,-268.55307
-1713.6168,317.6153,833.25073
-3025.6855,1103.727,1172.4622
-1805.3057,1276.8643,-302.1014
-1786.9272,8.8111925,686.0912
-1565.1641,682.2844,739.9684
-1403.328,908.03265,674.99646
-1364.514,605.05176,348.8866
-1492.7301,565.83,334.0915
-1278.2054,992.49036,-8.509556
-1182.9689,518.1316,-26.636093
-970.2724,763.04333,21.64196
-830.47095,641.62537,-112.12199
-658.36707,418.99203,167.05855
-404.8095,283.09692,73.15852
-245.5526,416.5416,-46.824497
-130.5385,232.6051,28.854557
29.43242,237.35765,59.177185
181.41463,213.97028,134.33704
110.59439,466.78204,162.58192
103.67826,390.12805,141.11194
-119.13002,770.7917,338.45538
-439.21817,-211.73071,83.090836
-1064.7076,2161.9368,1033.0924
-942.0449,2912.7473,1148.0914
-1082.19,-532.596,369.9788
-1525.7883,852.71344,719.94495
-890.74725,235.50208,684.1523
-346.5656,449.90887,834.7306
-90.21027,350.98938,972.02435
-327.8383,1026.9435,973.7642
29.495686,60.829735,680.88416
-175.11806,547.06433,699.4337
-131.86722,212.4192,368.96478
-230.15314,349.11264,214.61812
-356.0169,437.99057,205.68091
-405.30637,392.86057,255.6027
-1032.0647,392.9948,178.18668
-2134.124,1457.5067,546.49664
-1534.0172,393.2505,204.23053
-1420.3821,998.83325,508.3827
-1394.8054,1123.3397,666.6043
-1604.581,1340.8911,771.5935
-1474.8148,1010.6888,481.31555
-1408.9459,1105.3777,623.8808
-1163.8541,1093.6273,465.525
-1069.1848,726.9859,167.15964
-819.72186,515.70746,59.654114
-831.3116,722.9941,82.73878
-506.5028,203.6423,-207.15768
-503.40717,437.08078,41.39853
-256.73828,101.91813,-93.15593
-245.35529,298.89795,-49.978046
-31.897875,118.39256,-24.01324
-60.32951,286.7534,189.25023
74.86334,68.839584,61.815815
-253.56343,349.69058,411.46628
-331.3527,-39.391434,296.2852
-980.8871,569.98315,561.3884
-1041.9064,-407.43692,588.3942
-2117.5552,1225.2399,1234.1813
-1701.2225,2981.5212,1099.3495
-587.8794,-925.98193,354.4989
-1469.892,297.69434,597.4209
-935.54205,289.49878,726.3149
-711.26825,65.28168,543.7785
-686.28424,-50.76479,358.4717
-802.73755,289.45752,601.9096
-856.1591,353.75543,533.4788
-893.87085,581.62024,333.00714
-855.7584,342.8768,375.64044
-858.14594,515.0858,351.59982
-732.0893,502.90854,263.3854
-998.3424,569.2372,503.3632
-1106.53,512.4323,411.76367
-1288.8068,795.48785,499.2796
-1447.2135,784.9602,541.2486
-1505.6383,878.5927,538.9567
-1619.8457,1124.2681,563.6448
-1631.2135,981.30975,505.40274
-1453.1637,997.41016,231.3097
-1121.0283,710.2695,285.93167
-785.74274,440.18082,110.11128
-665.0068,584.76654,239.7612
-480.77567,604.811,230.22122
-300.9216,380.28357,176.43674
-242.40631,427.19293,158.63336
-164.73138,427.1429,135.47203
-115.0844,249.24724,10.448144
3.1272025,245.415,105.93528
58.93222,240.50172,-58.72486
151.90283,314.67703,216.6417
101.74461,-138.22845,-164.74152
22.655085,582.5121,583.284
-446.12955,3896.4155,1750.8547
-323.92368,157.44327,354.62656
-479.99112,1352.939,1004.70605
-418.3,647.675,271.79752
-805.3816,722.57605,632.34753
-618.65326,640.88043,272.29083
-263.97647,1061.1849,581.79297
-233.41959,712.13153,274.58017
-233.42326,603.1236,405.3788
-30.315107,595.32513,262.0053
46.430946,652.1452,336.40256
53.716454,642.29395,214.41592
-147.01073,956.9328,476.1208
-196.26733,994.82874,218.5971
-301.2555,57.44563,165.33148
-313.84506,594.45087,376.32562
226.43352,383.23627,573.1103
-32.253498,1005.7733,797.5073
-709.6269,-11.877248,484.60663
-2304.1309,1732.8956,584.31506
-3915.6487,914.64514,836.0405
-2139.5413,-218.03192,-26.422295
-1442.9573,1500.4858,1085.0945
-1085.3492,337.64093,588.9234
-1121.8973,850.45013,375.6456
-977.5915,631.19006,-170.42816
-846.31,1012.3378,108.17541
-462.03516,484.5692,-81.16893
-395.18362,559.0133,61.07684
-317.85226,47.84016,-127.944084
-152.89085,74.57124,3.2999718
1.3223797,35.134365,-92.68269
-16.418715,305.99484,138.29807
156.64827,-35.10281,47.844437
122.75345,576.3183,155.9989
255.37114,-118.128746,155.44017
229.27406,3122.8765,2307.4658
607.60254,708.05304,501.7347
-20.825663,531.10846,748.45984
-1141.8789,1079.7605,178.13092
-1598.6829,519.87976,630.6733
-1304.6743,1444.5477,420.0863
-643.056,798.4372,415.1922
-208.22066,1065.5278,407.92902
-105.66172,485.01624,478.3335
25.760702,642.50366,397.52533
90.3346,325.91077,557.21643
-68.15025,946.7572,693.8306
22.029678,787.9103,352.42422
-141.86638,559.26135,221.17851
-89.812035,412.60175,344.0219
-313.82922,908.7328,307.07007
-329.537,766.3784,372.75446
-303.093,995.31323,3.489634
-119.82499,962.61694,240.82356
-275.67896,672.2701,762.4293
-522.6615,1384.8375,1072.1561
-1437.1354,953.49927,589.7944
-2371.3967,2386.015,258.32315
-2106.3618,1446.9575,654.3469
-1448.2213,1001.2444,663.95087
-1194.8174,1134.578,311.7901
-1080.5131,737.21954,484.36707
-858.9901,408.70236,105.517494
-623.63416,489.13458,234.83458
-522.192,330.02936,-52.57896
-364.05417,-38.32937,10.252961
-166.57845,31.46111,-153.25212
-9.49245,-0.48594618,21.982515
34.800026,258.88235,-199.13353
94.50403,74.03742,179.89246
169.23778,37.326347,-255.031
229.60263,426.18097,621.8181
133.0373,3440.0005,2069.6228
243.85068,-476.85376,234.73097
-782.15924,1189.498,909.8776
-934.9783,794.8256,355.09406
-779.76764,801.18524,772.869
-706.35364,940.39307,465.96848
-391.19495,508.78293,563.1863
-146.45772,1097.0051,174.83252
-106.20381,555.8894,284.30807
-57.871162,654.7502,208.21767
-169.66335,721.3113,129.28175
-272.3196,676.7966,25.166834
-444.1312,475.68912,120.5997
-611.8039,920.1431,413.87933
-482.9468,654.8564,562.6035
-577.857,464.66418,804.7096
-638.16034,863.25433,770.1732
-475.594,801.6992,665.9273
-767.29315,985.4946,389.35208
-2059.1719,2359.4492,179.10693
-2201.8215,2670.1606,456.3201
-1321.6721,1609.0342,318.67596
-1231.9551,1769.0055,349.7947
-1137.0774,1124.0742,214.76596
-810.36224,806.8879,213.73503
-557.2206,576.1393,33.84747
-570.9205,340.86368,70.24518
-442.16605,50.7694,-130.66353
-348.43515,207.85248,-117.16094
-233.93587,-84.28433,-112.51245
-92.69573,116.79617,-128.76901
63.409912,-68.55691,-233.3041
80.15024,277.67978,109.65547
178.05856,-59.222233,-77.84512
199.86028,553.5201,303.12433
205.10945,-602.31775,102.81784
-661.145,1190.2491,1396.6884
-590.15125,6787.9565,1357.0176
438.72208,-526.8525,-183.73228
-653.75195,701.8693,997.79596
-415.42435,1135.1156,298.37585
-382.80722,521.3514,590.0391
-226.30478,563.10645,310.2033
-34.937607,950.9013,295.61414
44.454727,900.03394,167.1307
92.70725,583.40466,495.5539
169.76576,683.3951,101.01418
49.72974,791.958,284.91116
-26.878054,817.0128,236.00137
13.356315,731.99286,262.9378
-27.775194,825.8461,231.27022
-81.582275,745.5631,493.58646
40.096905,872.48254,419.99124
115.70565,536.4935,546.16766
220.0999,1119.2014,642.05066
-702.46533,1265.7671,485.20953
-1952.8596,2485.3357,175.47578
-1692.6447,3124.2139,744.0684
-978.7587,1221.7236,289.05966
-719.29266,1579.8798,614.37256
-634.76434,618.20074,337.83386
-408.69714,373.4899,317.7718
-284.57397,325.92365,51.6632
-246.29494,593.7609,267.23865
-153.25569,198.15158,-161.9894
-42.067795,227.11497,119.86024
27.261038,-42.903786,-252.95262
59.65856,363.16916,157.89911
116.446526,-168.11296,-274.95215
49.970715,376.58087,290.0798
-81.18286,-304.73166,-402.1081
-224.41835,1404.5502,1366.8861
-486.86765,5214.438,2104.677
-361.455,-682.91,-219.6252
-1144.8594,1737.4957,752.4771
-806.4345,413.27017,145.32341
-716.60187,1121.4164,795.27484
-385.68048,624.1884,270.52448
-160.16862,782.1636,624.6372
-184.12946,1393.3895,515.1711
-326.38855,194.43663,104.40224
-336.9504,566.41144,25.091078
-128.93529,137.10266,-29.11103
245.44247,-454.6651,-347.14185
-88.434425,-116.35413,-214.62018
-334.26154,62.555145,-35.86028
-1538.7909,1070.83,524.50775
-2533.222,1333.9553,1004.87213
-2401.7898,857.07684,-171.4782
-2057.4448,241.23592,353.31378
-1450.4103,823.08826,901.93506
-1717.7355,1486.5856,860.3955
-1575.8292,199.24754,378.72668
-1459.0123,293.58463,256.43372
-1600.1455,850.96124,285.05014
-1546.3232,315.8054,-57.3861
-1201.4264,291.67203,140.2776
-873.37976,433.9351,155.5155
-585.2379,229.47392,-6.1429896
-590.27625,414.89044,133.18987
-466.08023,177.3991,77.815704
-361.0562,507.2313,90.715195
-252.85983,520.29083,112.66772
7.401189,350.18924,164.04332
79.34358,350.89035,123.06616
174.1093,368.51624,188.64151
100.01959,164.13391,157.03056
466.88742,580.9908,696.476
111.531425,1998.4756,1005.6521
731.1748,584.8738,801.7505
-644.7528,946.6494,634.7324
-1780.0543,259.34097,373.06262
-2481.0295,909.15765,607.1512
-1632.7435,167.0531,-136.32468
-245.74875,866.728,741.6525
-79.991745,547.64545,539.09375
-658.14417,1848.3815,1012.7424
-216.71535,1000.8336,304.1538
87.0265,-400.42392,144.23729
48.0531,1012.0559,814.91254
460.88647,103.86379,467.0525
151.20265,548.96906,397.57956
-158.4827,1330.6989,612.219
-234.9879,971.73,501.58685
-214.10861,32.058,136.77701
-511.96536,522.01935,331.0095
-625.9887,811.02795,643.6194
-1583.9175,464.91797,500.63147
-2888.1882,1882.4447,571.4054
-2468.1926,951.79346,160.61554
-1595.8041,336.66415,479.52298
-1402.7781,1160.7549,769.8611
-1114.1003,399.81744,211.67928
-1150.1769,584.05444,380.99023
-832.9339,231.996,209.77821
-745.347,688.1374,208.81735
-404.88922,-104.210526,25.626715
-326.55063,438.2342,136.41972
-144.85612,-108.38776,-72.179726
2.4607184,336.29337,144.60011
123.19752,-149.45801,-18.678171
232.37962,140.32295,256.28433
222.65012,-513.13477,-275.8483
497.6213,1259.434,1053.6637
211.86781,2752.2175,1119.7377
3.1934068,-160.96057,396.61322
-860.60846,1093.8413,740.76215
-866.7158,461.55478,477.03928
-1180.6677,532.38275,589.35144
-1038.5798,298.62576,538.3783
-861.03864,848.00574,345.78732
-872.4878,1310.7051,448.80728
-1052.0895,361.2885,416.76578
-1088.1791,368.5308,116.54843
-586.4517,218.96838,133.60255
39.6716,-382.70688,44.69063
-42.26598,-355.37503,227.31445
-269.33536,-181.37303,104.11725
-594.9429,562.55225,288.1402
-2090.945,661.6397,1252.0873
-3214.7473,1183.758,682.5612
-1918.7874,769.62384,-529.62415
-1486.117,467.77353,579.18085
-1623.6072,1530.8838,1077.59
-1111.3971,74.970024,579.5275
-1291.5704,448.5254,321.30392
-1408.2737,-26.139729,333.05676
-1411.0602,295.40665,310.64206
-1400.5695,499.0317,346.53067
-1246.6628,367.94476,242.35123
-978.7626,282.38544,196.50064
-946.54016,789.2786,256.93423
-727.4922,428.11945,264.65115
-541.77875,391.64023,168.76665
-306.54187,226.90092,86.59388
-237.72461,509.28894,183.2184
-78.31361,315.39407,228.17947
66.633896,344.44632,190.45578
156.47989,71.96256,138.24384
152.65344,32.664932,206.63937
-122.75067,46.78658,72.73154
-289.8582,142.51402,608.63684
-874.35144,2958.9888,1738.8511
-1151.4838,2284.8997,1343.2311
-1020.34985,397.57718,577.0185
-684.72766,593.14166,323.13553
-393.55713,172.51613,599.5564
-162.33047,55.584194,201.77884
-79.42395,-338.7004,161.48817
-365.63116,309.2928,-34.321724
-591.10944,14.173244,159.33803
-647.9046,387.1257,170.75838
-635.2016,502.90176,182.14578
-836.6604,478.62558,118.26921
-2357.3887,624.92395,858.63184
-2615.825,1082.2676,154.82576
-1154.464,271.44238,-488.6836
-1504.4789,1148.8104,895.64386
-1183.1353,709.62067,845.0795
-1484.7123,725.5051,607.21216
-1720.5652,111.96491,535.24585
-1688.1915,384.80884,368.09094
-1657.7399,513.5789,473.55792
-1766.9617,454.75467,547.2229
-1437.9343,315.72522,138.09422
-1337.2853,625.5882,211.64993
-929.4041,285.26398,253.7212
-581.17004,304.0765,29.142357
-394.70877,263.4177,149.07147
-313.73044,254.8806,77.51131
-104.23584,18.077475,14.675393
-37.93717,-76.97555,73.36975
185.70518,-130.73085,-6.975723
153.7126,81.5475,-24.38251
102.063805,254.79082,-123.312874
-285.74463,51.437683,48.006664
-66.917244,1698.4796,1128.7761
-769.7418,3684.8584,1526.5981
157.46997,193.62999,341.42242
-1343.0665,1373.7709,749.555
-1770.3335,925.8659,478.97665
-900.69183,532.15497,264.73038
-124.55923,-1072.8253,22.56538
-520.81226,-598.7173,185.48828
-511.026,-143.78506,93.45942
-1286.3368,1415.5461,358.33243
-589.0766,1726.9437,56.25516
-656.3826,853.3508,425.33133
-1452.8511,759.85626,408.01624
-1039.5334,-184.88733,-176.90422
-1574.8605,945.6832,299.2628
-1309.0068,635.3758,572.17896
-1339.1106,393.5924,593.9171
-1304.7231,589.4359,713.05023
-1407.5769,317.62308,631.57007
-1658.8013,821.9379,832.60406
-1711.1266,666.0163,535.51056
-1456.5907,965.7862,790.5794
-1563.7782,1123.5938,628.71344
-1426.6462,668.55334,364.11023
-1033.8954,576.74,242.52013
-778.9152,578.7757,249.99533
-550.4471,196.58627,-3.9378483
-405.65106,280.82803,89.182686
-335.20328,119.02647,-129.87798
-119.457954,135.68237,109.32628
-21.330828,19.465525,-56.43027
150.6144,149.3643,70.05244
136.56032,20.575348,-116.25525
93.18895,239.44637,309.20615
-102.7235,-194.81339,-158.49101
195.93315,1232.3143,840.6893
-109.23896,4367.302,2507.8777
101.810295,-202.13165,338.29816
-1024.4938,983.3615,1072.0232
-1422.242,1345.0918,300.5424
-875.8722,550.5156,644.7779
-426.9024,335.5733,255.15546
-144.23595,-142.86185,247.71255
-358.48837,45.317017,36.747128
-167.01067,94.246735,129.11322
-364.27155,427.9049,50.66156
-373.19177,515.42255,223.81537
-649.0112,448.9333,126.99547
-1430.746,1088.8701,490.8504
-1828.109,1064.3837,464.3203
-1519.4364,765.60034,501.65002
-1511.8639,284.5644,418.8782
-1419.8374,858.24603,576.3945
-1438.5925,425.38242,766.6405
-1604.7981,691.34735,850.045
-1663.6451,712.6557,689.5721
-1557.8643,512.6227,618.9901
-1585.6389,874.13824,610.566
-1660.2561,625.3002,377.7963
-1418.8511,485.57437,211.7454
-1007.0109,356.8389,215.51892
-844.53955,490.42944,132.03244
-644.5474,433.7321,229.10097
-563.6054,357.89258,-32.72391
-308.15637,138.57681,-29.299305
-145.33409,180.42111,-5.357801
22.199608,-24.703386,-26.500187
-50.395184,91.55177,75.30571
90.48163,101.60947,156.36075
-76.16134,386.89792,103.02188
197.15372,73.69986,236.06482
-94.898155,2882.796,1907.3253
-42.73208,1978.0713,961.4703
394.79068,-240.94247,467.1724
-499.85306,1364.1166,1012.63074
-955.80554,1279.7495,600.26013
-891.1855,612.3821,49.582485
-320.04562,172.3405,241.07487
-270.72632,-101.20954,108.469734
-163.9846,31.183378,49.65834
-167.59111,30.465925,62.448112
-277.1708,-43.137016,-160.06934
-756.5007,347.45685,227.79459
-1655.1954,782.36206,823.5195
-2333.002,990.1189,496.71466
-1859.0966,747.7846,25.17949
-1301.9741,205.94618,538.82166
-1141.5223,1253.486,813.6261
-1169.2633,735.56757,817.67786
-1157.8024,480.21405,598.57556
-1346.8231,657.05994,588.81195
-1598.4027,979.42224,475.43243
-1593.1809,741.926,482.82797
-1455.1145,810.3033,331.01776
-1351.3572,551.81104,406.26672
-1282.6471,693.66046,102.59047
-1011.32214,399.60178,181.2376
-759.6777,484.90033,133.99638
-514.71985,399.69852,10.244591
-500.75708,329.2233,69.62315
-268.79666,170.1968,159.1158
-169.96175,358.33826,23.564417
-45.920895,202.01683,168.02957
33.591785,333.22894,74.56169
159.07634,276.81253,263.3774
69.34226,470.54813,61.224613
157.13666,325.69235,550.7251
-77.70546,2739.9146,1660.572
432.71994,763.4294,764.19507
501.32376,384.95236,838.73535
-364.29242,724.23444,570.48816
-1050.7898,544.4143,483.99026
-1362.0245,968.2264,567.11847
-2176.4648,1259.8948,460.45084
-1004.2458,520.26825,-316.41702
205.49399,-92.95978,45.29642
137.0109,-1018.1061,-105.56071
-198.61285,-313.45694,343.62476
-593.59845,251.49896,353.1011
-693.3853,322.5662,593.71545
-1712.6969,1052.6604,574.32654
-1960.2119,2069.9597,811.4543
-1485.0244,203.0331,474.0539
-1615.0974,1129.4888,560.07324
-1079.5703,800.58575,690.7584
-1123.4165,751.0374,715.8125
-1090.2651,855.07367,653.75116
-1591.5283,890.9429,567.29156
-1627.6146,787.03156,132.86118
-1429.0029,871.96924,-17.905962
-1311.1812,854.82495,43.65702
-1218.9116,575.75305,-7.1032524
-928.25104,429.18756,-93.45321
-917.7251,636.554,98.54215
-796.6459,484.18558,-3.9010148
-659.222,502.20493,52.720222
-497.82208,504.62775,39.451603
-323.16925,583.8997,10.550861
-181.96547,588.65234,94.56807
-51.781796,347.43182,134.10931
145.71524,279.27155,171.43947
175.74185,247.98015,200.41087
200.86897,89.48818,218.91829
25.23876,-0.24377991,63.274494
-417.30215,70.537865,367.8325
-855.08154,4151.301,2018.4839
-478.2959,181.6092,427.6378
-1039.252,516.61115,668.80066
-515.0009,764.6796,475.43787
-396.9154,223.20436,861.5012
-45.174175,744.78723,763.3438
23.82367,679.64795,796.4997
-60.174862,386.42737,538.03467
-386.36282,528.80975,441.6403
-194.85391,565.37494,183.42134
-165.07745,79.48152,18.498066
-244.38873,271.68814,-91.894936
-501.1865,107.19202,-90.32221
-644.2445,-89.72385,88.99185
-1732.6143,1048.377,875.74115
-1836.6489,1562.6593,787.41956
-1124.8225,517.79315,1.2798016
-1303.0226,1062.9519,640.97534
-1298.1423,905.76904,724.46954
-1649.8137,1070.2916,583.89886
-1924.3545,672.0445,423.2077
-1722.5339,830.48627,260.87775
-1585.743,602.2213,12.161702
-1383.7319,692.9678,-72.794426
-1114.7621,392.52325,-117.13561
-784.7611,560.9027,-45.358406
-570.0971,420.84525,-136.872
-556.7988,533.1509,28.19332
-481.874,348.62027,-21.79672
-361.35703,693.85626,81.291794
-152.37633,200.46048,119.84698
-117.443306,547.277,127.72461
38.613327,303.81262,171.17412
33.458363,645.95624,351.7164
51.63937,-9.7195425,257.18173
-74.82573,523.3418,404.80295
-91.562706,-579.1727,398.70367
-843.3074,4088.8367,2314.8047
-176.30336,1657.946,372.32928
-779.14856,-562.3105,166.66194
-728.6946,1122.2244,152.1833
-439.97598,-813.7387,86.91784
-571.4041,-181.79651,185.23257
-524.29736,-579.3865,163.73575
-1017.43866,297.92972,360.8528
-1377.5164,-33.902836,509.48596
-2159.0105,1133.5642,572.90393
-1606.7698,982.3218,168.01576
-1141.358,693.7809,407.2517
-783.8898,755.44055,476.06604
-765.19666,926.88007,475.09933
-777.875,565.98413,405.37628
-967.0897,905.6526,342.7583
-1182.4187,822.3532,318.04453
-1443.311,834.29376,278.207
-1419.1493,812.2464,181.30786
-1663.7048,908.53076,132.41188
-1714.0292,912.24384,268.9076
-1341.5032,714.10455,83.03931
-1075.9402,337.36453,7.827485
-1123.2421,861.1444,103.9969
-802.4161,559.418,-35.350266
-560.683,745.8007,127.755554
-352.65637,417.49597,62.121693
-244.3134,551.3655,67.799576
-139.27037,180.84102,49.22214
-114.57027,506.69586,116.483604
-6.9401956,47.188637,8.737032
57.435886,503.40356,236.92123
189.18248,-205.99367,33.862587
109.211876,1681.2341,792.80975
-38.427853,1430.7609,640.15735
-128.8889,683.71655,375.70267
-286.2343,893.1111,398.89865
-583.78986,1107.0051,788.9578
-871.26135,1116.1654,492.1295
-1288.5103,642.9811,396.2586
-1194.4188,753.0699,167.06909
-521.4506,-137.88127,-102.40758
-184.6537,-202.70897,-59.8916
-183.67526,-318.89557,-135.31136
-432.43967,237.70937,223.24828
-811.2392,446.1358,275.71283
-1505.6534,569.4577,712.6087
-2000.5348,741.78973,426.23035
-1642.0939,688.78485,70.63895
-1354.2024,261.99606,453.2364
-1134.0828,1070.5656,750.00037
-1199.5702,741.6062,722.7937
-1248.9778,525.2929,630.4645
-1351.3141,560.1522,425.92612
-1480.685,840.01794,568.6815
-1659.546,745.21655,485.20975
-1458.0835,689.99286,350.9359
-1320.8146,947.7212,305.2615
-1224.3256,536.7656,239.04579
-1107.0769,684.3194,-22.40112
-782.26373,520.3701,-19.351213
-653.0961,480.33237,-16.100168
-418.61108,352.15503,67.00632
-272.33774,363.08255,-0.48180377
-123.8597,67.87708,60.724155
-65.71543,26.740131,-39.26026
111.32362,84.29008,102.27724
24.53425,-50.32421,-273.85056
228.2924,684.6749,762.3859
-295.67477,2834.2996,1554.7255
303.3285,108.80362,411.30072
108.41031,580.7922,815.65594
-62.587727,549.96484,616.07336
-1344.1903,1396.621,853.372
-1766.1459,1267.917,-101.78176
-1235.3838,600.1834,78.66597
-712.0741,417.65125,89.97995
-82.815704,-306.86435,52.798786
-201.89845,-324.7123,-48.869774
