# PAMAP2 dataset (wrist-mounted sensor)

acc_x[mg],acc_y[mg],acc_z[mg]
-801.62463,227.03952,307.95078
-692.06903,339.54086,257.11737
-631.9304,512.4942,207.39003
-582.34,629.2535,166.3637
-518.294,722.1169,174.38596
-495.98093,679.2002,243.65465
-580.13586,602.2855,316.61993
-891.59064,678.2135,430.2144
-1132.2173,691.7632,477.5504
-1295.7491,633.6404,464.0343
-1517.8674,522.3214,519.2931
-1558.6782,511.69382,597.8239
-1613.1483,435.61737,623.3598
-1566.985,376.22556,549.31165
-1576.8091,387.56714,468.58157
-1628.4319,431.75626,389.74185
-1423.0723,248.3457,191.98387
-1032.9552,-232.96135,228.14346
-789.7848,74.965385,181.15074
-678.80505,365.70258,81.50659
-593.4004,364.29553,29.362318
-561.276,269.48584,-2.72485
-523.1453,187.12424,-22.37479
-469.25995,148.09613,-2.9074907
-454.84607,172.41077,-7.1415606
-496.23444,260.3985,4.862137
-544.21515,380.6374,67.2837
-642.89795,518.3683,216.48933
-907.707,619.3677,339.0911
-1126.2471,590.98456,485.8992
-1406.2944,497.15918,623.9003
-1779.5631,498.73526,830.41364
-1819.9579,322.94547,773.3677
-1417.1886,100.95328,592.43176
-1064.4613,34.505856,472.0584
-838.0791,150.7826,365.9461
-718.3154,316.91156,318.67508
-640.26874,452.95087,267.8881
-540.77094,577.00836,217.9402
-499.61584,693.9613,222.24144
-485.5035,681.6821,272.16644
-574.85626,577.12024,328.22998
-807.1245,617.9678,466.10577
-1067.1774,580.5863,526.2682
-1208.1312,521.70557,539.8835
-1354.8372,426.67984,540.8452
-1485.2532,430.3117,594.0503
-1485.356,480.32825,611.1023
-1449.478,478.7826,550.35144
-1392.3165,497.62863,434.9701
-1477.167,447.02756,396.8862
-1487.7257,366.8314,376.7497
-1224.5511,281.38516,317.449
-944.50073,246.58052,216.02477
-735.8092,205.66075,126.49318
-632.1519,200.31963,78.7152
-552.55365,207.28172,65.89856
-523.81067,210.14073,41.814297
-481.92282,213.69823,42.820625
-472.94107,210.61935,28.471212
-476.7326,229.95653,14.790216
-518.9395,279.25348,21.733122
-548.39954,366.96472,102.8676
-754.89453,445.3604,227.74838
-1009.3666,494.6119,342.0005
-1325.6923,521.18134,495.84073
-1673.8116,560.6465,731.85364
-1880.4601,494.79623,870.8178
-1675.5148,274.63013,755.98627
-1250.9844,62.61085,626.03815
-1030.646,57.708813,449.4814
-790.72253,183.5395,309.66876
-626.9906,258.39426,221.01904
-545.1343,565.2886,197.76042
-452.91708,702.1251,179.84601
-349.35666,724.36597,183.13449
-349.7964,625.7987,241.51196
-505.5995,592.0119,347.81485
-862.8116,612.84515,441.1658
-1308.8828,669.4955,511.08914
-1408.0371,569.27344,495.67163
-1491.8071,377.69055,495.20514
-1612.6619,352.34204,605.0604
-1547.0978,372.93463,655.7031
-1350.8069,402.1134,566.92126
-1376.2954,558.6298,442.49362
-1394.2188,490.9144,370.50394
-1346.451,371.4703,281.39917
-1084.5563,187.947,227.00957
-843.3968,100.64151,161.30971
-715.3138,157.19632,106.64735
-617.10754,198.80708,60.762882
-573.63403,211.04422,26.563194
-525.624,218.06862,1.1665306
-468.49167,204.53416,2.170012
-432.51102,191.2275,-2.6770587
-454.34988,208.56407,-6.734358
-488.88702,277.40405,32.530228
-639.7027,408.43094,166.86224
-965.55225,513.8969,302.5282
-1322.9034,559.0507,437.60046
-1592.2097,580.45996,597.11487
-1903.7458,648.297,867.06976
-1842.3246,465.1512,791.5114
-1353.0763,-16.035078,519.51917
-1129.4559,-64.113014,378.77853
-873.5492,142.83218,273.54178
-717.3426,233.93149,184.78958
-660.8892,547.2903,140.0332
-552.70154,740.2626,104.066795
-460.2498,771.9553,114.28781
-401.4188,633.81604,168.67981
-426.6475,504.34958,196.96954
-669.9251,545.68463,329.64725
-1077.4059,650.11066,450.032
-1189.7869,716.89685,499.35452
-1254.8829,592.6661,484.7047
-1447.375,468.81577,497.27924
-1530.7595,424.12213,569.9619
-1463.8613,408.94205,553.90875
-1384.8961,481.32864,485.55148
-1447.8159,515.8994,425.48862
-1517.0029,407.12146,368.95624
-1337.9905,290.57333,254.79471
-1049.1803,262.65186,211.31961
-835.18024,207.95758,157.4437
-712.57104,240.3392,113.339066
-618.15936,252.75702,53.392387
-552.59973,243.78424,19.55138
-510.39456,220.76439,-12.942616
-483.52106,230.6362,4.3889794
-500.8956,272.27472,23.968306
-548.40735,292.0431,47.9461
-583.0255,318.5056,82.87288
-703.02423,397.43335,169.00381
-928.2667,452.7822,268.26993
-1075.7675,486.42706,429.25516
-1303.4442,512.14417,622.15155
-1550.7166,518.2191,740.2143
-1689.7708,373.12094,735.8392
-1474.9957,176.49811,607.31805
-1112.4906,99.664825,535.2453
-913.14026,153.57335,420.41516
-748.9183,250.14886,275.26794
-659.3074,395.8062,219.5754
-593.41595,582.35803,191.76878
-524.4536,681.7233,188.60283
-489.71494,724.72375,247.3985
-540.5618,651.13403,337.61075
-750.84735,616.6769,415.7547
-1050.3944,622.31067,460.51697
-1178.7458,555.75964,472.2445
-1346.8297,459.44028,436.9956
-1509.0286,472.877,538.7471
-1530.6311,555.7475,604.9675
-1512.1731,582.7802,565.1998
-1409.2655,490.22775,458.77295
-1392.9854,401.22507,376.2286
-1352.0461,290.91205,307.43634
-1177.8816,281.64044,281.46194
-955.9439,192.89166,260.148
-746.84546,201.52365,165.71925
-624.8378,239.93448,73.640724
-547.42523,219.97162,33.952316
-511.45944,224.1843,28.694416
-465.94424,218.886,32.685646
-422.7272,214.84792,46.86941
-498.2246,260.57556,59.801197
-572.62756,344.12164,89.645355
-634.0727,399.4459,188.07408
-748.0111,493.80634,343.82483
-986.91315,475.93546,398.95724
-1252.5415,402.14987,457.57404
-1420.0215,401.87747,592.2858
-1584.2357,488.26282,808.7751
-1549.84,287.25848,644.8308
-1288.5282,17.89754,389.06372
-1020.75024,40.606743,351.52554
-800.2854,166.82637,259.32993
-683.12244,340.98117,241.39409
-620.1566,527.7488,228.72073
-527.6794,622.2627,180.57658
-455.15527,677.8086,192.84204
-475.77264,621.66223,266.03952
-614.7987,579.8054,363.58398
-891.1975,625.5507,482.19067
-1164.9554,629.1101,586.5799
-1290.6044,572.13,577.7786
-1450.2134,366.32657,546.26605
-1546.4076,302.96088,575.95026
-1481.6769,368.14117,588.77563
-1327.1309,403.57053,502.51874
-1268.309,462.98993,403.49078
-1396.6445,499.8276,355.53937
-1394.6831,381.9123,305.94003
-1075.3453,279.5181,208.61415
-841.84906,228.99226,138.31718
-672.3865,218.30319,96.11523
-600.5518,250.61887,78.90881
-554.9439,257.78583,50.961464
-540.9504,251.36287,49.98926
-504.8367,237.5551,29.308638
-548.5827,235.3088,21.285252
-594.69586,254.06107,49.96587
-687.117,258.88464,72.75912
-747.1265,310.6799,151.13153
-915.0959,378.93753,280.8541
-1167.6852,405.06702,371.59558
-1403.689,392.06454,488.57477
-1503.1333,404.78735,576.2222
-1514.1755,382.05634,610.90234
-1478.1097,237.26953,566.25653
-1260.516,190.78148,537.0154
-1017.424,200.25276,464.44064
-785.6712,325.03342,349.01767
-619.53625,330.381,308.95035
-538.42004,404.8964,278.53592
-479.5831,521.86304,257.54602
-485.75888,579.5654,281.26608
-517.07074,595.08795,337.26865
-662.3017,599.50684,431.65854
-965.85254,648.7721,493.34763
-1222.9407,673.7622,538.1467
-1312.1543,457.99313,489.4306
-1455.1572,342.6021,509.92673
-1659.9773,456.52588,617.88495
-1714.8241,481.5728,631.7194
-1521.1267,468.1477,486.47534
-1450.372,438.73907,378.9906
-1445.9158,323.04904,246.58636
-1241.7639,269.08572,193.96375
-965.7281,169.41153,172.77391
-755.5685,207.88979,115.40619
-655.8676,237.16019,49.251858
-576.9529,198.08292,-16.135149
-550.45526,207.57303,-20.795568
-525.64386,191.01201,-23.167864
-501.92685,184.67114,-23.206602
-514.0146,175.33429,-38.563793
-554.84265,186.27205,-28.499975
-651.4832,256.58258,-9.612317
-826.3433,417.5465,185.56926
-1135.9602,403.83633,412.6867
-1514.8684,437.70386,494.4746
-1699.923,408.9208,584.066
-1756.978,386.99078,757.7089
-1694.0626,129.77274,670.3742
-1378.1394,-45.48894,559.447
-1117.1614,41.86963,483.2223
-862.4655,249.24008,354.14603
-643.50995,346.79138,257.23004
-558.48846,506.8558,239.18207
-455.16183,592.2055,221.10388
-419.6115,552.2079,183.50798
-470.09286,600.7661,264.16553
-598.9068,544.3215,329.3652
-745.71106,570.6962,358.19888
-1147.6769,724.1493,484.50156
-1284.4755,609.297,543.13074
-1301.637,367.01904,468.5651
-1522.7778,388.84686,547.9994
-1727.8114,371.5148,659.4741
-1624.295,286.42358,551.2291
-1371.7223,383.289,396.95544
-1459.6969,375.73285,359.00623
-1484.0657,381.302,266.51282
-1229.1532,122.368904,211.81024
-907.94635,50.93455,176.91827
-741.1111,340.6657,110.95818
-629.4092,275.89905,32.940983
-552.40356,279.6581,-0.39831933
-521.1665,251.58286,-20.581322
-495.2007,182.96315,-28.985054
-453.80518,170.6296,-12.101633
-472.31897,213.43033,-27.786507
-560.95764,253.33235,-1.4997119
-686.2758,315.89108,52.242115
-853.14197,379.3902,151.78752
-1149.1682,408.3983,288.51157
-1447.422,427.69794,371.56808
-1668.8969,508.73334,578.3674
-1763.4286,678.26556,880.20953
-1506.6786,384.52292,733.5911
-1237.4181,-13.523145,460.97333
-1066.4872,-65.92528,459.58212
-838.84045,-24.876417,363.85037
-658.17194,206.1628,264.16992
-559.3911,520.47406,201.0717
-444.8746,710.81824,203.76697
-393.9097,704.02185,199.50656
-353.71088,624.50244,251.12956
-499.09796,531.8621,361.29993
-742.6457,478.26236,454.19455
-1035.9875,433.1411,482.847
-1244.8667,388.1154,517.7212
-1344.2695,316.98035,448.03134
-1443.0511,365.61334,430.38486
-1541.7837,497.27798,510.7502
-1483.652,554.8603,476.77444
-1373.1423,514.2866,346.0986
-1445.0277,504.30573,268.4617
-1398.0852,390.3584,237.48518
-1262.3303,316.0572,168.0205
-1023.5985,273.91983,132.4608
-848.45154,235.88748,81.562836
-739.4255,214.13042,51.838905
-669.14514,243.97461,14.373037
-600.534,238.36516,-3.490132
-543.1876,235.94897,-11.050612
-482.22946,224.30797,-22.482185
-492.07886,242.52939,-27.487587
-555.86975,310.11148,-16.861176
-616.7605,423.2588,55.021893
-644.5698,468.58667,223.04863
-842.901,564.61285,350.32898
-1135.3435,538.41437,487.61526
-1270.0127,440.88412,675.7482
-1228.4528,291.57617,800.2652
-1267.9656,330.50974,797.7662
-1299.0619,394.46887,637.8439
-1175.1627,378.67056,521.85126
-937.2017,451.90485,438.5014
-779.91,394.7656,442.83743
-684.79913,423.55798,458.8276
-618.3708,556.64355,455.33875
-604.54517,709.73236,453.7804
-600.90594,742.0282,360.81668
-638.0335,596.6531,264.2287
-753.11725,512.6484,225.10396
-927.90497,493.27942,257.944
-1133.9025,382.61353,267.4477
-1233.8381,299.03238,191.62917
-1366.051,319.7551,119.43124
-1621.7777,519.40356,162.20856
-1789.7306,801.9865,257.7706
-1525.1931,635.7021,147.50783
-1400.3514,584.96564,53.764275
-1420.7365,516.216,16.66024
-1276.4047,374.4664,-20.44916
-1080.6095,296.1108,-22.510769
-866.45386,255.95502,-44.98303
-724.6768,248.17435,-39.225956
-628.14685,268.38086,-50.83371
-562.78955,304.90118,-62.89343
-518.2325,299.06836,-77.38868
-524.2323,285.25604,-90.230644
-557.872,319.42664,-21.021542
-641.86926,353.06906,70.062294
-773.07526,364.8081,138.62036
-838.67346,378.06836,258.30814
-1129.4382,368.8431,409.07706
-1437.64,237.56052,395.99194
-1433.9479,255.37297,506.26782
-1378.946,405.7196,714.1559
-1325.3467,398.679,745.7605
-1244.1216,236.418,583.1897
-1119.7345,133.23376,468.4993
-943.18585,115.42392,524.3393
-747.4681,177.62715,477.43494
-589.053,325.2996,353.32315
-520.5938,482.4912,323.80847
-528.1805,534.8676,340.54465
-537.38184,587.85754,353.75412
-563.68787,577.4505,368.07645
-656.61346,501.44437,398.00504
-818.4719,490.5114,419.645
-968.9919,461.58063,427.98874
-1099.6943,448.90436,449.431
-1179.6898,392.1768,417.27197
-1434.6542,458.71292,449.35556
-1636.0106,509.6521,554.7024
-1642.666,446.4007,514.90924
-1463.0847,381.1353,420.83255
-1381.4541,366.03134,372.59753
-1323.0201,302.9175,348.01868
-1175.8785,250.7397,291.76907
-910.1133,302.33936,229.40158
-712.1174,254.30829,150.99576
-571.2272,249.9815,104.70755
-510.19852,228.68047,80.951195
-460.66443,230.33632,55.617275
-448.9845,230.18372,63.351772
-414.59137,237.50026,87.94572
-446.991,234.74352,85.678215
-502.31888,298.43674,105.81776
-599.8041,360.81277,170.11038
-738.07306,429.1752,294.7197
-1024.8733,506.7274,403.13257
-1290.9575,479.70044,484.2546
-1433.5714,450.4431,596.5285
-1579.9514,603.01166,763.1153
-1577.7535,536.469,712.2132
-1347.0851,232.82454,450.4352
-1118.8137,18.726458,368.3277
-867.4384,68.341774,362.61157
-713.48914,248.5283,295.95193
-611.36835,423.2303,211.79114
-496.23517,602.28326,165.20836
-426.59488,679.2052,165.04706
-430.68332,629.8349,206.08336
-492.11716,525.4685,290.45135
-674.2367,486.4443,369.4254
-893.92944,515.5959,442.72278
-1128.9717,581.33673,505.42764
-1204.7706,531.3147,472.99997
-1359.1984,494.4861,413.19653
-1452.7301,579.42163,492.0622
-1500.9756,548.9084,493.98096
-1381.6431,402.77145,382.08276
-1345.5504,405.73444,311.0845
-1332.5963,376.25836,262.45486
-1279.578,378.26514,220.7314
-1161.8376,366.42084,212.04137
-939.4134,306.2447,179.32346
-777.16406,277.31775,120.481514
-649.79364,257.42947,71.17341
-569.9525,247.60257,37.783546
-506.27008,241.33263,40.596573
-461.5698,230.65842,37.451622
-471.697,259.19733,51.60958
-518.0412,282.23004,69.9488
-607.08453,322.9251,91.53454
-694.7795,372.7558,195.2954
-898.10016,438.46204,306.19278
-1164.1703,428.46393,387.64395
-1233.2971,343.16568,453.71478
-1421.9443,383.5897,568.6738
-1644.2463,401.17685,668.61804
-1616.0735,297.88046,606.83044
-1321.2151,125.71318,491.1489
-1036.7137,185.64604,351.25128
-844.0474,447.11044,210.0374
-726.8072,397.11322,188.10464
-610.7737,476.71332,184.68365
-535.743,587.05634,158.0024
-538.53485,671.6807,190.35782
-545.4465,616.0837,225.14835
-667.7773,594.45026,298.87598
-995.5154,682.35596,431.3101
-1207.9805,673.65326,511.37363
-1231.3977,544.99084,475.09863
-1364.9093,461.3921,474.91394
-1549.1573,468.66138,591.88666
-1569.3651,421.00836,567.6403
-1441.9861,389.3924,458.4178
-1287.8792,337.7522,300.17526
-1324.324,379.388,267.22314
-1401.7891,371.43048,211.46951
-1180.4485,320.51358,195.82895
-995.9395,337.8459,127.58683
-848.3633,341.25574,81.61527
-763.27704,315.10486,39.404716
-667.15845,294.66934,11.594894
-612.92847,257.32144,0.7790231
-557.64795,230.99161,12.662813
-529.259,244.84698,15.115561
-547.23456,257.65775,62.34649
-588.9408,295.35516,83.678604
-635.89496,377.89722,197.8042
-791.9293,498.31317,342.46582
-1033.7852,507.6477,443.57315
-1092.4414,467.69836,515.5868
-1175.405,374.35056,635.85626
-1365.3849,291.62933,740.41974
-1543.9598,242.88892,684.6624
-1447.5375,262.87262,582.76373
-1159.4672,202.8378,452.32663
-958.40155,360.6711,348.32965
-831.3145,562.5399,282.87213
-738.44226,541.68317,272.03265
-691.98517,603.27423,245.15419
-597.30505,635.86615,216.57265
-568.11127,710.651,245.39302
-667.2731,642.996,354.64658
-825.3527,596.02356,397.7716
-1062.194,588.99786,465.5057
-1148.9823,462.76776,423.7565
-1243.3005,444.04575,387.46973
-1470.8572,569.18365,431.62097
-1530.0774,649.03345,462.46405
-1501.7081,636.7718,413.65564
-1556.2184,477.32864,315.73682
-1531.4154,373.48743,230.27844
-1491.5322,283.03418,147.86166
-1295.834,222.61827,111.14295
-1076.0105,209.12814,97.50705
-893.6994,207.51309,98.405464
-741.0522,230.89177,46.639057
-653.8462,226.57419,15.730351
-589.6716,216.45004,-2.5420258
-533.8998,195.3,-0.22557624
-513.42773,188.14438,-6.7963805
-535.86615,230.2177,16.320816
-562.866,293.20377,40.798054
-600.4225,398.63477,161.17955
-723.4272,508.71927,313.83896
-973.22327,591.6643,480.9381
-1098.9866,517.75775,569.2375
-1227.6642,353.9384,750.5973
-1419.4941,231.27016,719.6474
-1562.055,212.42249,599.6654
-1444.9524,204.31212,522.9498
-1204.5046,317.60165,453.21588
-1024.2201,653.2179,356.87625
-831.64557,546.0907,278.4935
-755.3162,556.331,266.36078
-684.13086,616.33453,210.53467
-602.8381,715.2543,181.46156
-512.9457,680.96594,168.87935
-624.61395,636.6151,228.81522
-795.307,583.9518,256.81735
-1013.9775,552.672,280.35034
-1138.952,464.85318,297.97144
-1166.5927,384.8226,305.84454
-1312.2043,499.7944,377.42502
-1475.6982,631.29407,518.48724
-1485.9585,626.481,540.33844
-1425.0963,505.0436,402.40405
-1421.7201,426.5806,278.4972
-1530.1971,278.0375,251.01932
-1344.1077,184.6079,236.99971
-1004.53284,176.80821,193.67844
-781.3988,206.13484,156.22067
-625.9242,248.60344,100.84335
-539.28455,279.45926,46.648582
-487.46118,252.10313,31.542204
-443.72403,226.43074,26.618544
-434.10495,213.71895,47.975155
-481.78864,255.22957,70.116066
-604.5832,333.7968,110.919106
-735.1084,421.2306,214.97249
-882.8342,500.92087,385.56186
-1128.2161,447.4881,434.7717
-1305.7325,321.9888,462.69797
-1498.5745,304.50693,585.3208
-1624.2588,368.61102,698.1727
-1550.2212,319.43686,577.97424
-1319.5248,236.5476,420.1672
-1080.7544,168.92155,336.15448
-847.26135,249.96768,261.29938
-693.8082,370.38742,188.53427
-609.4104,478.4995,118.879875
-545.9688,554.34735,91.38354
-539.80615,562.08606,89.6072
-545.9038,533.82056,128.6076
-659.17194,504.18698,213.9539
-836.6622,517.3374,289.9975
-1100.3417,624.454,372.73798
-1172.5864,648.9615,470.57104
-1196.1879,559.0532,499.81995
-1242.5452,553.55145,568.5334
-1263.5845,589.26825,646.3465
-1242.5957,506.48514,613.0222
-1170.8358,454.6712,529.1234
-1322.2916,443.81696,468.20767
-1483.8551,258.95026,413.98816
-1325.4968,185.12341,342.2988
-1097.9319,181.83093,284.33542
-919.0886,178.33499,300.60504
-739.69775,255.03592,223.65099
-613.5085,252.61388,104.97109
-522.2699,248.8952,59.756306
-493.86752,235.59007,54.061115
-484.09103,240.10715,82.610985
-475.51852,246.47664,90.05826
-514.7168,289.01276,97.78243
-597.0138,362.65262,176.9294
-768.6831,432.64124,291.4947
-967.70996,436.8456,332.56143
-1161.954,393.13858,364.45602
-1370.9257,366.4683,471.70035
-1560.6583,418.12466,647.83795
-1669.8546,399.3281,656.614
-1450.5453,224.27419,519.7519
-1136.2947,75.99098,417.63785
-863.3771,109.44305,315.40936
-697.40924,213.19469,209.49213
-588.09827,385.54224,116.52128
-541.3297,532.2114,99.54603
-503.60715,576.5797,88.207275
-481.18753,619.4437,137.00896
-579.67365,530.96313,210.13254
-717.0472,459.66867,278.40796
-984.0528,535.4609,375.47256
-1214.3452,602.1593,507.22525
-1313.7338,587.5131,571.4978
-1395.5997,559.292,588.4652
-1399.7145,502.3622,598.1956
-1348.1583,394.26703,513.4951
-1222.9543,404.11313,399.43454
-1319.3435,431.05997,358.25494
-1319.5676,292.41818,328.50003
-1096.2767,301.36508,321.97943
-896.9039,292.29883,291.17978
-737.9574,285.66962,207.12173
-652.1358,320.6507,129.46056
-604.94763,326.09363,82.563385
-550.0834,286.82175,53.099186
-506.0809,252.52509,46.70758
-497.24725,256.7548,39.975807
-535.1511,307.26358,67.026
-601.3683,345.51553,79.3594
-696.77856,392.19205,166.4412
-796.20593,410.31528,280.59317
-1024.1151,405.36093,372.41904
-1157.2523,369.98572,455.5711
-1240.3944,367.77966,563.1015
-1454.9203,434.64157,694.73376
-1537.1024,371.44504,684.17535
-1322.3999,158.1683,540.10565
-1057.5762,155.53493,494.68436
-806.7213,273.10037,348.0122
-632.1664,273.5684,241.67433
-557.8304,387.3535,181.90263
-523.6885,540.28644,201.24026
-508.36877,598.8161,210.20692
-496.44476,586.7515,247.9716
-550.2586,519.66223,334.58813
-692.43805,518.9467,412.5378
-931.5861,539.2731,451.46732
-1080.4773,528.60046,465.63235
-1202.8958,447.13733,402.25543
-1479.0057,459.80222,368.5104
-1531.9463,584.6562,411.12067
-1391.1232,589.879,381.232
-1274.1687,501.81296,288.23785
-1346.4377,451.61267,230.06856
-1292.2302,362.27155,168.338
-1066.2223,308.80475,134.81052
-856.05396,257.48486,100.77707
-741.8129,231.63016,77.33866
-647.3372,231.77747,55.44072
-571.06085,245.59772,12.758349
-530.62354,261.83893,-0.15061224
-534.7159,286.35254,-16.194765
-594.5182,355.66373,13.212137
-720.7239,438.5828,59.65635
-796.86743,442.18756,113.59758
-834.2026,414.01242,165.09036
-928.2864,444.92395,303.11148
-1085.2443,402.02707,388.2546
-1137.0056,371.9483,441.0824
-1165.4215,391.3493,516.1589
-1286.2256,481.59714,606.6697
-1397.4888,405.39322,637.81726
-1191.7148,258.5904,518.8559
-860.0817,155.5648,350.0759
-634.2227,185.05199,305.701
-560.6311,306.26044,294.40842
-503.50494,419.08292,246.58853
-474.98007,513.53754,220.52365
-483.88437,553.6518,260.1312
-544.38983,558.6892,329.2531
-715.6155,507.23636,379.4165
-945.25684,473.41055,444.17438
-1196.3429,407.9027,511.04153
-1244.0745,283.5671,494.39417
-1288.8099,219.42651,429.74625
-1410.4155,309.66965,489.80896
-1408.103,430.67606,570.6306
-1304.484,551.1977,516.47345
-1077.7368,446.8666,340.0805
-1137.5638,463.89337,301.04312
-1168.9052,381.81476,246.21904
-1034.5103,289.22787,201.88057
-840.7806,324.7326,159.98355
-701.5122,329.26648,126.350235
-571.65125,301.32547,95.35948
-510.70947,309.1117,89.62789
-465.64282,296.20963,66.5483
-438.6521,261.20068,58.28227
-441.6111,264.91913,70.48392
-543.89703,300.70343,105.72914
-656.5579,297.29492,133.70613
-788.9905,315.96542,177.83488
-936.71295,355.10358,321.82495
-1192.0043,338.7215,378.592
-1402.2014,297.63528,421.63602
-1525.1895,364.9725,574.63403
-1512.5575,428.34583,710.6577
-1411.7651,309.7865,623.5368
-1182.9467,160.17323,460.43527
-994.3537,125.5442,384.03058
-767.6839,170.85225,311.15427
-644.0732,272.8723,252.01219
-542.12933,386.2731,229.91907
-451.8302,494.62872,197.52019
-415.2337,508.43472,189.257
-440.59143,526.1817,250.20792
-561.98474,505.92636,297.5427
-750.13727,489.3378,351.18155
-921.3054,492.0538,433.65106
-1099.9459,520.54236,539.7337
-1278.275,460.12292,538.67065
-1431.8594,386.3368,483.4921
-1508.1038,422.91544,545.3935
-1486.848,435.9725,494.75525
-1374.6505,448.57877,422.82324
-1307.6982,456.3706,342.5429
-1334.292,390.87726,284.10886
-1212.1737,297.234,239.46861
-948.97644,269.04803,214.27908
-771.74036,277.2751,182.55452
-624.8607,278.6695,123.22521
-563.45795,267.31628,49.671177
-481.66238,248.47147,43.263958
-465.5347,228.79903,30.598871
-452.3241,252.16374,33.252533
-530.18115,302.19144,48.00151
-613.3727,344.52072,78.80082
-708.93665,335.13205,111.09086
-794.41974,376.798,233.24722
-980.29034,376.59473,346.18732
-1214.341,353.99567,402.12515
-1377.2693,371.55435,530.4611
-1420.3862,453.85214,668.08246
-1470.8708,469.6468,730.3637
-1329.6759,243.59303,540.3533
-1077.5778,113.56136,398.72922
-858.0318,82.83215,380.74222
-690.1085,140.0306,322.7129
-573.44366,305.4228,222.77396
-516.6129,500.56937,208.2574
-479.21344,566.4835,209.3723
-518.1589,615.51306,273.26236
-587.50934,598.7334,350.4112
-719.164,530.89014,399.62964
-930.5013,516.35376,467.82013
-1217.4689,503.11807,559.325
-1175.4252,385.65936,487.72244
-1300.8844,352.88504,432.62872
-1456.1447,429.08923,504.27274
-1466.5153,480.58163,543.6635
-1304.468,480.97104,478.57394
-1219.198,468.58472,377.57373
-1213.4847,473.52182,327.25922
-1238.7762,412.5739,279.19794
-1069.7655,289.00275,232.70586
-864.6031,214.39355,193.36884
-716.13605,238.16667,159.52394
-636.7052,218.20349,107.44818
-552.26715,231.51596,68.881516
-528.6329,229.89748,61.917194
-485.7391,223.24167,54.808113
-508.52615,256.68536,70.99709
-580.47986,289.70605,94.022354
-695.7349,306.57532,115.70677
-789.9339,362.8698,205.02046
-884.0682,378.52225,332.76337
-1155.6798,416.81467,416.2728
-1346.3035,389.2483,487.31323
-1393.7728,378.51486,580.0022
-1489.6158,368.1926,645.11145
-1430.1421,223.09816,531.08563
-1205.2777,99.37786,393.21292
-984.4808,133.70912,344.54556
-811.935,256.01028,340.5119
-698.50714,363.08673,284.73334
-621.74396,453.40878,253.80841
-547.823,572.17114,262.81763
-569.6569,564.8947,283.73178
-601.1377,525.5794,320.5605
-734.86646,551.1973,401.62827
-895.71234,589.2704,495.8957
-1026.1854,615.10583,517.6357
-1081.1012,545.83026,509.54166
-1204.6407,448.06766,438.03693
-1320.9205,497.4205,471.86765
-1361.238,550.8261,488.10086
-1455.1084,523.8858,404.44418
-1440.0797,465.65744,323.9355
-1407.433,468.8117,323.78973
-1436.5502,431.35193,307.90488
-1385.2528,368.46042,266.33163
-1157.3114,240.45563,177.68802
-937.80554,186.45712,154.5573
-813.50867,225.1596,113.70752
-715.73773,237.42137,94.323006
-630.35834,215.65111,85.26754
-561.8231,216.14468,90.35553
-534.04175,203.80782,79.81361
-509.87427,215.40092,100.13064
-493.8392,216.38115,126.95332
-488.44366,292.81055,206.04517
-497.70035,401.3723,306.13742
-673.6086,507.31558,449.8914
-974.5931,572.1425,506.86703
-1095.8827,454.09988,555.8947
-1336.6632,356.40005,617.84283
-1660.0952,319.4519,629.0146
-1677.981,273.83832,590.347
-1306.236,306.31454,481.46036
-995.08887,285.09775,340.4057
-851.97546,381.50223,256.66846
-745.2668,492.87735,200.17633
-671.60974,606.3651,182.64514
-584.3717,657.1025,144.22214
-519.50275,741.2936,194.51506
-571.0287,684.4173,270.7048
-801.27814,674.91547,399.9323
-1045.9164,675.5757,457.76712
-1180.5774,590.1145,465.15027
-1250.575,396.51608,393.53946
-1399.2723,493.8285,449.39523
-1562.3811,585.4568,584.2343
-1434.8005,510.59296,539.5488
-1329.0814,474.34436,391.8061
-1447.8403,469.43524,321.71957
-1562.2397,412.21167,274.02808
-1456.1399,410.81134,124.87202
-1204.5195,54.62696,196.91673
-987.13055,101.11469,175.64955
-828.40265,363.85287,87.07371
-714.7372,226.98958,20.588211
-632.0889,218.26141,-12.793493
-577.6396,181.66508,-33.324993
-537.3689,170.80699,-33.642544
-485.26184,186.53392,-40.727097
-507.89322,270.1219,-13.522714
-556.4232,394.16858,32.76346
-618.4089,442.3201,144.7287
-933.5077,478.65234,301.04947
-1209.69,547.19403,475.3593
-1396.4012,465.34955,703.4227
-1592.226,270.54077,732.31323
-1710.9325,36.17234,662.485
-1498.8542,28.81683,760.61676
-1165.1663,87.01448,680.93854
-928.7634,392.23996,406.73853
-707.5519,441.14996,264.46912
-652.9844,374.83893,266.44077
-601.3905,546.30493,298.68475
-577.6155,611.6011,253.83125
-529.00793,639.25916,250.02982
-597.3412,681.3139,304.74466
-728.5297,699.4264,369.84033
-1005.4639,771.57947,393.62805
-1131.4012,652.1777,409.18176
-1260.6395,469.3837,415.36984
-1446.3619,469.6806,531.16754
-1564.7491,561.8831,595.8133
-1597.7388,653.0383,545.741
-1476.9078,613.1441,398.54172
-1534.5831,564.55914,309.92758
-1685.2239,450.8033,266.739
-1537.3484,165.77353,272.0872
-1098.6771,38.533085,188.58118
-831.3485,200.29587,116.83076
-663.9129,187.2625,51.208813
-551.38715,215.0674,2.3919327
-507.2535,229.34961,-2.1002162
-474.85864,197.61389,-2.5823767
-427.92526,187.27386,-25.737095
-471.97647,223.08815,-9.083218
-520.0339,275.9925,4.1869507
-598.99036,369.96893,67.33659
-853.29565,523.97424,252.97942
-1144.9348,568.78455,406.86
-1266.6412,504.2786,472.60074
-1493.1403,466.76282,711.33105
-1693.4872,424.9593,862.4925
-1668.2314,275.42947,736.63885
-1361.2444,216.5555,556.5282
-985.76154,28.967564,433.47937
-809.0292,231.68178,352.32358
-663.8601,307.8919,275.38962
-596.6646,369.02292,215.58278
-555.01654,587.15857,140.46657
-531.4621,709.98846,160.07016
-531.8256,767.6288,204.64389
-627.3925,687.9333,287.78882
-865.7613,657.25696,387.97113
-1112.3707,620.18146,473.85333
-1153.3181,474.85382,415.8289
-1349.9048,548.64386,434.62872
-1574.3512,725.0131,548.5974
-1569.051,680.33966,542.2773
-1444.372,632.0393,441.19116
-1532.5532,601.09973,402.3836
-1604.0348,387.19614,312.79156
-1510.916,269.785,213.24698
-1256.965,145.73477,307.7424
-946.823,-7.1325574,227.11212
-728.38074,150.44232,91.50648
-596.0305,217.87929,29.033733
-547.6733,252.40735,16.089195
-502.4442,230.2499,6.9481874
-461.43903,225.50362,7.599064
-490.30884,216.11125,4.5388474
-498.16388,243.85909,-7.84497
-549.0374,356.9135,94.16946
-674.9815,523.6145,264.15405
-946.1705,543.7723,337.6335
-1207.851,458.14252,481.06055
-1544.4484,412.83902,639.6003
-1883.55,483.79034,848.74005
-1751.177,389.1868,678.6715
-1321.6626,199.03482,417.51685
-1021.61,25.723757,380.75488
-860.74756,-5.9092197,353.80194
-768.1486,174.67262,240.2446
-742.4616,523.09534,218.32288
-668.87897,707.102,228.46928
-572.83246,744.15924,183.49788
-573.8054,777.12225,224.48936
-746.1507,763.4966,405.65915
-901.18134,681.3175,476.96588
-1065.8391,678.7631,463.85556
-1150.7742,577.26556,397.68933
-1463.0032,576.1616,436.50314
-1550.9783,649.00244,544.2789
-1534.8315,584.9962,559.4124
-1535.615,561.8164,492.56558
-1677.0336,526.83997,395.60944
-1674.5526,442.68835,340.39178
-1610.6335,332.45908,309.4625
-1258.9348,171.29713,225.11177
-944.96747,109.17984,121.69996
-797.49274,202.79353,79.69328
-689.2746,224.82547,41.47462
-627.72034,217.61653,22.034548
-582.63715,190.39449,-0.9297719
-526.61816,208.17264,-12.236543
-511.27423,215.9817,-24.643396
-461.15613,236.98799,-29.140768
-473.92047,342.31906,51.021847
-536.29517,496.18182,230.19649
-791.62134,605.75446,370.09915
-1007.3279,700.35065,494.14
-1140.5973,518.4197,585.90454
-1549.59,351.86334,746.5669
-1833.575,184.2678,704.4586
-1666.2197,190.17572,656.8814
-1221.7075,155.78317,597.20526
-988.10175,153.20183,447.14456
-808.907,667.8056,224.08025
-693.05286,712.8706,212.28865
-643.5709,541.9761,227.19472
-626.58234,487.34933,184.61577
-672.444,598.3184,190.08493
-759.86426,644.2337,244.23074
-933.52734,680.2821,292.068
-1079.8628,725.71814,356.09384
-1081.3221,619.5649,354.1726
-1312.272,622.82104,379.61432
-1421.41,728.4158,494.10947
-1445.2488,702.60333,539.9793
-1406.942,673.82166,481.11588
-1511.5392,599.73346,413.5707
-1677.0543,475.11972,384.9488
-1558.7933,275.6678,299.55853
-1289.8918,263.8036,218.8261
-1071.6841,118.95152,253.67496
-864.64606,114.98041,174.49373
-741.2228,238.2573,73.649895
-633.35315,178.53784,11.114141
-567.7239,226.58478,3.1419206
-561.8582,217.37709,14.565594
-555.5562,223.88649,0.4117527
-585.84094,273.24805,43.04136
-615.8707,352.58377,64.1652
-630.615,480.62454,216.96632
-730.039,527.0658,339.60974
-854.3426,603.89667,479.67395
-1002.0861,629.9271,627.26904
-1145.6257,422.36673,676.2206
-1527.2812,330.47092,711.0974
-1719.6522,291.68933,651.2053
-1498.7938,280.99005,603.1388
-1093.9325,253.5316,453.0398
-846.73846,303.45645,313.6651
-746.075,394.01318,248.05463
-691.2452,497.8188,200.1749
-667.86444,626.1803,165.13521
-659.6469,727.8355,146.8836
-692.1277,769.508,175.33804
-769.7034,695.2867,280.5772
-1002.7407,698.69574,389.01028
-1082.9698,670.01746,436.46866
-1115.3531,551.8485,368.34378
-1332.6547,666.8327,448.86386
-1440.9128,691.0563,548.9597
-1436.1705,584.54785,492.1377
-1382.3856,543.78577,408.93997
-1635.0826,486.53345,368.65295
-1709.476,305.65976,337.44315
-1508.4801,270.32504,262.52838
-1173.731,193.63516,228.36127
-922.895,56.535076,193.32295
-774.6015,238.14783,105.22958
-677.929,214.61153,24.557983
-587.77124,204.57439,-20.468573
-576.2463,239.18222,2.6423528
-585.6817,243.12477,28.92892
-616.33405,261.21973,35.64567
-627.6952,301.14737,39.329994
-644.91626,403.36188,131.38542
-723.8024,479.9078,232.21579
-938.271,599.6722,375.98868
-1043.1261,653.98773,593.4717
-1088.1243,513.8326,649.31305
-1317.6654,352.41934,606.5018
-1503.7343,237.0718,590.1385
-1369.3754,235.1698,598.40137
-1074.6432,245.09174,494.651
-833.7002,239.61993,356.70398
-740.94977,323.2022,275.67136
-678.95496,422.5049,220.35252
-722.8991,545.8631,242.5393
-699.8322,628.5591,228.55977
-741.4717,692.3228,256.5724
-801.5152,695.1205,329.17325
-963.31366,690.98035,444.22748
-1068.2635,670.7477,444.89066
-1118.5664,569.1868,398.66693
-1253.2572,543.8584,402.7925
-1352.3922,629.23785,468.06583
-1327.235,626.00336,476.28378
-1344.2162,611.7233,438.39355
-1412.0455,592.1207,396.76602
-1662.4133,507.94257,378.8806
-1568.6912,280.56842,310.41483
-1209.863,228.06593,233.47832
-962.38104,167.03444,191.08046
-803.8065,183.13866,169.78099
-732.62823,263.96063,99.85223
-638.6706,239.75389,44.735535
-596.1026,237.16289,25.547443
-552.46185,214.02861,23.779015
-547.49207,210.82185,8.736962
-540.936,234.33287,18.421776
-565.213,327.68555,65.30263
-583.6272,442.62012,189.55449
-779.0939,542.2902,348.86813
-961.0645,574.5112,476.46576
-1075.8206,517.82104,628.4954
-1388.3993,433.88397,744.69415
-1653.6163,231.36942,665.08673
-1625.0701,59.858894,519.5239
-1293.7854,93.82413,509.822
-1050.5405,193.48782,437.3856
-884.88257,338.54388,308.98816
-740.5561,447.49377,220.68448
-662.1803,521.8536,136.0782
-615.8677,642.1556,139.5819
-601.79034,666.57605,159.3128
-641.43054,618.2375,186.20357
-771.11115,660.02454,286.30258
-1064.1168,787.0487,416.5733
-1107.391,758.66345,402.8563
-1101.8978,649.3354,348.78723
-1324.8162,686.85004,437.36365
-1403.2542,637.8403,467.64685
-1330.0287,582.4971,463.2006
-1382.5457,529.6929,441.36093
-1493.5103,485.36288,403.90128
-1509.2366,417.90018,337.63797
-1408.715,303.00983,267.89432
-1207.1766,265.79617,214.07097
-1010.99194,178.0137,203.69057
-852.5536,189.32901,145.65306
-738.2847,208.275,87.422455
-641.0578,185.89166,51.024776
-577.5097,199.22015,42.738235
-562.85504,199.90186,48.724213
-569.15247,225.57104,38.719997
-582.5804,258.71823,32.85039
-606.69763,353.01126,96.83089
-641.15106,451.16537,227.35577
-791.32104,509.9547,343.47302
-990.0442,570.77374,476.8894
-1131.9479,492.602,621.1865
-1346.772,395.59012,701.8556
-1587.1399,218.1065,597.8058
-1565.8497,131.97974,518.3757
-1249.9761,159.01195,471.3923
-985.5658,252.58098,391.62073
-848.78876,323.75543,291.52106
-768.4738,465.0335,192.32231
-680.45984,628.1978,150.62975
-643.8987,674.0536,146.73468
-606.3588,678.58624,187.74095
-645.3052,604.0673,244.89908
-761.7429,626.0075,359.10876
-999.6262,693.5584,419.64868
-1092.9749,660.3729,427.05914
-1143.8322,528.4578,363.66837
-1293.4868,561.588,409.7676
-1359.0559,606.64136,507.41138
-1317.7922,591.9603,482.51205
-1368.7355,592.99054,433.47375
-1460.1278,567.71533,391.61606
-1542.8463,438.13968,308.53644
-1571.219,266.40656,259.22113
-1220.6744,161.6778,206.80904
-954.4306,108.53024,185.3014
-806.42596,179.58794,139.71129
-733.57214,232.03447,78.646385
-663.535,222.65479,61.59767
-605.46515,225.92796,30.160433
-542.6871,183.93375,17.879171
-493.2216,171.10202,16.616375
-490.53192,200.37852,17.619255
-570.38293,359.1226,66.691635
-695.11646,517.29364,200.94554
-911.06213,571.24524,341.56366
-1074.1964,641.88153,483.88654
-1232.8301,539.313,598.59155
-1502.8033,440.23392,670.1953
-1715.5526,272.08667,640.14264
-1558.3298,139.58574,495.5433
-1214.5891,50.705788,433.5529
-956.0174,180.23244,319.94272
-839.04736,401.33914,249.4552
-769.3007,463.33157,186.6708
-704.88873,589.7382,98.73646
-632.8982,717.7214,79.57821
-593.2604,724.5466,108.030716
-596.9413,665.78064,164.5773
-794.87,724.5578,329.33685
-989.6214,747.1006,392.06888
-1064.8815,730.87933,362.43732
-1276.6926,696.3726,410.3583
-1457.0963,646.16534,501.02274
-1531.3689,621.00824,587.6724
-1521.8728,445.18622,560.9435
-1425.4207,334.25833,442.14148
-1596.5935,392.00726,380.47678
-1568.3019,309.71057,295.25955
-1317.552,285.31808,253.69975
-1026.387,102.328125,218.99004
-851.4989,175.23486,129.15709
-754.3426,215.32062,54.236546
-665.6485,195.7368,8.283072
-618.4601,196.8361,0.8112845
-530.30133,166.90454,-8.971021
-505.0511,155.96095,3.437779
-462.57852,173.58504,3.0982833
-429.8407,223.93439,9.878703
-501.5386,391.61,111.26689
-647.9686,526.2264,293.0005
-1000.1075,587.8367,459.84
-1327.3214,546.2659,479.2679
-1576.1666,460.85617,511.44974
-1814.344,388.8612,647.11224
-1753.7667,106.737,550.38965
-1444.1877,-4.182713,481.96344
-1133.3147,107.25517,540.7074
-902.89594,312.70074,404.6158
-721.4349,468.25592,274.78967
-571.304,568.08813,214.57726
-448.712,623.6712,160.53877
-413.36163,630.8687,189.15778
-472.14944,543.0493,247.1717
-627.2139,519.79486,331.66376
-841.9182,594.49927,422.34814
-1124.2892,638.6346,453.6846
-1230.6372,569.7611,451.12234
-1347.6986,473.3155,446.57373
-1485.7675,509.36447,530.0998
-1513.9182,539.8055,558.43445
-1485.9647,508.5198,463.15668
-1490.6687,510.14166,350.74054
-1599.126,400.53043,293.73312
-1503.6063,276.5123,232.97171
-1272.0939,257.96918,233.85793
-1045.0845,229.49034,186.64671
-864.7933,221.3454,126.3359
-732.43115,238.89528,33.148357
-644.1801,227.68088,7.216038
-581.60535,208.17659,-15.887444
-536.8798,183.78638,-6.18126
-493.42838,190.83969,2.7286074
-521.03253,251.01544,25.349598
-570.7851,283.6303,48.660408
-606.11743,367.74078,171.55359
-762.1686,481.13287,390.96124
-1071.6661,490.31174,481.0785
-1268.2998,360.29968,473.11423
-1560.857,311.5291,656.779
-1748.7166,383.90427,786.8274
-1596.8511,229.91962,634.80054
-1216.1577,114.14907,481.98502
-985.4692,54.123024,401.47217
-837.31915,132.81198,344.63632
-744.1552,306.7441,215.57263
-637.41833,579.90686,175.644
-565.56555,698.1466,143.75105
-517.4843,716.8671,141.20886
-585.0896,709.45776,235.09534
-703.10876,632.4182,316.56818
-972.4673,671.9287,441.04865
-1114.6683,718.7374,504.25546
-1195.9534,654.5166,420.99335
-1445.3545,560.16534,480.25922
-1497.9877,452.33698,527.507
-1533.8403,462.17966,527.0512
-1513.4476,446.4795,457.91794
-1534.5621,412.5021,403.3744
-1530.4315,385.86615,341.20193
-1391.0475,379.82413,332.71564
-1163.1019,269.68845,289.66632
-931.4433,195.13998,132.95634
-776.8905,204.19519,72.930565
-687.43396,194.36586,44.235172
-615.37524,193.11653,37.17581
-560.484,195.43378,45.108116
-513.5705,207.91359,22.53287
-494.74713,240.20158,37.175194
-538.9675,305.94092,34.997963
-561.7962,347.9905,89.51709
-642.6012,445.76035,212.83966
-893.976,559.67096,327.85156
-1092.5737,557.9397,476.38406
-1277.019,430.62616,595.76306
-1568.6414,401.0066,721.4018
-1688.6794,304.1063,730.32764
-1495.4049,211.33112,618.4963
-1103.599,202.55638,495.9363
-839.33185,186.48581,341.41815
-738.02295,293.526,282.59882
-697.9694,399.30963,217.10985
-615.2103,525.8814,170.53874
-582.7393,620.75854,115.17001
-583.82837,703.74695,186.71251
-649.4641,650.2375,252.53493
-759.8246,632.55365,359.9813
-1020.6196,677.7366,424.70142
-1118.2745,585.22784,414.2053
-1250.635,489.9739,412.1516
-1420.5662,532.1838,506.26132
-1468.1016,559.0036,588.75934
-1421.8629,522.6375,545.1415
-1403.88,489.50143,443.9227
-1571.191,433.60815,420.86588
-1574.0234,299.22083,364.8364
-1340.3765,215.95213,271.48355
-1054.7411,169.55849,208.21217
-864.11847,144.66168,158.2676
-758.02594,216.36821,117.87203
-642.39014,201.31294,58.763325
-543.42645,210.89426,10.17359
-485.4448,205.33147,-23.812954
-445.234,209.38847,-2.640252
-464.15588,247.89366,29.91807
-550.1659,341.19168,77.563156
-617.9737,382.0664,179.10065
-765.71,462.11887,295.11667
-1014.3352,495.18054,340.983
-1164.2482,418.4631,516.40607
-1378.1023,317.81393,649.801
-1688.7654,292.12735,693.5174
-1801.1436,232.98276,666.48016
-1461.6846,204.14165,587.9376
-1040.2863,194.54004,488.0473
-827.94543,282.94037,320.4695
-702.1801,340.59003,243.08192
-613.9085,447.9387,189.26341
-548.99066,582.7225,154.56049
-508.21115,672.13434,163.69661
-517.6836,661.3337,206.37552
-657.0324,604.4477,336.8653
-871.38043,563.18225,441.5199
-1109.528,562.6061,489.23563
-1186.0524,480.15817,473.19562
-1315.3253,445.02972,437.33032
-1425.9156,501.07895,534.4677
-1414.8718,488.7775,560.4809
-1359.44,447.66992,481.02783
-1391.4279,441.31342,386.95413
-1586.2893,423.9734,387.42267
-1432.5189,273.76425,333.7254
-1200.3308,265.51346,284.49164
-995.0976,231.8029,252.77104
-835.3643,232.31178,179.55786
-715.64404,235.21378,136.54861
-608.37177,212.38812,89.781654
-529.2832,206.08424,42.08832
-490.26703,211.41364,43.533627
-472.81653,210.09953,51.776207
-496.79895,256.6696,79.46596
-559.39813,328.11755,94.097046
-610.20404,391.29477,189.68613
-781.76465,456.81863,279.9351
-1056.7324,490.8598,372.98767
-1177.9086,385.37173,464.7017
-1468.5182,388.0891,635.69275
-1718.206,365.04065,698.2526
-1672.2827,210.81914,564.5799
-1331.0901,143.62668,508.96567
-997.77606,107.3298,464.9863
-839.25385,208.61339,347.64026
-708.3445,384.02844,232.76607
-631.31506,532.1075,169.26035
-601.29193,626.6672,157.79524
-560.27136,689.9123,185.53128
-602.9072,668.46014,298.9175
-677.41296,561.93225,372.86237
-921.35516,562.21747,437.07535
-1117.7119,608.73553,500.0161
-1262.6309,539.2464,464.9947
-1419.8947,502.09305,492.76822
-1449.4724,530.23035,553.04706
-1444.4568,447.55072,524.4821
-1332.3058,421.0628,440.8657
-1431.1967,458.4032,386.54507
-1450.8005,384.04742,318.98132
-1327.58,332.75974,280.70602
-1146.9684,269.02618,253.29842
-940.6401,221.81686,206.22896
-780.8348,208.53595,108.72867
-699.51013,221.04662,63.01308
-626.4123,243.8338,22.44994
-556.5037,251.85085,24.114063
-501.04398,256.80786,11.0713415
-511.42346,266.80298,27.447645
-536.6516,301.90683,48.83083
-571.2306,358.59253,76.04492
-626.1961,431.7671,203.22005
-828.01746,462.09296,277.26584
-1067.0033,414.81747,338.68893
-1308.3085,378.98962,505.8556
-1631.433,509.97748,749.44354
-1694.6509,453.03143,615.7327
-1524.3473,237.45892,547.79346
-1209.6887,18.316807,561.7636
-980.32294,17.039976,520.85864
-809.0901,412.51862,325.2866
-662.92377,502.77057,243.4897
-600.79095,503.78442,239.89088
-542.3561,562.38995,215.6971
-518.77374,608.102,213.71808
-566.9751,632.13086,257.57336
-767.7766,657.2088,376.61627
-1035.2924,703.8011,468.98352
-1171.3591,629.61774,474.6684
-1204.6223,437.698,428.19592
-1389.0732,448.74048,530.6054
-1567.8379,552.1382,668.3059
-1593.4756,516.0875,630.40784
-1510.6903,479.92853,521.9218
-1561.8531,436.02658,450.92697
-1698.4697,300.3179,366.84875
-1555.1293,288.53488,208.55116
-1109.0564,-9.23647,198.03354
-812.83453,85.12922,153.174
-655.0288,366.3878,58.75424
-559.7031,291.45682,9.264142
-506.96533,247.17429,-29.158115
-450.47455,154.72914,-42.45458
-377.9739,140.23387,-35.98076
-396.97678,190.73213,-2.1982894
-399.1609,283.9936,14.518667
-463.10272,394.8873,96.773735
-637.3481,580.0511,294.95538
-976.2519,558.3455,401.01294
-1265.9648,420.48056,462.32074
-1533.357,334.82513,558.3464
-1849.3654,394.87576,697.68604
-1895.5419,337.98273,650.5271
-1523.6718,258.332,492.85825
-1110.6592,160.19598,460.3942
-896.9773,199.05856,387.9329
-776.95105,297.5047,271.3792
-675.1121,445.88034,213.06018
-585.2056,596.7493,174.91083
-544.7458,656.992,178.27737
-495.45624,618.61615,184.62106
-647.11926,615.6115,345.2653
-829.2967,598.6178,446.69418
-1018.094,668.3972,430.62692
-1125.823,715.05005,419.71967
-1314.174,673.6462,412.81714
-1492.5688,687.296,484.1157
-1554.3423,638.3528,456.35428
-1543.0787,553.3985,406.32938
-1588.6697,552.2267,348.19647
-1630.0692,572.3105,289.20114
-1675.4199,484.22018,263.77057
-1507.0636,340.76465,230.69174
-1160.4304,249.52666,167.3089
-952.6901,209.75221,118.55529
-828.3199,289.1026,79.57028
-748.8933,286.85614,47.20283
-629.4628,222.334,4.5758944
-556.4738,177.12216,-10.386374
-503.29654,171.27785,-1.6658823
-493.0515,206.71983,6.37018
-465.1804,247.64418,41.381535
-455.12036,340.01944,162.83191
-652.9322,476.00034,244.87129
-953.7714,602.9113,394.53568
-1082.7457,572.369,552.2013
-1300.6735,459.30136,565.8164
-1703.8287,396.94644,569.2079
-1838.312,369.7522,583.6218
-1599.7874,395.02692,563.21893
-1258.5115,282.25574,456.29416
-1043.2656,439.64346,262.38928
-946.24274,534.9829,217.6941
-883.80334,535.6759,169.6032
-817.69257,686.31934,91.32739
-691.1628,749.1661,67.46087
-725.8441,872.46906,125.90985
-775.9255,830.9471,208.90405
-970.07654,911.23364,289.89603
-1087.6321,856.24567,331.33347
-1250.9807,710.82043,345.0605
-1448.1388,811.85046,474.7891
-1691.1404,753.84875,588.4444
-1754.1769,526.73456,556.75305
-1894.6106,449.11673,480.8906
-1921.8563,313.6871,328.18637
-1695.8701,228.69284,209.43744
-1473.7778,226.7342,292.97183
-1106.5725,176.49928,203.17754
-852.95087,352.89972,62.01663
-715.4501,359.8163,-50.747814
-650.5926,296.72995,-64.65388
-600.3307,249.28087,-79.8007
-580.54584,217.6339,-50.99301
-571.12964,231.61412,-27.216219
-560.5915,267.74472,-11.434406
-541.0348,318.19315,4.447875
-514.1395,449.8049,115.24827
-580.24585,565.3538,310.34714
-759.2689,619.5522,452.0992
-901.3797,570.2397,535.7154
-1100.8802,434.7248,632.9756
-1421.0319,290.58984,715.1946
-1817.5862,281.44016,734.06866
-1771.1194,366.31702,676.88153
-1418.2454,323.20926,582.52954
-1067.6588,287.7566,433.53
-911.3534,489.53433,313.6119
-813.3719,524.98535,247.02637
-753.9542,609.57117,150.13937
-687.49194,695.7251,110.18868
-734.75305,771.717,142.3432
-752.6653,794.554,178.93344
-1028.6221,828.8998,340.501
-1085.0793,760.0879,383.1537
-1219.8911,693.8058,394.88934
-1409.3206,760.97284,520.7232
-1517.0651,686.5803,555.5716
-1604.0133,594.27454,553.61816
-1662.2339,467.0694,448.9067
-1813.8154,400.23785,417.0363
-1754.5327,279.83914,345.1673
-1521.8109,273.70068,280.3397
-1266.848,269.28406,250.84251
-1030.7396,213.13774,162.07846
-853.50366,232.45386,65.12924
-724.5576,213.20158,-3.8756545
-621.98145,171.55162,-24.07383
-557.0922,166.17969,-21.330683
-485.17627,163.20245,-3.9098918
-462.49652,192.70961,10.116758
-481.62473,279.75415,2.4572868
-463.60123,373.26547,66.07347
-520.1405,533.67004,184.09824
-779.3956,693.16846,356.6462
-1022.0608,787.9054,543.45764
-1070.7816,583.28015,675.21027
-1353.192,290.97592,606.9654
-1772.672,280.00098,643.14923
-1744.6266,281.9691,776.6609
-1463.7764,249.9236,762.66785
-1052.6824,301.20413,506.96152
-829.7371,457.126,281.55893
-709.2684,480.51407,228.576
-641.87994,528.4362,162.17557
-593.2453,601.9464,119.808075
-601.56165,706.38617,96.214226
-680.19324,753.52954,156.20175
-830.0698,696.4938,217.26474
-1015.7262,697.7221,301.41006
-1108.4093,633.0375,311.03406
-1321.0138,677.035,347.17358
-1490.9211,754.2747,437.93085
-1546.4419,718.71265,485.22046
-1588.5043,617.44824,435.12137
-1650.4093,541.63403,355.3213
-1779.3955,447.7313,315.37268
-1675.2701,267.09396,302.8674
-1325.183,217.16592,259.9837
-1059.719,203.1915,223.30637
-874.76227,176.30176,154.69576
-733.328,185.20924,78.162704
-626.99744,162.83179,20.408222
-537.2573,146.21597,11.321813
-468.27606,162.28264,12.515631
-400.12466,170.27666,-14.297912
-412.95627,294.9688,-16.789185
-534.9772,466.1962,8.180432
-594.0043,594.27325,125.91049
-721.11975,596.3532,282.65512
-867.78296,547.74133,465.30917
-1159.552,487.12656,634.8495
-1606.9214,482.21848,756.5244
-1798.7767,390.8916,670.51
-1698.3469,302.5626,520.5941
-1332.1427,214.97473,524.26337
-952.052,187.43634,367.33835
-799.63727,265.1663,307.84024
-734.1529,332.75552,227.49913
-682.82086,506.34,123.87812
-660.4599,646.90405,106.37139
-625.4958,755.57056,85.35257
-665.5268,773.38214,167.4703
-789.0331,688.46277,293.20782
-1061.1765,698.5243,422.1318
-1165.3083,668.7359,462.07162
-1216.847,636.9448,454.38165
-1397.2544,683.9066,498.8147
-1466.2208,652.85675,504.41797
-1484.3207,631.9096,482.86157
-1444.2865,536.7922,388.00784
-1583.636,499.89703,417.5432
-1557.0033,407.3043,387.00742
-1351.8981,322.9644,269.65768
-1187.4407,261.27042,212.10773
-1039.8912,116.37234,173.86812
-877.3772,122.074425,105.798035
-745.7312,109.25714,75.61866
-633.9494,119.20665,51.489864
-582.3725,162.53137,56.93138
-557.4638,183.63751,25.725523
-551.2665,230.72786,10.2703
-531.67834,341.34036,4.433205
-515.85144,458.2046,113.293365
-620.8366,501.7685,233.45169
-863.3925,655.546,397.14816
-1042.9924,764.95044,638.88513
-1214.887,553.475,722.3503
-1575.5983,358.15747,600.3762
-1643.6211,173.24864,562.7884
-1384.0995,178.04103,550.63904
-1055.832,147.81387,390.03958
-892.7178,386.70563,242.22415
-765.6125,645.1631,145.1299
-712.7456,615.8859,156.75452
-688.51965,652.3748,161.39049
-712.67365,653.63055,195.70259
-788.17096,653.0333,261.47662
-920.9355,649.34753,354.33145
-1089.9205,714.361,427.2309
-1129.7865,684.47,464.89136
-1260.3365,669.37067,491.32312
-1417.9108,741.65076,615.3553
-1433.2699,603.3041,587.15424
-1384.682,512.00977,496.30264
-1502.785,547.27893,453.66864
-1658.8258,467.8399,373.12064
-1611.9337,347.06406,303.40994
-1424.7782,322.85257,298.65915
-1093.7247,180.51187,210.5334
-881.2975,206.26595,117.47283
-751.9158,276.67673,63.520687
-698.52344,255.7486,23.889736
-638.02783,245.59885,21.21486
-604.5577,206.87772,3.0459185
-559.81024,187.02145,4.4961824
-545.017,235.7663,-8.429292
-519.45337,315.47433,17.971956
-522.15796,468.0601,145.32817
-610.9775,537.0963,277.1041
-824.2865,646.2046,473.47192
-979.39264,641.27356,657.9507
-1156.4615,414.67514,650.3487
-1541.2844,303.4221,605.1133
-1695.0582,281.14407,605.7592
-1524.8131,341.68054,706.74725
-1133.8934,138.27655,579.12146
-888.1392,226.72931,314.5708
-832.96326,624.38165,266.9656
-752.4126,380.97815,230.24678
-737.23126,392.8847,146.74939
-727.088,598.6423,138.83302
-747.38403,741.0314,190.18257
-749.75525,820.45197,255.74353
-953.95447,857.3035,371.80148
-1118.5282,722.8789,418.95212
-1172.707,456.43436,379.90738
-1289.7538,591.0642,451.7864
-1398.0028,725.6541,532.7954
-1453.7467,704.6351,535.221
-1466.848,693.14355,454.7733
-1687.9999,608.36255,387.1622
-1692.1396,387.3393,291.28525
-1493.2096,281.23892,280.89597
-1246.3997,224.02469,257.42276
-998.34644,184.27869,154.07639
-827.8635,249.77045,79.15547
-744.35254,260.49506,29.540276
-677.2542,268.22247,9.125162
-643.3654,235.21216,3.0651863
-614.07385,205.64134,-0.7542857
-582.7102,244.9141,-14.109796
-620.81274,332.2855,18.698896
-589.5504,411.89526,86.63196
-634.59247,502.3842,186.63304
-745.69196,614.88257,359.39706
-879.0611,757.9217,611.5725
-897.5736,627.3935,595.36346
-1197.2657,498.97552,560.71857
-1507.242,239.57936,717.73456
-1412.1692,193.18129,713.3513
-1174.33,312.91858,632.9465
-924.1689,339.5863,418.67792
-769.7823,611.0632,253.76443
-634.19116,689.1242,218.7816
-612.20807,479.52496,215.93538
-665.2253,587.31024,211.6653
-798.2539,617.2642,239.86406
-901.1919,664.71014,292.38
-1090.0873,720.9682,365.05457
-1118.312,680.00903,368.36346
-1027.897,546.50604,301.66516
-1254.6212,660.04034,375.5751
-1347.9635,712.02136,505.56415
-1332.8665,671.19714,513.36847
-1295.5922,619.04315,404.9645
-1472.5233,571.2975,338.7503
-1554.714,488.39664,304.4336
-1470.5347,375.07376,296.3439
-1298.6787,263.29916,302.664
-1030.8427,189.96788,204.08136
-830.0982,186.681,138.4108
-730.0912,240.19183,87.172104
-669.3547,235.72145,67.96138
-607.66016,226.73604,51.991863
-581.1181,213.61848,32.277504
-563.2858,240.32553,30.77431
-567.84143,270.22385,41.16284
-600.778,394.31897,90.327545
-658.2057,464.03046,205.33095
-802.15173,520.43634,298.14822
-957.49286,584.7145,497.7359
-1109.2513,484.46942,664.1707
-1443.6952,382.9846,688.77527
-1677.1427,234.3577,629.1784
-1566.4032,151.81415,585.9687
-1234.161,160.37111,550.18225
-959.97974,270.805,367.9441
-819.7964,397.9529,250.64192
-767.7278,473.26773,179.29526
-701.3657,559.46356,131.76491
-651.6965,629.89996,136.30727
-682.3837,673.5275,137.4721
-750.174,700.9538,172.66743
-945.4819,773.85,323.45663
-1133.5035,807.1547,404.3634
-1106.7196,639.5088,340.36554
-1321.6156,690.67535,437.16364
-1441.9755,710.31885,589.30896
-1452.4144,597.6195,605.95575
-1438.3031,608.58026,540.6805
-1590.9568,510.9518,437.6358
-1619.4474,363.1618,375.8501
-1612.8026,267.79016,284.01556
-1286.243,208.33331,260.7521
-970.5729,69.60123,221.98131
-785.98175,260.02097,125.37736
-673.9285,259.76846,35.963264
-584.88605,257.8092,1.6836975
-554.5866,273.65778,8.180144
-505.45633,225.52676,-2.2618248
-485.13187,213.80354,8.10922
-529.2869,267.71658,-3.9841535
-575.5082,352.85568,58.666977
-646.5941,450.41632,199.39212
-798.7131,512.65454,292.2049
-1005.32513,521.3321,373.49622
-1148.9738,399.05417,494.77905
-1481.9067,403.3691,685.44763
-1883.2191,442.6557,797.1281
-1754.539,393.30594,722.4586
-1177.4663,279.79266,623.7914
-853.40155,218.38959,373.33804
-731.321,212.84335,263.25916
-674.3397,282.53857,209.00049
-668.5024,529.85046,210.87271
-612.38983,669.1392,159.4579
-610.21484,791.0682,160.82732
-632.65643,760.7113,227.87079
-835.7754,676.54956,384.72266
-1078.1053,622.9323,447.9096
-1094.8844,557.78986,408.15164
-1307.6361,614.74664,365.5721
-1522.4633,716.623,448.36737
-1458.9745,654.1474,458.772
-1397.247,598.579,415.31567
-1503.3484,585.51575,366.7144
-1673.5276,508.67676,331.40656
-1609.0952,325.1935,301.2865
-1297.2579,221.80492,242.93892
-995.85315,148.80379,167.04396
-844.36816,165.96497,112.96281
-757.1352,226.19765,85.96737
-666.0771,214.83244,37.087273
-578.1823,223.54135,19.582138
-517.26465,198.08363,-13.738536
-502.66785,221.77115,-10.915702
-526.2998,286.66815,-8.777407
-532.3873,331.79678,29.624418
-592.2491,442.7978,169.00813
-787.7097,550.89294,306.38016
-951.8319,606.9511,470.441
-1058.2583,521.0185,626.7314
-1325.8148,404.67712,682.22186
-1683.3118,313.13275,691.85864
-1705.5171,235.7949,657.1096
-1311.0962,179.79576,603.82605
-920.3384,167.50243,469.43527
-757.4651,255.24417,323.59897
-704.6693,352.265,290.6913
-654.7432,494.81805,246.83023
-618.1157,622.24133,227.12125
-593.909,730.0915,237.29288
-610.4113,706.15125,304.94467
-746.718,623.2992,402.41867
-991.0073,649.64307,492.94748
-1153.875,522.3541,510.5822
-1165.2574,362.04898,419.29895
-1383.3221,479.28394,498.15433
-1469.5232,572.6342,647.22156
-1536.8544,574.81744,608.5392
-1503.8546,526.63354,517.59906
-1609.6388,438.63412,461.1147
-1670.1559,277.6003,347.86557
-1456.2571,264.8225,244.9286
-1106.4696,188.89856,240.66594
-877.0425,180.43488,198.56252
-715.1148,226.47415,97.891785
-590.8025,201.41261,9.407948
-522.1417,219.82832,-7.610024
-457.6406,206.6486,-25.758152
-402.22864,194.15582,-5.081897
-423.6564,219.07964,13.718463
-441.08322,263.55154,61.578823
-519.61017,342.27765,98.58782
-635.7921,417.74304,232.10034
-900.51605,443.32773,309.047
-1217.9185,419.63638,402.1428
-1598.4879,480.9167,616.71
-1872.7933,579.7772,849.46954
-1743.4662,361.7621,656.77344
-1363.8395,-18.312244,459.80447
-1088.471,-111.12336,436.20773
-892.4063,28.645115,386.0624
-770.98114,180.53197,290.34906
-691.38354,458.2201,252.53262
-593.4635,686.2203,206.77333
-512.3672,753.1773,202.49959
-515.08496,714.7442,281.80032
-643.07965,614.5228,401.92963
-813.4903,554.78864,484.95987
-1035.0845,571.97784,546.8386
-1130.8158,564.0555,515.6622
-1312.162,502.66428,453.9449
-1488.3861,559.9347,505.78873
-1523.7949,486.62393,502.55096
-1541.2288,435.1487,437.7426
-1525.2969,434.4563,331.81482
-1556.3356,470.34473,317.78262
-1558.3053,382.81744,318.06738
-1270.7474,269.2101,235.37714
-993.88916,267.69257,148.54466
-803.16095,234.02309,94.673416
-717.75433,238.35936,94.30417
-643.8814,248.29114,68.21474
-598.0782,228.47409,65.485435
-555.0272,198.97472,31.074429
-524.9754,169.94867,23.087658
-522.1938,196.0796,40.22761
-576.78516,272.227,66.75659
-607.8778,331.67508,150.68416
-860.56195,439.82178,253.03685
-1112.1875,557.83966,351.18173
-1189.3789,480.11243,523.6698
-1350.3247,424.94083,622.59204
-1640.478,360.00565,634.808
-1769.8586,350.35907,712.8456
-1557.5079,155.67773,700.72
-1219.7755,427.20532,367.19418
-835.8897,743.7886,121.31772
-712.8341,489.85614,214.97229
-666.13885,474.43423,228.70354
-608.54645,479.75452,142.9951
-597.7594,717.7046,116.42259
-619.56464,775.0453,146.84573
-728.98804,668.80865,212.5744
-1043.5234,762.82574,343.5073
-1165.7933,685.15497,393.57047
-1280.3337,569.1801,398.49878
-1439.8695,642.6794,493.45166
-1616.1226,665.2379,608.065
-1691.111,425.7601,536.41016
-1634.6902,295.87567,395.93924
