# PAMAP2 dataset (wrist-mounted sensor)

acc_x[mg],acc_y[mg],acc_z[mg]
198.19833,986.8774,-16.487644
37.673172,992.638,-24.291224
77.25755,1029.5061,-2.1823728
12.69812,1007.48474,17.790098
0.7704912,1050.3121,96.165985
-33.517715,985.088,162.71729
-42.15309,1061.6588,247.81787
-30.21195,981.6184,228.56042
48.14833,1050.1616,219.51991
42.46779,948.3193,186.69151
80.11435,993.8386,140.16763
36.70016,997.6433,66.0443
60.859264,989.5592,29.638498
98.9951,871.5692,-44.03462
152.17749,1002.1077,-70.80122
213.27954,970.37964,-115.977356
370.55762,1045.2085,-66.71817
412.8632,890.10565,-56.044533
374.89514,1100.0148,-47.885418
367.48926,1196.1499,-43.863705
414.36954,1200.653,-0.009427191
352.67487,997.9818,13.912468
386.88596,1007.65875,60.14522
332.01678,918.38446,39.41828
380.0447,731.9968,-4.755917
325.0987,615.6851,-109.29616
296.2256,781.652,13.806317
204.12129,546.3802,77.99032
281.3493,597.7306,35.52541
23.735046,337.73874,-1.4488332
298.1837,1168.98,197.0252
318.0397,2489.3694,252.4746
272.28595,275.7275,-178.09706
434.8449,912.1755,-10.381875
421.25073,1033.9138,40.653423
471.8929,850.26953,75.0653
323.8622,852.0866,32.425694
299.63074,820.2576,76.50411
143.75226,859.7541,-22.983782
174.61568,1003.8974,-25.973967
-11.441152,956.41345,-124.62739
-112.14864,922.08997,26.62248
-376.3328,867.3033,231.83778
-498.32913,1010.86444,220.06992
-719.2554,912.4076,273.9353
-865.5,910.87585,250.93102
-846.4243,926.88367,224.90959
-719.0342,958.8366,175.28096
-718.6714,974.6192,139.72546
-698.1165,853.4686,81.62078
-626.60376,772.7407,24.13943
-478.593,818.0376,16.001732
-529.3343,798.05835,28.881395
-533.9153,765.768,18.2343
-491.72116,842.2547,97.38549
-415.10864,684.37695,134.34157
-413.21136,840.33386,134.24811
-406.3639,889.59125,163.61433
-410.8519,1135.8035,126.55463
-320.0707,1378.6556,102.61591
-229.05437,1480.5072,145.61572
-232.54185,1527.2969,149.92903
-501.86066,1394.78,65.691696
-761.7405,1229.9542,-155.36243
-1095.422,1259.3138,-94.70126
-1165.0831,1201.3553,-93.20969
-1046.9738,824.93866,-63.797924
-971.24615,819.8646,74.98465
-836.3385,729.1024,113.61826
-634.74286,527.6649,101.98557
-609.98517,522.5528,36.18576
-479.85574,337.8739,-43.656353
-441.49908,266.35666,39.24568
-316.3496,266.6984,-120.37142
-451.2791,437.44125,89.080605
-758.0866,-54.197933,115.63354
-785.3351,619.3568,-94.13355
-1268.2749,1215.6215,131.49492
-814.0322,1036.0363,201.78725
-326.93243,1471.2401,149.77264
-661.578,855.2845,306.09576
-783.57855,903.8152,230.23299
-861.447,675.87573,142.93684
-780.294,741.8321,90.82084
-688.8326,725.25165,99.03029
-557.89795,655.25806,118.61233
-554.8127,577.87854,181.96613
-624.3075,464.9106,152.11978
-701.24023,468.5878,165.99594
-647.53296,214.2854,183.67334
-814.75653,15.813898,153.43759
-1196.7052,417.28113,335.29147
-1349.0312,411.8273,132.1797
-1524.1123,1232.2559,106.46234
-1276.441,1484.7589,244.75305
-918.79785,1267.0442,133.5512
-882.7053,1116.5381,126.605644
-921.8258,1060.3346,11.711293
-1047.3359,996.203,-106.60589
-1228.3121,1181.8473,-240.93044
-1266.1711,813.8401,-251.18825
-1108.3727,1089.455,-227.46211
-1026.8213,856.2663,-228.1738
-939.2047,533.4744,-210.68674
-890.4275,533.2912,-283.80505
-613.37225,290.76337,-108.63902
-462.78513,205.3061,-45.37491
-370.24515,397.37683,-48.234478
-306.76025,208.34128,121.713356
-159.61076,390.6676,199.09906
-26.557072,1008.7558,324.5682
-271.79608,-295.49158,134.29996
-492.51126,226.63498,-12.618994
-1176.1353,-130.34822,-43.94658
-1866.8088,-14.985626,82.74135
-2386.448,515.0444,190.00162
-2295.8936,786.9577,122.84678
-1936.533,932.4862,-50.06878
-1456.8483,1357.9824,266.73724
-982.5677,1450.9111,333.96304
-651.7513,1232.9069,114.45846
-565.85004,875.88464,151.38016
-481.95074,909.01746,19.958195
-575.80896,886.97345,186.47961
-758.1187,884.82874,202.40184
-1110.2266,746.49316,241.01529
-1220.6913,541.66754,120.63473
-1380.1288,707.9918,283.24893
-1227.7382,929.0742,355.95975
-1249.7556,1102.6855,359.71713
-1221.7667,1104.1996,302.6585
-1253.3391,1098.6603,237.508
-1283.2776,1155.0565,145.17274
-1110.0796,704.75073,83.38983
-810.08984,700.47516,248.96826
-291.7427,259.09225,183.4224
-44.078068,269.70706,167.35326
139.92526,108.304344,77.758
152.58038,296.08768,-2.8882349
176.56247,323.69788,117.319115
202.53352,780.9256,30.41701
202.94328,846.7108,213.80888
195.22096,833.90295,377.0503
242.75269,756.1402,440.85953
168.85971,733.02264,461.8799
62.936844,456.511,554.7475
-82.05451,521.66266,481.7051
-239.11197,410.30734,383.88446
-528.132,733.4645,307.05643
-543.7747,431.3913,154.65158
-228.34166,3063.1436,466.278
-440.66696,937.10236,-132.65279
-314.95517,616.32336,88.26045
-41.182625,1167.9373,-37.94736
158.39432,768.1863,-36.41182
5.918464,924.32,182.86908
-84.80778,574.9437,231.00896
-286.17642,807.98315,281.48492
-439.9837,807.0687,409.90433
-681.89496,799.17316,377.61536
-742.8543,700.9475,371.50726
-924.0172,962.38153,258.7063
-1045.2556,824.168,209.18904
-1020.02155,949.7518,201.47658
-857.60736,973.9662,166.79092
-825.72876,1104.2719,73.51717
-1093.3538,585.6474,-173.58643
-1163.7483,651.2188,-244.61528
-978.48584,691.41455,-162.75311
-756.05304,541.9231,-39.631134
-613.4262,475.26743,288.52176
-651.64355,872.1659,148.20535
-842.9066,943.5052,230.63841
-1106.7236,1114.2657,86.43182
-1360.4421,1246.7076,81.388466
-1225.0365,1193.7334,261.26376
-1004.93823,849.64075,213.65024
-854.28613,642.2406,307.4724
-547.2224,369.82462,253.0351
-690.5202,455.7786,206.099
-659.814,462.14023,341.07657
-584.9374,614.6125,191.50119
-528.16986,649.88824,147.29297
-407.8846,542.06616,279.59283
-299.88705,460.34256,286.73038
-252.25163,328.72296,176.2636
-122.737854,311.7268,201.04642
-187.48965,183.4303,142.58057
-148.6165,802.55774,372.57935
13.263378,1158.4153,598.3976
176.41658,762.07465,346.0922
83.30945,908.3421,326.78195
-42.20932,710.181,289.2752
-218.27803,1108.6086,257.86862
-583.6961,1211.7594,153.47566
-912.2037,884.2151,86.56491
-1170.123,1005.2483,104.389534
-1108.0829,712.25635,126.911
-1043.6266,639.4129,152.26382
-890.1617,483.27148,154.60188
-759.2567,432.02692,98.14489
-667.44617,279.77258,132.73093
-531.40857,233.71898,160.9141
-636.56,286.60703,174.41745
-855.27576,496.55408,153.45107
-1197.5989,-6.8378778,207.13847
-1511.7269,10.327319,224.67441
-1734.837,129.19565,85.02778
-1692.2173,295.5078,90.23662
-1482.2902,232.36488,88.282814
-762.7697,532.53827,210.47882
-650.6474,655.43396,395.53693
-1185.5465,381.66452,275.52335
-1299.7081,365.27075,175.59717
-1275.0045,376.47238,134.72101
-1041.7708,247.93253,166.83507
-979.81665,498.459,174.82532
-893.0301,688.6466,252.70302
-783.30225,710.48474,325.33798
-600.76776,610.20416,213.4172
-600.26587,506.9654,361.6492
-527.146,564.1555,283.08698
-367.47882,698.1591,284.68076
-85.96994,724.1849,301.6498
-77.272156,856.99646,271.75903
171.72957,709.9646,41.634453
-74.457375,800.8276,-2.1675842
-150.54869,707.81305,5.4242325
-280.74506,444.5243,-119.75205
-474.80865,643.1667,-120.20649
-361.52396,1504.1975,114.70777
-362.27954,655.8235,100.614365
-260.4675,876.57526,102.6073
-150.83478,809.43787,182.42589
-85.683235,724.6573,193.48573
-115.334,858.53174,217.58342
-248.63396,605.17865,213.47855
-502.3769,725.90015,174.88681
-967.6967,747.32855,131.54936
-1205.0979,850.25665,108.31944
-1300.9457,927.03796,110.68177
-1375.4198,593.1699,23.957243
-1160.7299,680.307,244.8612
-1209.734,587.87085,246.13657
-1276.2416,339.5967,291.56296
-1433.2832,-381.0948,81.36645
-1177.5443,-632.23975,-31.592634
-898.8361,187.41882,128.65063
-664.96686,398.8908,174.60156
-651.31964,651.3389,170.22224
-674.14624,763.12354,145.43658
-735.48816,658.20544,144.64777
-765.3732,742.96204,156.62547
-731.104,919.04047,220.2997
-635.1624,985.8401,274.8039
-674.8876,1215.8447,187.74527
-763.2661,1348.4161,325.69498
-715.12177,1241.6716,273.87082
-1082.3732,1186.8792,209.87932
-1113.0275,1145.9802,174.68723
-1043.6302,939.8798,65.34551
-926.8621,745.25214,104.88628
-613.3351,656.9741,172.12244
-404.4054,355.93793,63.23371
-324.1355,448.14456,197.47533
-220.02522,253.67227,154.69855
-182.61174,266.66415,163.92786
-258.79944,308.2291,71.409424
-284.52042,619.08484,206.76848
-308.13098,579.27655,167.19736
-326.681,1173.2021,355.1649
-243.58006,692.97284,370.48172
-340.54575,454.46295,81.2742
-475.06927,-260.21027,-93.24138
-1364.6194,444.59125,444.52255
-1390.3785,2455.7812,966.50446
-1107.65,492.54727,70.369255
-1238.0073,1349.0942,162.97601
-848.1538,929.9079,131.0057
-717.83984,209.24503,38.17845
-739.2106,363.37503,-18.498774
-660.03357,537.6122,-2.3819895
-593.94684,534.5228,59.716343
-632.25574,444.37823,215.21875
-776.8816,443.93365,185.7611
-969.3729,338.26233,190.75818
-1209.0447,287.789,148.04828
-1406.9148,643.9779,158.65913
-1447.535,768.58136,287.7464
-1523.0421,895.404,415.8939
-1319.9762,879.3998,308.38956
-1324.5835,772.6684,335.40967
-1385.0153,707.85785,168.61784
-1409.1558,693.8401,146.59312
-1321.995,696.4645,-24.124111
-1104.4834,697.9163,8.52797
-908.1432,658.0546,102.07551
-724.2632,552.1248,136.68689
-606.3106,68.36531,69.820015
-530.1629,149.82738,1.6574262
-602.2958,461.32825,99.81524
-494.51715,384.41858,182.17874
-439.00745,657.34796,277.05655
-460.03696,385.59882,282.71286
-353.5579,549.0912,190.05237
-262.9797,-18.775436,228.09288
-516.27454,-26.408825,51.45487
-1283.3798,1425.668,673.36536
-670.2346,1600.2706,1062.3022
-757.8231,258.77606,146.88184
-764.4498,936.4858,383.72833
-484.34146,827.1896,414.93008
-507.5732,566.03394,275.84952
-577.1197,617.96606,273.03067
-551.406,465.6898,313.02792
-681.4644,447.4127,317.56668
-764.91394,349.2206,352.10257
-813.62494,411.12515,356.90814
-942.145,555.9211,328.53818
-1090.8121,585.53314,230.12807
-1161.0885,587.8323,133.05864
-1355.4612,847.19147,181.44812
-1336.5605,953.7684,141.22601
-1263.8894,1027.664,80.24152
-1106.2585,1028.8804,79.4413
-1022.0115,921.56274,194.63986
-991.1203,946.6346,292.2901
-858.2839,906.54816,265.20798
-960.6937,1042.9553,112.01481
-883.3389,864.70575,184.92278
-725.17786,807.934,328.8341
-650.74664,553.55164,150.36118
-404.48083,306.909,158.98135
-283.89102,442.26175,192.213
-318.174,321.7467,116.0005
-384.83188,409.45035,162.0488
-448.7907,690.60693,321.06564
-500.634,723.23334,320.97763
-468.17047,789.1053,469.74817
-564.48804,813.9857,545.54034
-521.34467,733.1684,472.52136
-440.04337,680.4709,457.10208
-345.8295,239.7544,346.0789
-517.3019,142.13168,293.75754
-684.2805,228.8058,174.90013
-721.0151,225.06169,267.4473
-950.58124,376.4278,235.69997
-1056.7997,545.7082,56.313507
-1163.5082,421.18723,214.48439
-1370.7881,547.25385,309.0693
-1495.8489,721.604,320.86755
-1567.7158,717.1343,376.33282
-1596.2097,687.88214,444.22104
-1622.7612,851.5853,470.97214
-1193.4462,680.40875,410.9956
-1096.7706,647.4919,377.53806
-937.2032,600.89905,318.30118
-1120.7255,836.45593,256.92496
-1196.4146,752.132,282.18253
-1235.3234,709.4668,179.97725
-1372.1428,653.9648,112.43296
-1236.5266,252.63788,169.46767
-961.5006,359.5636,171.53325
-853.73676,302.09305,129.09464
-873.4219,440.22177,127.893196
-854.08276,409.83386,132.87619
-866.9415,407.9774,161.12419
-698.9775,360.31555,159.78528
-807.5413,320.4335,231.30211
-688.94586,254.34535,180.89072
-609.22925,301.9785,201.80373
-955.19696,417.187,183.01335
-976.6572,571.4846,278.4783
-901.80237,454.40778,339.26205
-862.397,522.931,332.13684
-957.6364,594.1434,328.0103
-777.50836,452.19235,420.6591
-724.3746,566.6806,289.90964
-792.9063,468.9138,292.3974
-822.69666,530.2675,338.38153
-1017.5333,776.38824,138.56372
-1129.2379,819.3431,192.94136
-1114.0327,823.1681,239.39311
-1200.5759,928.163,150.32462
-1232.063,920.7215,295.59967
-1239.9471,911.212,284.37772
-1049.7555,802.07513,244.68057
-1132.842,761.17505,211.22873
-1203.9585,782.09045,248.46164
-1416.5836,765.3407,129.15053
-1673.344,737.8482,171.29689
-1721.3126,619.49725,194.98932
-1682.0106,508.6664,175.82175
-1433.8956,546.46533,195.26224
-1140.0994,342.9633,200.02867
-872.1039,405.1775,64.63334
-717.7886,489.57385,97.52676
-568.98376,423.88705,72.73603
-275.1109,263.6227,148.7876
-76.91754,113.55506,134.6587
-125.356285,193.20589,103.90568
-230.31543,576.22485,38.567917
-71.277275,683.1701,-1.3131806
-234.09697,871.53827,140.72247
-333.4972,797.58057,442.07095
-496.18494,627.72284,479.23914
-594.4285,786.631,557.5047
-577.0346,685.28296,449.81345
-738.7105,939.79425,297.73047
-461.61847,1007.9553,360.07864
-249.05399,677.0557,156.8204
-344.73047,957.31036,174.59433
-297.11145,918.3642,126.618515
-240.20657,1618.6552,126.562614
-195.28519,1063.9246,185.19406
-494.62247,616.1945,33.588196
-900.10223,989.9047,25.287437
-1042.0621,1300.6162,285.74835
-1034.9186,1358.025,261.80222
-1190.0538,1113.9221,-79.01308
-1042.9873,1575.8262,79.262856
-817.0322,1231.6576,-9.013993
-720.92865,973.00085,42.50596
-737.1564,1084.0399,8.886217
-716.5831,1016.0811,-79.85533
-645.32654,896.92834,-16.59541
-569.092,951.1402,63.582226
-596.93726,746.2795,27.03615
-639.0805,982.0543,206.18745
-609.4353,991.71484,222.11378
-678.5121,1099.1046,94.88438
-576.2121,1009.7608,342.48495
-344.01657,966.97675,272.25702
-355.56094,850.9157,286.2846
-87.41334,688.80554,352.16452
25.795527,631.6549,319.49683
24.669575,567.7401,402.9806
20.885788,445.85513,414.4962
63.55432,850.72955,189.46274
86.07231,652.99023,282.0033
97.453026,837.9904,323.14746
250.66606,742.5004,210.69295
312.69202,700.47595,317.39255
374.45438,416.58035,203.68484
397.63754,475.11423,163.71074
328.39697,155.28531,143.79868
165.97763,542.658,257.813
48.553017,357.59863,76.17793
303.7426,1689.8302,544.0449
245.32693,2626.8792,573.4903
337.9329,351.17194,45.235207
-40.37838,1159.5278,-31.327082
-258.73248,1178.6072,140.79677
-354.1107,1205.4742,93.75643
-442.28635,876.4135,47.992176
-292.02072,797.0746,267.06546
-128.19693,721.28534,234.29176
-171.46872,704.8327,204.16774
-316.1326,658.1106,206.20921
-431.2421,559.3078,121.133995
-510.5251,644.3504,165.05054
-676.97296,605.5481,114.73815
-897.7195,515.50195,127.138054
-1278.2554,-195.1795,-24.604906
-1909.4684,-80.00436,83.971306
-2264.9846,-171.50175,-235.7101
-2214.0872,131.81908,135.5312
-1494.7799,1440.5952,621.33246
-1018.81226,1029.8967,366.1154
-928.41473,959.08936,175.08875
-1043.6217,542.5703,9.18313
-1061.2701,669.2123,130.43687
-1071.098,581.96594,-4.459039
-1061.1113,626.16815,94.25235
-1166.4124,951.15967,151.10759
-1111.761,888.83105,106.00842
-889.30896,687.1867,234.95679
-712.51044,715.3141,400.31104
-657.9858,548.1918,408.56876
-421.5425,336.2037,386.75134
-242.38275,674.6996,337.03403
50.79123,632.72327,371.81146
27.107851,866.4678,124.853645
-84.51926,892.7744,138.16107
-3.735268,584.7154,130.44788
-118.67819,787.16876,-12.339282
-75.08483,620.4356,72.744736
-171.23367,724.6005,110.72386
-42.537724,561.7571,-60.673405
47.38741,891.26794,301.98495
-35.21292,725.68494,340.09576
70.25845,790.7058,297.2403
40.359047,393.9452,260.45993
-37.29205,741.799,432.44247
-34.97675,963.16284,421.2948
-269.52457,905.7818,215.10309
-514.88257,1049.0021,224.30235
-835.7453,941.8658,160.0709
-1037.7494,905.31775,119.1799
-1038.4344,713.9139,145.20728
-1334.9137,787.58496,232.76251
-1514.3131,316.08997,120.66604
-1469.8489,503.65405,164.29718
-1163.4293,452.66302,207.08516
-993.81714,400.9045,190.4503
-750.1526,259.36176,71.74524
-684.49603,350.9815,81.412926
-722.3101,304.76065,69.46647
-791.0671,359.2615,158.12776
-842.88495,222.8505,121.765144
-939.76636,418.43173,125.95684
-986.07776,468.83414,140.38524
-1113.4337,705.9655,233.09613
-1229.5835,685.64087,248.43535
-1353.9053,767.6947,289.84845
-1495.8431,770.3113,327.59137
-1351.0985,730.448,270.0112
-1300.3774,592.69556,246.5754
-1294.973,899.9323,245.2003
-1355.2968,763.99384,50.796173
-1395.1604,995.3855,10.597738
-1242.2893,753.42993,-61.797344
-1025.8115,728.1277,-73.27673
-795.36304,318.55237,-8.226603
-665.38495,719.2116,152.72438
-523.4876,309.527,59.84841
-481.49365,715.8954,181.066
-479.79,545.0691,27.637505
-504.1405,726.5166,70.997955
-206.74216,-314.93015,-20.343283
-243.15686,348.3199,14.8313875
-661.1888,-830.88086,-228.39041
-315.2327,3235.847,645.6155
159.91684,1660.8547,544.0349
283.5595,183.18369,288.0406
-288.1449,1437.806,529.38025
-338.52405,710.1229,233.50633
-312.66068,1171.5762,195.72906
-123.42222,565.0017,92.239876
-16.096355,1094.9434,102.81877
-0.5831028,737.7594,47.94729
-107.49812,953.7696,112.28732
-179.51627,705.2853,133.73315
-157.68904,934.25543,212.43832
-52.56318,833.63666,257.72028
-83.57941,901.8115,381.3786
-63.9034,789.57324,409.9257
-200.12054,963.902,365.42206
-245.31322,962.8284,362.41095
-457.35852,1481.2715,376.9829
-739.88745,1929.3167,228.07104
-842.67633,2154.6772,258.9363
-654.9719,1311.4303,219.29607
-482.42075,1394.9535,246.27794
-310.6235,1127.9348,241.2241
-194.6581,946.1903,259.17554
11.994748,630.94086,229.1011
2.8380308,440.59088,88.617516
34.514618,321.08786,43.178368
82.17645,333.75058,16.509218
115.89913,341.60495,57.479076
82.85137,794.29944,200.52731
22.48167,986.26776,254.99712
52.64854,1270.3579,257.55814
135.94559,1295.8207,426.77054
141.97311,885.31476,554.98596
97.66412,735.4999,510.1412
-57.96155,655.53357,325.1124
-172.17569,451.7,289.6641
-458.966,175.11795,312.62622
-408.78143,856.3135,369.3468
-434.4799,2407.5347,527.01886
-48.829315,188.08197,185.3332
-117.79202,900.38654,170.81017
-55.900284,557.4864,155.36903
-102.97406,785.9628,36.18982
-40.274395,905.2961,81.33986
-143.676,930.67755,150.66388
-162.04068,629.5838,-57.699055
-528.5449,1111.7992,152.4613
-465.26764,767.6047,311.44772
-730.474,1056.6353,255.44374
-1098.6997,722.41156,360.23886
-1416.5405,892.92694,297.06635
-1320.1824,838.1357,275.78638
-1194.3053,367.99728,383.09763
-1210.0068,654.9338,94.48163
-932.45056,180.588,110.32687
-852.07996,384.25974,148.31001
-711.7123,219.86678,86.35612
-670.77814,215.56879,62.862537
-559.97754,79.84664,33.33516
-668.23315,333.31543,118.234695
-945.6941,550.2474,107.867744
-1261.9584,493.52136,141.06592
-1497.904,278.314,69.702644
-1559.5698,340.66995,167.41403
-1601.7983,296.56235,178.52489
-1104.5527,356.93155,225.40533
-1058.4557,888.6594,461.72418
-1495.4302,681.64594,280.69595
-1483.6901,602.5779,136.3676
-1366.0557,861.2871,361.97995
-1103.4247,652.1432,324.57553
-853.58905,740.65576,449.55945
-709.8341,370.3595,331.909
-509.2337,263.60004,226.52281
-352.75296,247.88373,337.6542
-238.39767,299.35843,441.07834
-90.41511,105.69595,257.78775
68.967224,475.51743,309.6074
229.60454,224.86469,279.4255
320.62048,403.16754,213.93352
233.55418,207.85602,155.29503
241.92296,878.19403,340.88416
112.089066,894.1427,210.64774
180.76776,2230.6963,549.80444
70.8812,1078.5261,482.08957
21.38479,292.25354,-99.08251
-153.3696,107.14952,85.368515
-736.1951,1174.4808,605.34424
-354.8322,1816.2534,433.19974
-289.64313,-1.125871,14.145514
-259.5819,891.3586,278.59167
-165.0624,737.65375,255.14038
-64.85932,814.3606,298.2388
-298.88547,556.5686,213.32162
-600.12976,1036.485,286.94812
-906.05914,818.15735,186.01115
-1140.438,931.9418,224.22925
-1365.6202,698.767,152.47452
-1135.1213,735.65204,336.3629
-1258.5039,476.56268,233.66199
-1339.804,188.52959,158.03682
-1242.536,33.070988,71.55003
-1132.9573,234.17358,18.990292
-1043.1683,69.3263,71.40673
-921.8664,110.46672,186.2965
-960.01886,302.47873,133.05385
-824.7009,629.2324,188.69676
-671.9292,496.65662,256.77155
-667.7814,656.84186,309.09344
-776.25226,575.6056,284.98068
-830.5207,487.69528,256.2861
-993.3161,528.7295,200.97472
-1071.4072,938.30554,194.98022
-1096.3414,975.39905,102.00012
-1118.1222,1389.5757,218.29228
-1082.6571,1241.8967,203.94109
-1216.3489,1260.966,161.49873
-1372.8735,1382.3661,319.49402
-1324.0846,1211.1191,305.21332
-1151.8824,931.2908,371.30444
-895.0437,530.0837,204.8575
-659.2135,450.589,239.15852
-439.34198,414.7254,125.68212
-329.85263,297.13184,19.943735
-260.97592,290.28754,66.85527
-196.2915,151.3286,83.064674
-82.08994,88.190445,51.304718
-105.86835,151.76062,133.13786
-257.8532,382.59076,223.1142
-341.68286,813.9194,386.95074
-389.84818,899.2756,414.89212
-336.85712,1161.0718,476.1071
-231.92441,623.7765,346.37643
-520.4499,1563.104,748.2459
-328.62195,1781.173,831.72644
-404.3241,226.53922,162.23007
-698.97455,1244.2124,311.2121
-494.83136,869.3368,424.32083
-341.03604,1022.081,320.97122
-313.8935,678.7316,268.38324
-291.3561,826.207,290.7133
-338.99637,659.85455,270.64636
-461.6271,738.49164,409.17963
-607.2225,542.23456,278.81042
-541.23126,665.88336,341.34634
-498.35977,684.31104,311.6219
-616.8042,805.8466,261.95966
-702.0726,729.00745,198.2085
-777.6403,1024.2728,270.6285
-880.66547,1114.1787,310.57434
-1072.4159,932.62476,142.33559
-1439.317,1488.1034,88.21928
-1187.3682,1467.0957,144.85199
-868.5039,1193.4188,92.1337
-759.1789,1337.1018,185.57324
-705.75543,1075.4607,78.41923
-640.08527,1052.3107,91.849846
-599.2054,869.35944,93.928764
-556.03613,738.8022,179.66917
-450.7625,369.06866,112.097725
-414.74902,517.65784,105.92711
-444.38126,579.29767,116.57837
-393.7567,761.7948,71.77763
-341.57117,741.80597,92.63659
-316.6102,618.71875,169.95584
-416.67795,390.858,207.03436
-480.4719,351.7891,283.73648
-637.81433,589.38165,132.35388
-621.367,674.957,282.28375
-769.2029,1204.1173,439.32303
-857.7092,-831.72955,-121.887794
-1420.4573,2370.7869,572.2723
-340.73105,1766.1566,667.86346
-309.6759,278.62125,303.56305
-399.5505,1205.6731,263.70438
-249.08266,653.4702,190.02577
-296.3352,499.91055,239.94382
-322.18158,278.58923,289.81073
-432.6263,674.7542,231.28241
-702.17694,524.694,163.63083
-869.3372,686.10504,141.53905
-1068.6217,641.53735,154.7546
-1327.6782,933.61914,115.05608
-1590.9161,897.6407,98.90628
-1584.5647,1278.1317,-60.651295
-1216.2305,1456.952,-74.93628
-890.7052,1281.5898,162.13293
-1069.3519,1205.4642,69.34354
-1140.3005,1232.5112,72.601364
-1020.66907,1112.7399,53.08501
-834.86487,1217.7737,107.87831
-709.8636,858.9092,143.1544
-577.2801,549.1655,236.40794
-369.93796,18.188824,-43.488148
-358.9655,164.86755,-5.777669
-395.7005,224.84523,109.66533
-596.2051,327.24203,125.03661
-789.9576,595.4724,164.87267
-650.9588,614.4328,291.99622
-779.43713,689.56256,257.82373
-532.6367,306.81772,283.70728
-528.8991,1391.5559,490.1565
-456.671,1019.78925,345.19794
-192.45699,1363.0568,473.84976
-170.95502,688.11835,278.12976
-409.12906,1167.1306,188.91595
-209.71837,912.6792,256.2322
-67.38321,731.9279,212.92328
-147.3657,839.9531,210.91524
-198.68933,600.72296,210.52419
-250.18387,742.4608,312.3603
-354.05728,548.1267,330.0611
-433.88632,823.3283,353.91147
-535.73126,740.1775,306.56073
-621.06616,906.1404,309.19913
-729.9607,916.422,281.27277
-1127.2516,1501.8256,464.96265
-1456.866,776.17535,73.79789
-1528.6393,1474.9121,73.330894
-1063.9683,1550.4814,344.43137
-778.47675,1295.4683,283.67517
-792.80304,1228.6646,336.19525
-705.8314,1274.9298,425.87268
-685.1458,1005.7003,273.01984
-595.16156,1009.28265,165.1309
-439.963,587.8119,315.95715
-266.35947,249.19424,154.63783
-295.2304,187.90909,21.784794
-306.5987,593.6949,94.31951
-267.75696,635.2317,88.1157
-240.0327,919.7168,85.97722
-71.71573,802.5263,194.08626
56.576797,804.3151,194.78442
159.2155,486.6003,302.76254
145.61858,567.705,325.69724
-68.75193,462.92276,331.16226
-269.7534,497.22504,473.08395
-423.9106,2464.0334,731.0819
-86.93085,966.2441,266.84073
-115.37355,426.62018,194.38936
-59.935856,1145.1914,251.7716
-27.086515,818.6028,202.44098
-46.800846,843.4924,119.404106
-106.1944,725.1885,77.5666
-147.84349,868.36316,108.77128
-159.37056,707.60016,149.18295
-220.9692,941.2219,119.865395
-258.3531,949.5562,156.64694
-149.41573,1000.9609,175.17213
-404.5309,1077.165,87.61319
-601.24506,1265.2125,177.82178
-793.87744,825.77234,147.76831
-1084.0731,1235.541,-121.97964
-1162.31,1668.2898,-19.603296
-794.95636,1758.371,173.99748
-469.35297,1565.7572,228.26683
-347.45862,1206.4106,317.04443
-309.6151,956.1308,261.95914
-382.49652,1058.8059,288.44843
-374.0028,666.22064,142.13847
-359.2485,756.44257,138.32318
-394.58627,652.09247,179.87532
-435.10968,772.15906,33.516754
-413.6108,635.03815,32.304714
-314.76782,979.04474,228.9205
-298.30243,504.9184,178.08856
-172.3683,754.08875,279.20172
-80.89909,142.50243,181.93207
-275.0954,1017.018,461.96204
-441.8161,319.27716,359.30444
-432.18906,131.55258,37.00854
-849.8211,-769.9794,-12.6857605
-1524.4729,2570.9006,490.33447
-364.84882,2961.8599,168.66266
75.93117,-880.2099,111.170586
-400.5421,1576.0463,209.21045
-253.02206,404.08743,203.16023
-565.2677,880.2578,296.03122
-655.04816,334.12408,264.76157
-739.8179,840.3889,347.20477
-864.33167,516.871,239.53693
-991.9011,772.6297,291.91104
-1046.411,639.0419,282.2612
-1418.88,1051.9647,334.89005
-1407.0969,378.10602,70.937256
-1473.4491,1162.2513,66.82126
-1215.869,1232.5801,116.828705
-1041.016,1080.003,143.22656
-879.08075,1028.3721,184.62662
-780.10077,1088.7361,142.4642
-715.73596,904.14435,241.19229
-740.96375,1055.2174,155.53584
-672.59064,725.45404,233.2596
-569.9454,953.31165,313.10696
-567.8338,628.07166,357.7628
-576.4189,523.30066,247.32207
-610.5076,310.19128,117.2544
-517.2638,507.4461,222.21623
-484.85556,416.40918,258.58008
-614.29913,593.7888,269.48923
-488.157,391.86984,377.4301
-633.5778,842.4471,399.46658
-575.08606,1016.1135,681.7313
-577.07404,258.97772,331.9121
-483.60907,-103.608795,87.91527
-1137.8354,506.95456,78.19758
-868.5819,2450.6968,970.06116
-59.741535,351.9701,407.84674
-258.59775,868.5766,236.98334
-163.9128,793.01074,493.9126
-278.16013,733.0547,400.61884
-366.73236,660.91754,421.01236
-521.47406,638.04816,376.6964
-601.84705,738.90985,356.8177
-755.78894,931.1611,325.56116
-837.5252,770.7623,317.95615
-1189.2056,1066.9539,167.03299
-1387.7787,1506.0757,76.39039
-1291.0405,1632.4185,70.46744
-915.8478,1402.944,150.62373
-855.60077,1108.9313,272.21194
-850.1352,1149.2875,287.2362
-725.15826,856.7169,276.88818
-541.1843,788.66833,450.29688
-556.2476,775.5101,329.6535
-573.9972,745.1489,374.3198
-476.70984,591.47504,210.80069
-357.82343,691.8444,275.6581
-328.53293,762.3841,349.65536
-228.99078,614.926,238.28023
-145.9259,807.8438,220.817
-56.2537,852.2196,404.58667
-20.982597,712.8194,326.9927
65.10304,576.7974,346.32898
-55.691326,386.1977,424.6945
-312.50684,613.00635,447.77472
-444.71988,480.61136,527.9396
-518.6942,715.6366,391.65503
-344.49213,952.6869,294.01337
-241.54309,818.1781,407.43747
-188.50873,649.1523,185.66641
35.08925,704.8299,-26.570578
-81.523926,1522.0372,332.12265
142.43619,966.6587,706.5949
384.0532,870.44476,276.71982
362.0371,847.3133,472.50388
167.13855,862.70685,426.54773
-153.33266,779.9298,324.6404
-421.27243,736.2214,272.59082
-764.97095,1097.7765,396.59625
-1227.8931,797.3483,251.70673
-1356.0668,766.0597,309.61768
-1176.5746,590.30206,340.33148
-901.35864,428.38168,296.57373
-807.67694,659.58777,41.038338
-1052.9426,339.71133,16.572353
-1067.7755,451.00143,233.62851
-642.27905,756.1228,140.92268
-527.34503,604.18866,80.00654
-530.3162,699.04694,187.43095
-714.61163,495.36047,131.01122
-1274.4208,689.0081,147.70705
-1723.3395,597.3117,74.606674
-1793.2772,847.43445,394.0474
-1804.6273,984.5532,455.9252
-1236.0018,1084.4478,643.40564
-1353.815,1125.3112,648.3187
-1534.6166,725.3917,527.12213
-1141.0198,419.6178,378.70886
-820.4088,230.25932,308.9316
-454.78256,98.934395,235.41753
-420.77463,74.695885,130.78116
-203.48322,-207.0613,22.61213
-156.0995,7.375144,116.0125
-44.2064,-171.14377,4.7814326
-220.01314,387.9941,223.2834
-123.34648,208.34743,157.95952
-59.214455,1717.8334,604.62683
-16.080355,747.6991,470.58655
54.727108,19.000998,99.24049
-90.70705,370.77094,50.12182
-969.4737,570.8573,531.62054
-975.1748,3725.4429,1240.0424
-380.01224,247.49628,-205.51776
-754.5511,921.0023,387.9593
-593.85156,930.99097,313.35016
-529.6359,512.9233,252.74269
-438.4848,640.3964,229.34521
-424.50974,699.39215,310.74808
-339.86935,410.64285,109.17557
-476.38867,611.2185,210.15958
-827.5091,566.32855,241.37355
-1105.2909,516.36774,237.57611
-1564.332,163.03395,118.332
-1551.322,9.475176,131.5761
-1775.4574,-255.45898,190.18887
-1699.9385,172.91135,340.488
-998.1914,546.8334,436.25775
-1052.2762,515.90576,445.58057
-1042.5697,705.1422,229.35793
-1133.4371,602.93225,185.79018
-1007.3621,362.3311,147.1424
-959.1113,604.5024,123.76079
-851.649,791.91486,278.76562
-901.97,831.70825,191.92055
-816.83636,538.8661,214.05742
-729.0622,735.139,481.81052
-638.4622,488.36307,438.4079
-494.4644,400.62064,413.8885
-278.5406,625.49713,446.77515
-192.20222,668.66815,550.09894
126.34137,605.80444,343.71512
217.6094,745.01074,536.78174
84.06365,552.07166,260.9509
154.28094,596.9349,120.9004
-191.44879,203.60892,61.706356
-411.8266,705.38745,386.3851
-585.67725,525.86743,370.25555
-414.02182,858.7562,310.0097
-305.76913,859.1014,447.9317
-376.24622,559.44995,365.9738
-306.149,707.5929,574.0065
-243.41415,468.44366,474.4832
-424.82074,439.93515,398.0242
-602.23114,512.385,392.50656
-966.92267,643.74457,368.06567
-1138.9113,728.5043,478.64642
-1449.5618,611.50616,361.09442
-1425.8279,280.6498,67.73037
-1512.4568,185.50623,339.12424
-1491.6089,2.6498897,57.051197
-1362.8983,-464.1103,-328.0869
-1436.409,-25.987675,-112.24367
-1211.4474,-227.25502,142.73587
-1138.7068,-169.19943,531.825
-772.58746,353.51016,447.8169
-611.4347,509.93036,378.66287
-611.4048,-273.38074,231.13431
-746.5419,267.4273,240.87567
-889.8616,399.59573,635.33954
-900.0365,456.46497,630.7849
-997.2902,415.28784,669.87103
-1096.0839,394.5948,249.10818
-1403.572,1146.6526,157.38686
-1510.4072,1065.7043,480.52075
-1532.4696,897.50885,27.388205
-1612.1548,1145.035,29.91358
-1601.5948,933.6319,-5.3846154
-1334.2031,683.97437,-75.54672
-998.41455,425.0723,-64.83784
-504.98386,390.95248,95.46448
-325.1615,133.2531,34.832874
-275.3765,210.67311,79.043915
-411.34402,148.27054,-75.93033
-379.75015,335.89496,60.59763
-500.94412,320.33215,67.2167
-546.8899,466.20667,183.1369
-719.5682,30.3238,72.62152
-705.94806,780.2037,181.86282
-597.78455,1434.6826,668.8774
-672.86224,1038.6335,400.07053
-548.8798,935.0319,259.8857
-881.716,1053.1344,452.1303
-924.1044,1034.5999,298.13858
-1055.3384,761.7935,219.48108
-914.3128,706.0158,154.6027
-771.0314,506.21317,242.76959
-615.8704,661.8798,345.755
-500.96945,613.2313,379.18243
-516.71954,454.87854,434.93536
-565.97675,313.93863,423.98166
-605.8589,664.5896,350.72592
-778.495,366.04025,271.41132
-906.104,266.6731,149.6031
-1248.2244,389.02414,263.2634
-1385.5156,217.78876,204.69711
-1496.4174,-12.936102,179.95042
-1755.6025,704.9555,250.99286
-1302.2062,806.4625,346.72852
-1257.0432,567.76605,505.50662
-1210.6781,633.33905,376.33194
-1284.3516,616.3078,363.39886
-1282.3759,761.6362,313.11633
-1235.3652,872.1568,210.45537
-1001.72894,814.75195,-90.39216
-913.513,778.6022,-138.56691
-542.9018,758.36926,54.745132
-517.7748,192.06151,-135.08585
-246.07098,87.97957,455.39062
-191.53902,-174.80817,-68.165436
-337.19556,206.97086,59.36875
-499.5818,150.05025,-38.653057
-787.9195,115.03704,100.89129
-921.8246,1239.6772,182.62587
-421.08286,1228.0703,541.572
-475.7893,1135.6155,442.7183
-806.0979,1025.4734,279.058
-820.97186,933.69885,329.18604
-862.8406,762.37555,404.6709
-615.8094,505.4772,303.0627
-625.61383,608.80756,226.79276
-503.31412,593.16156,224.50089
-592.80347,627.6628,214.72595
-566.2352,456.7036,226.38812
-673.61206,557.4097,315.14078
-662.88135,453.37167,277.55704
-784.5728,546.7474,286.60123
-871.5926,402.90512,276.11166
-1074.2872,682.1099,219.72235
-1217.8282,438.61966,-21.49599
-1505.508,1086.571,237.81873
-1676.4197,1121.5172,214.69537
-1602.9929,880.9818,-33.93553
-1204.3237,1110.6722,443.16003
-1415.3912,926.85547,282.65408
-1307.2876,812.8564,348.11877
-1140.1299,731.0226,331.1208
-1020.536,586.92444,198.68169
-855.35095,494.8997,193.06955
-633.79065,274.773,185.33458
-527.20966,218.04555,141.96431
-525.89856,127.91756,-32.87671
-500.70227,183.95404,0.3520535
-634.6058,101.27648,-106.93258
-589.85547,448.2874,-21.296322
-568.16376,151.72787,162.59802
-971.72473,-217.81036,-169.91852
-862.9949,-840.1688,-444.50418
-2303.4243,2058.23,1346.3636
-706.71674,2703.1025,743.96124
-891.05896,202.18974,376.8862
-1181.5186,668.3602,408.4147
-783.3374,180.3169,379.38092
-717.44794,491.11697,397.49307
-524.8986,293.63962,282.49176
-641.06866,566.77686,356.8045
-638.5812,103.95818,325.07513
-727.3651,271.51584,235.6769
-784.42523,27.749939,155.30351
-910.45776,-8.995199,144.14609
-1317.0095,-131.63284,255.98572
-1560.7836,496.54565,233.07921
-1420.2666,440.44342,132.80295
-1533.7289,581.9636,561.06604
-1248.409,714.6134,432.42224
-1394.511,776.40393,366.54007
-1311.2269,629.2566,432.9361
-1227.1102,1030.3483,275.187
-1321.1389,928.3716,266.0334
-1250.5562,867.4334,56.620934
-1136.5948,620.20294,2.060721
-1029.8435,609.4857,66.87134
-815.3568,330.82623,178.34502
-800.4888,433.9681,164.65016
-734.3146,144.97493,67.4671
-531.31104,388.3432,191.35948
-562.78217,337.0834,170.19981
-401.0809,393.71887,136.91975
-385.06006,305.64783,209.79662
-328.4623,254.80258,184.02797
-328.3127,142.19373,143.31125
-682.651,286.58386,218.04614
-951.5846,1945.7465,1006.88776
-745.43646,1077.2501,470.02322
-932.2518,519.3877,346.10278
-586.53973,1116.89,647.01263
-306.45615,692.7506,476.62228
-349.17886,678.4217,322.50058
-435.67932,535.1253,191.14493
-508.69864,655.139,137.87157
-532.33386,614.3584,196.4034
-533.3388,672.3528,224.18651
-621.5352,511.182,220.81747
-775.9531,693.3101,278.51852
-1096.9917,630.03827,360.24692
-1105.798,395.63806,140.8277
-1349.5513,1185.4227,27.920837
-1647.4227,1731.7755,302.07748
-1357.4158,1122.1736,145.90396
-1113.0992,1561.7308,241.58336
-1211.7657,1232.1643,386.76266
-1294.4009,1299.7021,264.5569
-1038.93,856.4008,69.42993
-790.4736,609.8001,170.80363
-760.64825,519.9003,91.85233
-766.3988,-19.178986,-105.98417
-581.3093,-70.45778,-103.59871
-447.34933,289.5113,84.10215
-355.2521,35.51476,1.7389097
-400.97812,358.29407,-84.81019
-394.40115,351.6647,289.70096
-528.8222,854.4984,412.59106
-592.1704,-480.71487,-282.8596
-981.5351,73.71233,48.25062
-1890.8324,-1056.2192,122.919785
-2789.7708,2901.6948,769.2881
-1351.9817,1476.3699,490.71765
-1552.7092,-602.4505,174.7892
-1716.3132,1809.1111,387.3101
-1023.626,372.84448,446.30453
-868.08984,615.4931,189.2947
-709.87524,667.56165,182.79968
-706.40796,600.69617,182.82236
-645.3625,438.9417,233.60078
-692.883,537.9528,222.31354
-728.0237,485.85114,165.38136
-911.5605,562.15875,144.2684
-1100.3696,591.03955,221.71391
-1269.1613,731.8457,264.89804
-1528.5833,765.3075,441.37643
-1780.8864,623.22424,277.92728
-1985.7339,500.56104,336.24585
-1851.8041,553.3897,433.3402
-1819.9305,872.83545,333.20468
-1519.9176,651.893,322.8663
-1009.4607,346.8577,264.4978
-674.27246,430.13403,326.52878
-657.246,261.35846,136.98608
-537.80383,-47.61412,40.36823
-338.32883,241.625,38.710373
-350.5511,69.57788,-71.94311
-355.5759,220.07706,58.054375
-485.33643,281.96515,80.41002
-476.4404,766.35516,323.76343
-344.26904,362.56125,364.86835
-501.07693,1286.6548,910.5268
-342.6639,1122.0304,616.9656
-274.63037,776.10754,464.11337
-293.0379,1301.4554,724.5527
-291.38376,1139.3824,418.28543
-376.0795,1026.7618,305.33273
-333.54587,636.11395,201.25146
-357.6783,836.6112,143.86421
-246.91061,666.5599,119.92656
-232.25255,792.2758,262.221
-251.63245,647.033,286.04422
-422.35507,616.5223,307.90707
-418.37662,654.9035,418.9563
-554.96765,669.4368,501.47855
-625.0071,764.7242,504.62866
-769.838,784.52814,540.1427
-804.2013,795.002,447.36453
-1191.4589,899.5898,278.86667
-1528.9215,1708.3544,203.13242
-1201.661,1886.1003,264.82712
-783.313,1450.0511,271.00623
-701.21674,1331.4138,147.48843
-743.7806,1311.3829,114.95119
-637.805,954.1872,30.90501
-506.62457,871.62036,-96.13554
-534.6249,498.857,16.734026
-529.6533,405.2504,-132.65552
-521.63214,346.328,-121.06476
-374.28687,464.88593,68.48731
-390.81522,271.0268,-58.73084
-322.44284,701.17566,5.7078185
-435.76974,430.14685,115.27963
-316.97897,753.35236,217.7486
-457.7254,748.168,43.29872
-511.41107,517.14935,90.24978
-848.0835,-505.45096,191.56314
-1262.9926,1508.8821,160.40065
-808.3802,3996.714,470.6072
-391.20337,-989.7389,2.9306967
-774.9681,1724.8651,233.57744
-278.28128,601.30817,263.96106
-425.06442,865.3764,145.13992
-398.19424,361.4095,159.51263
-413.9025,897.6571,156.51488
-425.35294,535.83075,170.75943
-636.5604,690.95966,176.16162
-747.8886,437.1078,255.15535
-1109.9856,820.09735,210.91624
-1090.8304,173.22089,117.14998
-1563.8435,307.76575,240.60074
-1861.1692,1171.2526,277.78125
-1567.9166,832.8181,114.104164
-1314.0013,877.4754,400.8488
-1064.6985,1038.9572,397.04007
-1087.4801,753.8702,458.40884
-990.7075,894.0334,302.4631
-895.12555,660.1307,246.92679
-779.19836,680.4055,187.27547
-640.6368,522.282,188.3275
-627.65607,472.30682,128.23152
-591.03796,342.24976,159.19415
-528.14386,347.18964,-1.7868246
-463.9184,469.6203,168.49542
-431.68185,515.9962,222.58537
-293.94186,594.33014,246.28508
-262.81363,636.5382,427.69278
-346.88635,136.96117,172.56581
-410.02542,331.00836,11.036317
-925.7567,1328.4386,844.85406
-474.1078,1661.4883,1078.9462
-592.77826,353.42395,159.03214
-468.58072,1063.6135,510.30307
-266.15915,646.66223,443.8086
-288.8335,735.955,305.57
-301.58472,692.57477,239.498
-314.06882,709.4328,236.00963
-432.50662,669.0018,195.62819
-547.9356,707.6592,239.68173
-611.5936,564.60046,259.6115
-646.01355,660.3426,299.2856
-834.4578,671.22833,326.94934
-1131.0815,744.2825,278.202
-1215.9404,705.0961,195.22435
-1479.9366,893.5201,332.92252
-1417.342,1462.9629,419.81265
-1162.5764,1334.6342,379.15134
-985.5702,1188.0511,347.93665
-944.1931,1307.719,363.88766
-871.81525,1134.2001,278.8669
-679.4473,830.0102,158.73425
-517.9859,717.3029,226.70413
-541.26544,604.6462,63.004726
-537.5109,434.38095,36.24612
-543.2875,658.7198,128.69878
-556.4881,690.79504,126.40003
-465.68433,714.8604,180.83406
-259.14435,524.35803,178.84406
-195.68349,346.97128,111.46354
-147.24706,290.15625,249.48656
-388.05862,257.30716,294.1422
-482.40268,713.8124,231.05354
-485.33826,519.2166,313.59268
-380.74338,2020.8702,871.1411
-381.08047,1103.9277,332.69775
-406.24866,654.5011,300.7865
-507.17392,892.1967,381.97626
-370.34692,814.69666,211.81314
-201.15903,986.42975,273.38293
-120.038376,758.759,223.27562
-178.30444,759.0598,167.63507
-309.44904,681.52515,214.12003
-432.9564,728.61456,245.40077
-456.19922,670.9034,284.0908
-488.90396,788.186,303.25015
-599.68085,921.83685,298.9581
-888.791,1182.6951,346.86386
-1019.63416,969.78357,264.452
-1341.2355,1240.8464,353.67868
-1482.5975,870.3575,550.8778
-1252.6605,773.04,155.50555
-1088.1903,1444.3582,388.27673
-820.9673,1289.3613,359.55237
-808.7581,922.7312,220.75099
-758.52026,819.47723,256.3245
-498.31995,732.76044,355.735
-357.56857,469.62247,276.38126
-333.09128,625.849,310.1939
-319.37955,382.03232,108.96385
-325.94202,488.26938,52.056667
-342.45267,479.74973,15.233977
-358.93234,757.4179,109.95687
-335.38196,642.1048,19.865559
-113.57807,879.97253,374.36096
-167.2707,495.48346,332.61014
92.94658,153.07391,169.21371
-330.59665,-744.93146,-269.74063
-1405.9182,1912.2588,987.4248
-654.4534,3124.872,692.6335
-545.5628,-580.45605,-60.929913
-753.28796,1404.7354,479.67807
-465.74768,314.2149,201.56778
-492.9199,819.517,445.49197
-490.92105,497.76898,306.48618
-438.21265,678.6952,373.0904
-541.982,456.87357,268.13217
-637.2889,824.5142,388.0913
-771.9979,691.3436,228.82771
-761.4789,895.6438,248.18504
-891.1659,786.0893,202.22514
-912.0336,691.31104,236.66914
-1000.358,486.04102,76.606606
-1170.9341,1460.2316,335.24576
-1036.5686,1564.3508,213.20244
-924.6965,1322.5554,196.26749
-964.17737,1175.1594,357.48755
-1061.4951,1118.45,484.30368
-1057.2108,740.6458,509.49646
-870.6273,789.0697,362.38376
-723.27985,513.61725,292.12796
-687.4853,596.37573,250.79636
-646.6516,427.18372,204.6152
-616.0911,548.3382,206.31244
-592.8862,428.24243,137.91756
-492.7232,605.1444,190.34935
-497.12814,461.2149,267.19067
-363.0783,500.846,237.76149
-319.65033,380.41922,260.44885
-73.58395,546.98926,421.28214
-81.229576,703.6508,643.5306
-97.31884,-16.019503,174.69652
-468.84332,73.026146,23.039782
-1203.4904,-294.09982,51.46371
-2150.3435,738.37213,741.84375
-1491.2218,2493.8313,834.77826
-501.39694,292.29044,289.54843
-839.27167,708.9941,446.71475
-590.60956,630.098,320.38635
-885.6506,714.41907,349.23416
-746.1376,323.2673,96.03092
-864.96545,459.15604,113.42665
-899.5644,435.10608,235.45433
-964.64105,437.1511,247.19633
-1209.105,534.5497,291.5065
-1331.0663,646.1983,358.6134
-1378.9305,688.5137,377.74768
-1358.3754,899.2587,492.98975
-1208.474,705.6043,405.97845
-1343.4229,756.5754,383.21716
-1320.7498,656.78845,370.5569
-1527.2848,688.38666,317.88116
-1376.7004,485.62,286.61163
-1262.9818,572.99677,252.30339
-1018.11255,421.35138,143.77664
-756.16064,503.38043,259.8355
-632.09705,320.24417,265.21927
-530.46967,195.89622,85.95182
-440.5716,250.86383,87.09794
-447.90604,624.55334,358.36853
-212.27264,370.323,265.6293
-189.3426,698.844,493.4619
-120.84276,306.7234,345.4187
-91.497375,687.2704,510.35947
-163.41026,90.74146,302.0958
-319.59888,490.97733,154.95772
-619.3183,1040.7906,726.83813
-792.60034,1004.6468,761.14954
-565.0426,1434.7115,650.29785
-465.12234,570.6926,464.2756
-421.50812,742.4902,520.1879
-454.0817,606.6932,359.67053
-367.59314,631.956,318.2249
-402.64368,554.5785,284.83533
-449.2691,702.12616,274.23172
-467.74533,728.5498,332.13794
-391.5125,711.78235,363.459
-504.08505,901.35675,395.77264
-539.1519,746.48834,291.7584
-701.53595,838.5581,268.5543
-968.4822,1012.14557,461.64096
-1482.9502,1599.7782,579.7349
-1349.8822,1611.5637,576.59454
-1042.2761,1317.8983,729.0044
-768.20294,1069.2864,713.47314
-835.15564,942.18195,600.42017
-790.56,875.01654,402.6929
-765.225,823.0472,311.69116
-686.9259,647.8458,224.85242
-587.0129,602.353,187.29413
-424.76697,541.9606,250.4456
-363.40994,500.35663,136.92451
-161.13995,484.01373,89.42269
-131.86194,494.87152,192.05223
1.2983788,343.12448,109.45553
-41.57831,436.06604,21.100975
-200.64949,401.9681,263.5288
-494.95102,759.9853,385.70084
-276.38992,659.0586,335.63162
-611.31665,1067.854,707.6291
-311.83423,742.4516,316.82422
-245.98831,1686.5597,676.51196
-421.14178,-134.74724,198.47543
-729.7771,1001.50494,541.972
-493.42188,1978.0099,871.52045
-224.24046,32.47873,89.22392
-311.11462,1203.4346,456.407
-101.684746,563.56085,322.1999
-313.68848,822.7391,385.5806
-439.71567,479.53125,320.18784
-607.9752,716.9653,412.8994
-635.0755,513.58923,355.83072
-757.5818,827.549,478.95288
-816.82086,648.21204,436.3443
-956.28314,834.0154,377.9281
-1181.6705,623.6395,263.59683
-1545.9313,1159.9515,569.0823
-1416.8356,1186.608,555.8731
-1027.4603,1191.7491,574.16345
-832.4511,924.3139,540.49536
-813.74927,955.63855,526.74634
-781.44464,656.50385,315.5213
-708.2892,775.8073,368.45688
-638.1817,542.38544,187.61626
-557.7907,681.119,260.2996
-488.09927,598.93976,268.29852
-406.10388,600.2517,156.57053
-344.00183,495.22952,138.84666
-444.40195,660.85645,168.31099
-520.5428,569.1716,130.41148
-524.42,856.6629,316.3894
-398.092,719.7038,322.74075
-391.79315,786.08606,434.7581
-319.53824,604.9137,347.6238
-259.83395,600.7188,380.4992
-345.87186,402.37738,270.60196
-660.9263,691.6033,708.8374
-740.4506,-132.32317,-103.44391
-1341.7476,864.58966,476.18753
-613.30817,1542.8232,1044.0807
-163.91486,239.39902,229.97215
-411.6273,857.52167,505.70337
-248.43439,726.62213,440.1606
-427.4198,643.51245,348.0476
-439.64258,611.3981,320.03546
-569.8273,551.537,340.69412
-714.7438,871.9846,379.959
-1089.7817,867.30963,430.2286
-1196.0778,446.62912,128.93564
-1309.7994,813.3099,297.00967
-1508.4678,976.61206,407.12958
-1516.1188,824.21185,337.45837
-1229.9261,1325.1901,398.4969
-1141.9641,1272.9712,391.13657
-1139.788,1084.2611,444.13736
-982.7216,770.0896,264.00134
-676.7096,806.6184,359.27286
-603.656,688.64197,243.76498
-545.2759,485.64114,159.8611
-450.50818,190.05621,41.92811
-281.5951,288.15997,77.12981
-402.53653,293.8901,48.190205
-319.6364,595.50574,181.59444
-322.18634,287.50504,132.4373
-193.57095,552.8735,300.47748
-480.92053,289.68512,50.15299
-299.63907,713.32086,361.97867
-775.3783,495.39005,195.39537
-554.3222,1443.8228,217.27878
-365.5606,2453.918,645.7586
-469.96112,67.22449,183.91447
-626.15485,1287.1766,550.5287
-386.2375,478.52246,372.3677
-317.70148,986.3708,475.9895
-255.4179,658.0953,351.12225
-216.7402,850.4656,358.88937
-307.7932,589.52075,332.74588
-389.12033,837.6141,387.08148
-435.25446,680.296,326.4304
-559.7061,964.37146,312.99228
-778.45294,778.1003,174.20187
-898.2355,881.59265,200.68645
-1041.2792,962.32086,193.87135
-1124.0175,1861.9344,326.48938
-1041.014,1792.3379,290.27182
-828.32605,1550.3445,267.2703
-811.45575,1313.3096,350.83966
-701.64386,1223.3752,378.46362
-600.554,924.87695,327.20465
-523.3328,805.054,265.0125
-515.15204,654.00885,188.53276
-505.90094,462.21634,24.848175
-467.65735,483.3777,52.213383
-350.9176,372.5299,107.030266
-310.37936,469.9266,28.632383
-197.45587,388.13696,135.5093
-263.94302,677.5725,108.4193
-126.13319,601.3537,138.3452
-218.68208,594.33325,246.42952
-168.20644,577.33386,48.61885
-21.71076,1296.7039,562.3644
-364.32968,1758.5781,666.45337
-127.76674,613.57306,48.76802
-449.79553,813.32544,379.12967
-402.6617,1066.546,458.47748
-359.89636,855.51965,302.06888
-275.10687,711.3264,202.74982
-267.14078,921.17645,184.38808
-239.88081,724.8266,82.52327
-368.8225,867.6076,138.61484
-439.25772,643.3614,91.98517
-442.47464,754.4297,138.16399
-516.6271,755.046,71.31511
-613.34064,959.29834,189.32903
-682.86017,906.0958,165.50652
-1084.933,1272.838,331.31674
-1339.5076,1036.2206,457.34155
-1533.9691,111.95294,520.7798
-1403.478,1632.7711,293.8154
-998.6013,1302.1561,323.1578
-614.58887,997.5621,267.47925
-629.387,1157.8429,25.903801
-553.6251,939.9932,26.67306
-535.8483,858.64026,-19.942204
-475.22733,482.898,-4.4565883
-513.2908,617.478,-17.508127
-598.68054,638.0065,70.26847
-642.8768,772.5384,-82.89362
-694.999,768.5571,-36.06131
-612.2244,744.052,-5.5291896
-497.30402,468.46292,87.87241
-452.31335,389.56128,-101.78945
-213.47032,474.17007,293.48904
-658.0253,77.81394,294.2228
-668.50574,42.60772,-25.742638
-1234.8252,1712.5016,371.6068
-764.66766,1753.2617,632.6083
-361.0548,319.55356,324.813
-616.5756,638.6813,180.61255
-524.4633,699.0866,279.44962
-476.84204,571.27954,201.46837
-467.6146,541.68335,252.41675
-475.08426,559.7916,228.97916
-495.11288,675.49634,230.48412
-825.70135,808.3284,253.86711
-1257.9368,689.4692,277.00977
-1414.3157,509.43152,154.47475
-1639.9935,1136.7415,384.0561
-1487.9515,1407.5848,470.43512
-1278.5278,1017.3738,350.0779
-1332.8962,891.1883,555.9347
-1174.3564,702.9005,572.42145
-1091.8937,798.1628,453.4206
-978.16425,773.9663,410.4817
-835.70685,569.6976,302.45273
-650.6559,466.7766,200.63138
-515.4329,536.13904,203.22945
-396.3976,349.35385,180.63637
-313.86438,400.306,178.35178
-273.1126,518.37305,146.53528
-158.53339,473.6746,149.58731
-203.49799,567.1132,208.36139
-30.566822,526.9628,201.24078
2.6553342,593.4695,129.49223
20.995167,736.3757,366.4902
173.8448,662.9342,390.59982
221.86702,943.2059,400.25937
8.809006,667.6998,508.67288
-46.927696,624.65784,585.94104
-81.28245,125.49931,36.683853
-305.3076,1735.44,975.9985
-66.40797,1973.8368,997.42737
4.074367,258.6845,31.601553
-153.28242,526.6381,254.87195
-132.73247,690.2838,279.9985
-166.57054,907.1195,435.49023
-152.43654,727.0755,319.46048
-273.93185,840.28314,347.38776
-326.27274,865.7467,344.08636
-481.40652,1011.4116,389.01642
-584.7771,1064.5848,416.00314
-1051.4193,1409.0042,557.6631
-1502.037,1265.418,134.94415
-1461.1799,733.10266,201.95403
-1041.6931,1360.8448,444.15915
-564.1163,1230.9098,429.33008
-470.24573,615.71625,345.18347
-400.41946,962.04034,347.435
-404.492,897.34125,261.79193
-332.70877,771.2923,284.75296
-262.585,668.80664,218.75426
-213.84448,715.2985,302.0822
-281.26715,572.22815,284.99463
-329.9119,698.8854,266.9018
-345.14304,579.6245,131.64088
-366.26605,842.9357,250.40497
-293.17688,712.88715,258.14432
-273.48413,706.9537,265.27002
14.399006,314.64407,243.54259
-214.30841,601.4504,505.2053
-544.7566,-335.01242,74.44981
-1190.7264,808.7518,396.89188
-723.7892,2772.8894,1123.5637
-181.30681,154.46327,287.70847
-422.38437,539.0849,216.59029
-383.65588,907.75024,432.69797
-358.30963,716.7393,331.8789
-514.7405,641.7154,332.23712
-554.01,658.86414,351.7785
-555.12695,743.27606,319.46677
-704.844,764.1957,279.4921
-1053.8833,499.1456,300.1057
-1344.3342,125.94663,257.38953
-1349.23,1175.7052,479.03433
-1172.3175,1389.151,628.1034
-1199.7621,1018.0022,524.7259
-1279.0887,1057.1873,641.6501
-1119.7804,751.87994,547.2088
-921.01544,822.7758,548.67834
-860.827,700.7581,494.2967
-798.2123,722.2934,446.8117
-704.10187,647.7839,421.78732
-606.45074,643.1237,365.795
-505.726,441.19092,272.51926
-387.0293,425.25092,354.04657
-259.2518,30.767063,32.856384
-133.16562,564.06165,78.61143
-297.659,558.4043,157.69487
-109.2592,591.9249,251.58739
-208.14992,583.9874,317.6793
-31.439482,845.6698,275.66434
-0.96029544,552.6851,260.55676
93.86614,841.7392,341.03207
-408.51874,392.39615,184.61969
-1536.0499,1528.8438,1137.096
-61.129967,1979.4816,649.68677
-216.98872,-228.95605,-71.018135
-172.4312,1086.0076,617.2732
-187.90959,794.4174,409.37958
-104.48821,840.87836,340.58682
-245.16232,579.894,271.97443
-258.1338,749.7439,327.3335
-348.34222,597.5407,253.06169
-367.71255,872.85077,356.07953
-501.21008,766.38745,264.3027
-635.2349,1006.00287,396.9267
-840.10724,1171.2212,419.79944
-1240.0388,1678.462,642.87805
-1251.0631,914.01825,83.51549
-1441.6346,537.79333,132.82953
-1454.3466,813.85016,193.41788
-923.7786,1572.1172,283.26385
-754.0732,812.50525,194.9226
-531.83276,790.06165,79.99099
-582.97455,963.8048,172.38234
-609.90857,666.8815,246.58473
-396.74875,271.9623,222.49576
-346.47244,680.18787,359.3322
-399.5303,612.3857,309.55615
-426.59128,623.46954,191.05194
-433.5608,602.7888,82.67899
-347.49216,821.8502,168.22266
-293.89532,608.5006,159.89601
-165.49252,615.0247,222.92723
-302.38123,172.24506,380.29855
-289.9545,-1.9059556,-71.12617
-888.3107,558.99207,211.13713
-694.756,2538.484,829.2821
-474.20563,815.914,99.98913
-458.1281,662.9897,147.3243
-473.83673,956.3588,206.70627
-454.48975,579.1015,191.06198
-541.1331,737.2335,275.95145
-567.3824,579.9071,289.7002
-548.8495,639.8146,395.51242
-594.49805,725.7943,436.14166
-726.91406,576.5512,236.68016
-988.6512,518.70013,-128.29738
-1102.3114,1305.0277,-56.228073
-1016.13245,1406.8137,14.500298
-884.2382,1369.5581,-140.61618
-836.13904,1404.7433,-94.15191
-826.4645,1501.1483,-116.7815
-888.8386,1430.5281,-167.31473
-895.527,1217.9418,-49.262863
-754.4026,1037.1171,31.255362
-588.6545,770.01685,68.898636
-497.968,614.9643,75.064224
-496.16357,434.78183,76.17077
-515.1691,484.16766,116.94616
-400.62524,390.44104,87.770775
-246.88467,362.52496,33.88984
-288.0226,435.81912,74.46616
-503.85938,571.82404,-38.508896
-566.7855,654.30676,306.3475
-659.8801,435.93143,103.602905
-721.1278,144.84065,-184.4712
-773.67413,1144.2913,265.87646
-617.59796,2075.9678,603.332
-434.22656,883.3953,374.72043
-714.0428,1009.07153,370.53577
-707.6569,870.5373,256.6395
-633.6731,714.17377,212.64868
-485.37457,628.9761,190.85092
-400.53952,727.6828,53.74883
-302.39938,740.0441,52.542328
-352.5121,705.0799,128.40324
-461.5795,712.45276,187.7469
-507.79456,720.43335,166.35995
-632.4307,857.763,239.24345
-894.2826,814.6398,308.74567
-1030.7139,604.59485,57.306957
-1154.0139,882.7051,77.39397
-1134.882,1491.202,254.59297
-971.1584,1278.0502,213.41098
-985.0412,1235.9731,173.82356
-920.45264,1338.974,236.37936
-991.1996,1130.2107,220.81186
-980.9767,1052.3469,254.0682
-766.27313,758.79333,272.45367
-501.58914,771.3439,312.52307
-447.20236,608.3951,227.89674
-363.287,549.1324,222.27196
-401.06207,344.474,113.98454
-292.1014,357.2765,72.407425
-414.17288,376.8774,103.25304
-179.26395,415.65613,1.7969564
-282.31784,328.46594,76.20995
-372.90515,177.91692,-15.162984
-894.69135,431.25085,-18.650501
-993.07336,1569.0823,260.51743
-379.50464,1756.7361,731.1273
-499.01508,803.07263,308.396
-550.7089,1196.1088,353.57968
-623.74036,702.4749,258.85803
-483.9823,752.7218,299.09427
-486.38214,688.9624,105.82073
-338.3327,784.9711,110.14786
-398.2384,678.4849,77.33936
-429.4771,770.41766,195.09877
-542.39844,646.4672,194.00014
-521.38635,685.80396,249.37398
-660.70233,762.5877,238.98723
-729.24316,654.3014,285.4312
-1055.1333,786.7031,247.47992
-1164.0881,742.5496,393.4076
-1203.6395,1099.8783,405.58884
-1109.4728,1588.1078,389.74863
-1170.4735,1100.6182,302.58777
-1082.2156,1287.4746,304.00296
-1007.05334,981.27545,167.47186
-911.5907,1025.7241,218.23615
-937.6198,819.79254,26.631004
-777.59656,649.4669,94.27256
-592.3095,390.86826,115.61087
-449.69714,476.99768,228.86272
-468.5772,195.78404,146.19525
-431.2259,231.68385,147.60687
-410.21268,201.57188,3.3581061
-364.05368,596.4454,233.87749
-559.2855,250.01743,165.14226
-321.56842,285.33383,13.851459
-770.55524,-74.3666,-40.809895
-1023.63104,1855.7975,524.094
-453.79498,1717.6156,719.61145
-564.04095,595.7947,288.6522
-762.1768,1162.3624,529.5379
-717.218,564.88947,356.7127
-640.956,634.7142,378.2999
-545.3906,653.5937,263.5569
-396.37653,719.47565,213.68303
-437.80133,635.47955,180.42218
-516.5053,591.07196,221.87573
-611.70526,487.25153,189.35184
-629.0532,539.59204,251.95346
-689.3262,454.5523,299.50668
-840.5436,502.39914,369.19434
-1198.6888,561.7852,410.79984
-1208.3273,281.38025,310.5313
-1421.5333,386.34552,369.21405
-1599.6843,892.7042,579.3412
-1396.0862,1052.1492,317.3354
-1283.5012,924.0112,390.2005
-1098.448,874.01776,378.3142
-1111.8853,829.5888,368.44894
-1048.8589,678.4195,385.99234
-914.2221,521.04584,305.24905
-723.26074,378.22806,332.19797
-644.0252,474.42664,334.57367
-535.03455,362.57812,332.9296
-511.78754,214.31754,210.98868
-335.5514,298.15637,133.84491
-393.84277,214.45784,199.37047
-347.32083,352.86642,88.87005
-412.1186,381.37265,65.76354
-450.4697,207.61899,7.1540213
-660.87915,304.6161,281.5451
-870.7104,1596.7805,997.6963
-535.443,1364.4854,705.5668
-794.934,624.07904,405.2448
-932.2133,759.2515,528.9955
-790.61017,612.9606,388.0563
-695.1192,591.42706,363.92648
-586.55023,567.6229,323.86935
