# PAMAP2 dataset (wrist-mounted sensor)

acc_x[mg],acc_y[mg],acc_z[mg]
-73.693146,828.3028,300.18805
152.02332,865.29596,287.69485
113.13304,852.76843,264.46967
201.19777,930.3565,199.42401
197.00089,903.5698,217.64783
202.8677,801.3535,275.3528
158.29527,885.3602,322.31964
192.93373,970.4479,257.4915
223.97632,983.2009,196.96637
250.00787,1016.5242,209.10739
284.6095,1024.4338,146.87006
392.99298,1039.7662,101.53155
327.2658,1051.7852,100.52026
280.0406,1183.1877,25.116192
289.43057,1270.7449,-29.4035
300.03598,1252.7323,-118.0079
309.6618,1150.8093,-134.88412
285.9286,1096.4777,-41.91722
274.77173,1038.6713,-113.1986
281.41092,1045.7814,-241.2913
252.46564,983.37177,-231.86682
190.88385,816.7518,-123.28139
140.8961,588.1307,-36.76504
84.21121,517.5525,0.05072029
30.806217,480.2585,49.008812
-5.1430492,401.80225,50.705006
-116.24598,477.9053,64.072556
-198.281,455.965,91.2422
-340.81268,493.85922,176.20508
-591.0221,668.04565,210.97668
-750.9306,571.74506,267.47974
-1054.5686,434.66666,303.66705
-1454.2952,455.79034,374.84445
-2006.964,546.2323,432.09436
-2240.4507,736.00085,556.9269
-1931.0295,790.1716,661.42004
-1489.8186,434.27545,454.66507
-1225.0317,108.68716,379.64737
-1100.3677,25.268723,314.71494
-939.47925,175.45726,127.57598
-787.3303,493.20383,136.58348
-574.9383,571.56537,62.73899
-398.29153,631.8255,10.036332
-317.38712,699.7439,59.48326
-318.6782,585.6271,95.711716
-394.99118,572.24176,114.66137
-545.06445,635.8283,186.8359
-773.33997,691.5221,265.1679
-904.32904,668.55896,226.12643
-1177.0791,731.57556,278.3857
-1332.2764,675.12427,311.56763
-1570.3901,565.97375,296.27005
-1816.7983,655.64215,470.19766
-2003.9009,632.75055,543.7688
-1912.8556,625.4244,432.33304
-1695.1758,792.33685,242.4946
-1502.7511,521.2595,160.16428
-1194.9503,326.5382,78.8675
-927.4421,344.372,-13.41389
-618.7767,317.9092,-63.863384
-473.1094,249.11816,-112.9967
-369.9055,215.27725,-100.84773
-338.3547,177.50279,-78.12106
-302.54633,177.80705,-52.425957
-320.98874,212.34201,-46.375504
-304.40677,271.12692,-21.78736
-375.08063,399.9119,32.41294
-528.6138,588.0793,138.72112
-657.5788,572.7092,269.88516
-892.38184,471.7578,392.6569
-1392.2192,371.18887,454.96817
-1828.543,453.72562,660.9935
-2014.373,501.14066,937.1049
-1886.8978,401.90317,747.35736
-1454.6915,240.86572,483.36255
-1115.2263,48.281406,406.49457
-960.9944,294.08472,381.78973
-816.49994,539.7843,280.38794
-614.05615,627.7108,144.5118
-492.01224,670.00903,63.873356
-400.75974,659.8019,11.568367
-384.82996,619.577,95.153854
-496.0159,575.48,165.75659
-735.5185,683.1098,245.54448
-988.60583,757.5372,310.58905
-1118.6476,725.79126,326.7943
-1263.1031,671.74664,371.5754
-1466.1047,642.1567,420.5106
-1662.4514,701.2357,467.0816
-1826.8009,820.49084,478.36652
-1759.2183,681.83295,332.34286
-1775.6494,412.9038,224.90991
-1770.9662,216.27432,91.24221
-1426.8303,163.50572,-6.8510323
-1060.3138,192.18097,34.350647
-799.53455,229.30106,27.78266
-638.8093,245.2378,-20.289267
-538.33655,242.44995,-72.1186
-440.0595,225.32745,-85.25084
-380.7371,219.50623,-77.91899
-337.12125,215.79922,-81.3053
-323.37735,249.84729,-84.04874
-400.83444,366.96643,-55.84891
-561.36334,521.3971,29.417648
-705.4092,609.0686,248.36794
-959.8534,539.00995,486.69492
-1379.6686,487.45923,594.9929
-1613.6289,412.83954,682.58026
-1769.0709,284.1965,814.3873
-1781.9851,282.7545,776.75775
-1460.4814,219.58392,569.64703
-1099.1389,184.0145,440.3077
-884.13885,268.81128,378.2178
-741.371,394.50906,298.81244
-619.3132,525.91736,190.49043
-508.35895,629.40466,108.45058
-410.54742,669.8095,79.68278
-390.19785,646.0886,114.48959
-538.34375,638.37396,225.13654
-795.94165,639.1403,290.96942
-1145.5449,714.3072,371.84836
-1240.8744,612.17126,407.76443
-1357.8678,486.089,424.0216
-1523.9292,625.50214,534.6315
-1548.6879,678.5444,622.89124
-1538.1211,598.47656,554.0005
-1475.5518,569.56915,431.48785
-1758.0892,479.07816,353.3364
-1756.575,213.63762,256.51306
-1221.7188,89.19834,163.1382
-885.83154,154.37462,98.58159
-670.6983,221.72606,70.67991
-552.48114,230.14209,20.050291
-499.97498,246.71477,-8.14391
-452.22617,225.8492,-28.153149
-389.62347,196.25545,-24.801691
-376.56842,214.55202,-18.472132
-396.34177,260.3427,-26.335749
-493.37073,356.27502,43.949314
-615.60895,491.5313,180.96918
-874.0247,584.97797,339.04858
-1210.4296,512.80133,513.07385
-1488.4562,430.00644,618.0439
-1729.655,417.99875,674.2568
-1816.5563,343.4426,713.49805
-1608.6012,153.76337,637.2404
-1168.8307,77.754745,463.99127
-922.04254,233.90244,327.76086
-807.8645,405.86838,238.15707
-695.94257,546.7625,148.98027
-577.416,582.4673,99.0291
-511.0603,645.86993,76.80215
-526.11273,593.5762,115.83044
-629.1936,508.9731,168.2783
-792.9206,513.53076,234.08208
-937.82733,581.0431,283.1407
-1086.8997,676.7832,399.04947
-1263.2446,723.32074,490.6038
-1383.1471,707.6111,514.948
-1466.1779,730.7586,600.9413
-1316.9974,533.86163,551.82837
-1390.3204,493.44885,498.19714
-1640.1782,340.4034,519.0796
-1499.0493,122.838524,357.00357
-1305.963,197.43816,260.16266
-1006.4494,161.3701,197.45045
-806.04846,215.94081,172.95749
-685.20087,280.75873,114.67921
-588.9048,266.17813,46.02083
-540.4709,240.50093,8.226284
-481.87228,184.1933,21.317427
-449.75357,196.88942,54.245426
-471.5751,239.47684,107.36017
-512.41284,319.17603,113.73516
-630.71344,419.40344,239.9678
-855.8006,530.54535,421.38275
-1115.8815,446.68527,468.23563
-1376.1395,342.09116,430.0583
-1623.6207,372.26584,565.03204
-1825.638,370.47516,638.5014
-1698.1221,313.81378,574.24005
-1280.444,183.75026,410.07907
-1017.9767,237.04965,257.73703
-836.8179,359.5744,171.21886
-745.30725,502.6375,129.15074
-606.86755,542.58105,47.19151
-533.4046,584.32794,6.5786734
-504.655,589.2313,36.58724
-568.9617,555.64136,74.45543
-708.8103,546.79755,166.90495
-919.171,583.0049,232.6207
-1063.471,669.31683,327.4163
-1172.2028,733.00165,419.09387
-1386.3435,738.3199,474.6346
-1376.6503,719.1869,521.1783
-1373.0413,584.99896,489.04477
-1331.1208,481.31717,439.2955
-1468.6729,471.5433,467.67563
-1523.9387,281.38934,391.82373
-1437.8179,191.51115,359.90982
-1212.9883,72.259636,307.62073
-832.15906,36.216183,192.64185
-663.49524,264.8627,106.041275
-593.8156,313.04074,56.967842
-540.04565,317.01685,17.675919
-497.30984,271.98834,16.776556
-494.32953,256.92316,20.328686
-565.04724,351.1592,93.55785
-667.9313,463.86237,181.51877
-666.8344,477.55515,230.99702
-705.16693,519.4799,368.52557
-854.98584,414.653,436.07852
-1025.871,368.24228,387.83438
-1159.3749,387.4818,351.0721
-1417.204,413.68567,400.1029
-1590.1288,433.40076,385.23862
-1523.1669,426.53616,327.66275
-1201.37,375.63593,296.85648
-875.92816,382.416,257.75757
-754.5307,431.40945,199.07439
-659.6728,474.54916,179.5078
-610.0726,491.2899,167.23077
-606.536,473.3976,77.08582
-677.9994,559.12646,124.50823
-789.81793,518.4974,193.27205
-1005.10266,498.4219,273.46143
-1160.2368,531.3455,384.6385
-1107.4417,541.4598,460.239
-1287.645,614.71094,600.9252
-1379.7617,723.68365,696.10944
-1428.6471,674.913,686.9016
-1342.1348,459.95663,539.1401
-1415.2865,408.3083,486.2812
-1476.8904,299.0547,389.1483
-1425.2485,267.52264,217.19011
-1198.8054,241.94499,185.63388
-984.3607,118.032135,167.56064
-859.1915,242.42311,61.019672
-739.0161,308.44266,12.474043
-648.7667,234.61754,-44.797874
-604.5027,253.14566,-48.094242
-562.5105,216.66217,-59.767643
-503.01517,234.17497,-30.964231
-494.354,282.87714,-12.100325
-530.1636,359.63477,48.078438
-647.72723,426.39856,184.61281
-946.88983,466.13757,343.4355
-1333.7954,384.10074,382.08936
-1539.0048,338.55716,502.08646
-1695.3683,287.26755,639.3061
-1753.9746,289.37512,660.86127
-1482.8525,209.97383,594.5102
-1100.4174,159.38641,471.5028
-823.9856,265.53476,298.55823
-692.3728,447.94962,211.9634
-649.5323,525.6846,160.18544
-573.8861,519.68646,125.48322
-546.664,523.66235,116.5692
-578.57477,563.5595,154.55637
-699.4708,536.82574,187.09225
-859.2215,627.0505,233.38611
-1084.0548,750.1756,366.99457
-1206.2628,634.0154,436.2969
-1312.3464,591.394,462.04184
-1512.8408,818.56696,652.0155
-1597.5929,719.7257,734.1161
-1412.8242,545.593,557.9242
-1556.293,562.712,473.55804
-1754.313,316.021,381.53488
-1639.6781,211.91275,252.87509
-1362.255,153.70784,258.56802
-931.05994,18.62027,152.5287
-707.39905,246.17978,57.340073
-593.2558,248.46,1.4480582
-517.302,224.6873,-24.575937
-473.6908,198.68987,-18.987392
-423.6856,174.39038,-20.86036
-409.29153,196.09708,-14.724609
-414.09805,212.29721,-18.517935
-492.9474,287.4989,54.280792
-709.32404,440.07162,265.1443
-1041.8779,477.99332,348.38434
-1387.0801,381.78284,393.89825
-1696.5555,320.36404,504.29428
-2067.8757,361.75735,666.3295
-2082.3145,319.86768,665.1164
-1661.7537,184.54227,565.37006
-1179.6484,173.60506,459.03387
-913.12354,259.26596,321.22287
-771.6022,397.7239,221.82446
-657.20526,524.03314,169.35785
-561.0734,582.2048,103.41767
-503.5126,658.5961,115.8062
-498.08755,656.2907,177.61539
-601.6742,584.36505,226.36105
-808.4632,636.5409,302.7879
-1074.9647,663.7246,377.29297
-1183.1907,577.3812,419.93973
-1236.7487,476.92563,416.30496
-1424.0758,643.0527,559.55096
-1564.0841,639.42377,624.6806
-1498.4185,493.96017,509.45926
-1685.3622,492.99442,458.1545
-1759.6973,369.44217,378.65622
-1793.8385,336.60825,287.97803
-1483.4066,252.76665,245.54782
-1043.8936,59.784233,149.98787
-819.0012,221.01163,72.121994
-669.4538,240.34575,-8.258783
-569.2807,220.80402,-53.14771
-520.1072,202.51396,-54.50332
-455.24576,195.8058,-33.830452
-441.60345,190.71713,-47.100445
-452.5183,222.03062,-50.02084
-515.4638,326.40125,-11.672894
-561.62024,437.82498,133.32552
-813.66815,534.7918,332.54892
-1106.649,561.617,497.6764
-1387.3357,438.34555,547.6827
-1807.6897,452.65527,679.4068
-2017.2837,385.34335,776.47003
-1709.3544,180.4165,665.8867
-1214.4232,124.53294,473.7215
-942.1132,124.19945,382.38254
-819.12854,237.55031,265.48547
-740.9483,479.09784,181.6412
-646.3209,645.55695,126.85017
-569.7348,698.5128,63.22444
-555.65204,755.5226,104.60979
-639.619,709.36224,226.84221
-803.12897,652.8946,341.29108
-996.6211,671.61694,367.77087
-1044.2322,674.3692,365.50735
-1238.2533,631.3614,351.54013
-1328.3239,708.77435,393.1888
-1454.7616,752.0369,470.9413
-1458.1355,646.5059,458.72043
-1547.5334,597.056,380.9077
-1766.0052,478.37387,353.2975
-1707.5525,306.40717,262.45514
-1417.1544,251.76181,205.77484
-1149.0435,200.26422,203.2789
-989.0486,195.76964,148.75563
-811.3298,196.58174,50.216724
-672.9818,215.41898,-0.26269808
-572.9097,229.36511,-29.631115
-555.7829,226.45035,-25.52297
-555.2419,245.08936,-36.309784
-605.2157,273.8547,-26.452677
-594.271,296.07785,21.0224
-674.11316,382.59018,147.2023
-866.25037,488.59308,233.46718
-1035.9138,585.485,412.87817
-1191.0514,495.4161,568.20667
-1453.2037,469.0531,590.6909
-1733.4397,406.31842,623.2664
-1605.0239,261.08514,627.714
-1209.5898,202.83469,572.2873
-926.7707,240.76576,453.38275
-803.6109,392.89682,339.21017
-694.5773,512.22375,304.07114
-607.3569,577.127,259.8658
-538.2382,622.6546,259.7628
-594.65015,688.54694,302.43213
-674.2104,622.91345,371.80948
-870.2871,608.33905,400.4837
-1069.8151,580.6173,445.3595
-1178.5795,518.1746,410.39435
-1302.7358,524.0536,438.12543
-1384.1709,578.6665,511.87753
-1409.1536,517.4048,494.12674
-1468.6791,551.4987,463.12912
-1445.4938,554.5156,349.98822
-1634.7389,494.93185,344.94336
-1570.791,389.54245,341.88455
-1200.4241,301.9531,256.79538
-969.73376,258.08932,209.17517
-799.493,223.60152,144.77007
-680.10834,246.95206,102.33613
-564.06854,227.6219,54.92737
-501.047,198.17326,32.71885
-415.10382,180.24539,23.806686
-440.08673,198.10844,23.17629
-528.0506,258.78705,29.548582
-612.56305,322.8756,64.22907
-753.1686,398.32016,173.26819
-1023.1491,462.72946,287.88507
-1268.202,408.24078,389.68723
-1568.2511,423.68686,602.0895
-1778.417,437.2682,708.2675
-1815.0717,293.60165,619.64624
-1482.5834,134.2816,550.803
-1173.6907,110.7491,479.86044
-1001.87354,257.605,317.9269
-892.18,393.1115,278.28348
-755.9425,503.70273,174.21878
-638.99097,667.2277,120.13509
-557.41,732.92084,156.15622
-508.75116,640.83795,110.45623
-621.85474,679.46356,193.78862
-804.1812,684.7031,314.4708
-1049.5658,682.5613,342.0201
-1081.6923,654.32794,296.92606
-1169.1064,650.2448,301.7232
-1316.4271,737.8974,368.70383
-1423.783,758.13153,446.38165
-1430.8291,716.85065,483.9686
-1572.3247,683.02136,413.10806
-1744.4507,486.2511,328.27966
-1762.1206,277.91803,310.89148
-1573.6008,124.187035,325.0702
-1214.8761,44.843925,269.96985
-992.07495,82.699814,187.82831
-868.6589,183.46368,126.56324
-758.85333,218.71957,70.1992
-665.60156,190.05847,42.997475
-628.75397,180.48747,34.39236
-605.9667,172.11198,22.873396
-568.57825,181.30176,11.893025
-549.48663,229.20753,35.635967
-539.1519,346.38397,136.65091
-702.03925,400.93982,252.99875
-864.1027,463.50662,344.2674
-1088.353,584.45074,567.57513
-1383.5885,586.929,784.7115
-1597.4683,300.29074,642.0824
-1715.9027,-4.518031,570.82806
-1512.285,-88.849846,652.39105
-1264.2213,15.357454,638.6703
-1042.6224,262.2402,453.63995
-895.4797,513.9409,331.18124
-766.4202,731.3238,315.43207
-594.3744,826.10284,233.55626
-457.05307,874.8061,254.65121
-452.5092,764.6294,295.35773
-573.8268,676.4745,326.10797
-784.1918,640.83606,313.3014
-1006.83673,663.65814,308.15253
-1061.9941,601.08484,210.3692
-1227.451,724.73236,175.77336
-1543.811,882.6855,206.03313
-1709.1932,832.86163,203.91382
-1738.8019,609.8418,114.24073
-1757.6221,446.70026,31.584974
-1785.368,304.64883,-15.236279
-1583.7064,278.60867,38.598057
-1326.1732,261.82227,52.788013
-1079.9944,223.16342,-17.775902
-900.21375,222.51399,-25.643822
-720.25165,239.45296,-48.951614
-624.2879,230.7433,-92.88156
-599.93146,283.99042,-131.60597
-668.2886,319.1482,-125.401955
-742.03424,333.30173,-101.56615
-837.9752,361.13324,-64.54893
-876.8909,434.3888,95.802925
-1006.5289,464.99185,333.3628
-1093.9763,577.6499,552.3272
-1038.9868,580.46643,632.23737
-1015.00586,447.7675,710.49567
-1116.9443,65.18812,637.9044
-1220.3253,-172.96767,551.5758
-1210.1584,-59.02778,533.80566
-1112.672,215.74295,604.69684
-975.8296,431.59332,602.23566
-867.2675,619.6807,451.92508
-747.9045,701.1878,388.79785
-707.41376,647.51013,385.96536
-641.0438,549.92773,374.54324
-628.01996,578.8898,330.52756
-730.10565,713.83356,340.92514
-905.4479,728.1305,316.68036
-1011.51855,677.3001,284.14175
-1097.8372,576.24274,221.38463
-1291.51,611.682,236.2241
-1441.2277,727.362,300.88437
-1524.8232,798.2256,349.22104
-1450.8258,743.9811,271.04227
-1575.4346,660.7191,214.3527
-1661.715,429.93033,153.67844
-1532.2975,221.70514,81.81741
-1236.3904,198.08434,105.36654
-1011.2336,128.05577,131.21771
-819.03705,153.05919,100.851074
-701.6711,216.42795,50.796112
-586.2077,222.39487,3.6075752
-522.7686,229.30319,-13.375654
-481.08548,234.38147,-14.457575
-509.07077,240.55058,-16.077526
-582.48865,309.6811,-9.397911
-698.66003,372.98978,33.17143
-853.7337,448.48465,175.97589
-1109.0262,501.52295,339.8004
-1233.3582,474.80444,432.231
-1437.4194,473.83557,595.7039
-1589.0701,432.9124,773.40704
-1590.5803,165.50461,587.17786
-1407.9763,113.47832,488.52936
-1103.3527,201.95467,486.9681
-881.428,301.84473,415.3135
-714.8232,399.26144,336.43433
-584.9043,504.36368,275.38187
-504.07086,577.0825,231.58542
-423.75815,607.98413,226.16873
-445.39746,604.0647,221.63217
-590.4786,645.12537,302.67282
-926.4768,782.76794,446.71893
-1225.3572,810.2251,542.3905
-1284.6637,495.75873,437.11014
-1528.2236,323.73737,486.3758
-1586.5511,305.28003,545.3821
-1643.6204,446.44748,507.19
-1570.7023,533.91675,363.51086
-1529.5297,520.33594,290.03876
-1550.3016,363.904,270.55273
-1322.1876,255.39049,232.56773
-949.61786,174.94716,135.791
-746.53546,197.29567,61.95719
-626.56396,217.55066,27.580868
-544.4649,215.76788,-5.809646
-488.36795,207.3296,-9.409069
-433.53873,188.0798,-20.96099
-410.79306,209.08464,-7.2374306
-461.65524,255.25105,-10.733121
-568.83636,329.15656,9.787083
-698.4815,394.78067,90.126915
-930.7534,448.2973,282.04205
-1285.7509,455.02237,406.61398
-1543.13,402.51898,534.4654
-1723.0667,390.28705,700.2956
-1716.3472,337.7624,683.453
-1557.2709,143.74707,539.29956
-1241.1666,70.39825,423.1835
-951.04956,141.14185,414.81894
-728.732,205.21303,315.28854
-605.9625,348.23203,193.97679
-516.33075,535.8634,191.27164
-458.2482,596.59033,180.67952
-429.79712,639.233,206.77757
-564.1429,625.4839,272.7486
-744.9965,573.67914,358.19363
-1017.0724,590.40533,442.04156
-1185.893,607.77856,488.30893
-1219.4584,556.32776,421.88837
-1381.2542,563.36914,431.1592
-1528.894,679.69543,505.33188
-1564.436,596.715,491.4427
-1517.694,510.32663,398.16306
-1632.3,420.59753,334.92865
-1613.1593,274.99963,269.35672
-1381.6416,247.40677,184.35014
-1073.0956,180.78377,162.96802
-837.2,160.37726,147.03667
-709.6798,308.16867,95.53968
-611.8876,299.3322,55.553726
-565.7112,289.71725,5.0822864
-510.35144,226.8338,-2.6706722
-467.2391,194.60571,-10.084141
-498.19766,223.4468,6.5962305
-558.4778,304.85565,29.18809
-595.2624,347.87854,131.11256
-844.0532,456.84088,218.76874
-1127.8204,500.1986,295.94452
-1239.7002,418.87057,453.65155
-1527.4154,401.4185,606.6164
-1739.5979,422.1396,622.5913
-1688.6064,270.14392,551.7438
-1318.2291,215.8338,426.18564
-1029.6953,197.99004,341.0171
-861.68097,323.60303,278.5522
-785.6634,501.0234,227.99495
-693.3873,552.9186,205.80473
-676.8745,609.04865,183.67029
-638.23193,686.5514,192.27562
-740.1586,753.32574,303.44513
-916.79974,734.1452,409.9326
-1155.7028,790.14355,544.4116
-1141.6497,604.8065,454.42218
-1318.158,543.0204,438.92368
-1583.086,684.56635,616.603
-1652.6488,451.38348,579.2432
-1632.9631,323.96588,447.24313
-1823.8644,222.9662,368.37927
-1600.3049,73.71904,280.2009
-1402.0009,164.60867,166.98428
-1200.9833,265.44617,125.27726
-853.84644,298.44135,102.593704
-717.0036,307.36374,77.656425
-653.7557,289.09427,1.2547512
-646.49054,264.1486,-77.62847
-622.93964,213.33623,-69.576675
-635.50854,174.50494,-45.20693
-628.5602,189.26863,-30.164898
-644.0809,208.28221,5.4665422
-694.81067,306.0049,124.08593
-795.70276,394.74408,266.09842
-1101.1958,438.46747,342.67697
-1356.4193,406.08212,436.5432
-1593.5771,383.49112,765.05316
-1700.3235,323.042,788.04364
-1673.3856,107.083954,580.2563
-1429.85,82.54346,559.6329
-1178.361,110.32239,470.42322
-1027.7017,392.96838,282.0051
-861.7404,618.9092,185.64674
-770.50244,704.42694,188.45987
-677.8511,715.3247,148.66756
-602.9744,695.9372,174.08553
-639.3607,712.5503,207.26859
-786.61066,794.7575,319.8681
-1012.76984,844.70276,400.22656
-1085.7662,666.2629,360.1291
-1279.9264,513.5332,376.28674
-1479.2925,542.22174,491.238
-1602.8638,605.3897,607.84875
-1662.4385,564.1489,620.37585
-1815.0557,420.6075,497.36172
-1956.8146,283.2942,387.1769
-1892.0737,135.25302,246.91194
-1585.4275,145.60736,175.99225
-1183.6385,99.42243,205.92038
-891.6679,106.90809,155.0438
-702.91345,227.3364,43.687325
-574.9352,194.12071,-51.60519
-505.66394,163.69939,-75.16423
-427.9163,141.09674,-41.587757
-422.67413,160.61426,-17.757786
-410.82376,191.56357,-21.766111
-444.86862,244.59116,-32.067757
-540.81573,380.48102,73.89971
-752.60205,445.61392,260.42334
-1081.0596,427.8606,363.47955
-1464.5577,408.17395,455.36963
-1892.4475,447.18933,622.0377
-2047.4015,378.3461,699.4351
-1796.0588,106.87346,617.02844
-1323.8065,30.736998,547.8734
-1071.4501,102.70461,427.40927
-883.4701,230.34535,287.94626
-802.075,431.21973,213.12476
-681.2493,631.537,150.42361
-601.6552,714.7911,141.77765
-535.1502,718.26495,143.47975
-592.21783,719.74097,229.61288
-788.3216,729.1609,345.3396
-1081.9584,761.4121,436.35678
-1207.8046,687.1016,412.02905
-1332.9194,563.13806,397.6099
-1569.6349,650.8804,527.74207
-1652.0735,571.131,600.6128
-1600.1249,495.0188,563.22437
-1696.8759,386.42258,441.0779
-1792.386,196.68457,350.42642
-1649.9626,173.92674,235.29163
-1276.7449,137.07828,128.40678
-936.95416,-24.013948,142.58406
-717.406,100.43878,97.90181
-629.82965,337.27042,14.520993
-551.9485,301.49564,-47.03465
-494.38113,223.03961,-87.46655
-436.48782,129.71318,-86.728424
-485.55566,191.58517,-64.92978
-550.66693,250.75827,-50.51186
-674.1104,318.18045,16.010252
-761.7425,409.52444,177.42267
-1118.1826,510.0666,331.20544
-1458.179,467.65375,433.66412
-1783.6129,425.8032,640.3604
-1922.6335,344.6872,693.15436
-1757.3975,181.43687,549.93994
-1463.8429,148.58072,562.1047
-1092.3164,172.0671,526.72864
-819.7829,262.0678,366.6336
-683.64594,352.75586,256.213
-610.91724,472.94604,227.63664
-558.5774,572.72284,211.06659
-542.98724,573.569,212.23126
-566.5666,568.7025,223.16763
-658.69916,599.36536,281.22598
-911.56055,590.5211,319.05237
-1088.2211,590.9071,362.2324
-1162.6035,616.46606,374.55945
-1503.3737,748.38916,560.92755
-1701.0605,752.87317,674.1939
-1570.615,453.75137,516.0032
-1575.6642,323.95227,423.49112
-1649.138,228.44293,351.628
-1613.4698,136.75359,291.94644
-1441.3966,229.01837,284.74893
-1037.037,277.82175,254.64111
-816.2816,174.64725,193.73238
-701.6481,249.4036,92.38327
-629.12354,249.21712,-22.011667
-571.32294,210.98146,-64.96625
-544.36346,191.00195,-53.188847
-496.59485,176.64532,-28.345997
-533.6965,232.74321,-14.496554
-595.2224,313.19693,-16.655918
-638.4095,367.0283,67.82321
-899.43854,469.50888,220.07484
-1240.8527,527.8896,368.24197
-1436.8616,503.7988,642.1451
-1682.895,504.85382,805.5227
-1766.1188,251.09454,645.9528
-1633.24,-21.905367,549.14557
-1240.9642,15.960192,529.0516
-966.9687,168.37112,415.7666
-806.56274,421.24136,268.97406
-705.9155,538.38116,207.52695
-622.2177,606.951,161.09457
-589.66077,666.9173,165.26439
-542.32697,630.3372,184.12167
-627.287,531.68787,234.91617
-794.9613,596.77124,317.39053
-1050.9304,644.5151,382.0645
-1098.8209,650.95435,380.85696
-1227.3662,610.31396,384.13815
-1393.9874,666.61884,512.0993
-1515.8352,649.0228,619.00824
-1469.1108,487.59714,552.7386
-1522.6892,427.62775,437.53857
-1643.6343,345.32642,381.61487
-1519.8755,225.79562,301.8008
-1288.1655,218.68874,241.42587
-1046.1722,203.66943,239.94266
-845.95087,154.2874,195.34715
-703.4062,227.91106,100.017746
-604.8922,232.38353,13.720828
-538.32983,203.73877,-26.747854
-515.85016,212.64546,-19.694279
-523.30023,204.01886,-27.886066
-576.86554,274.3875,-4.6091237
-645.3624,310.85336,3.3008523
-721.0816,364.94482,104.06117
-1015.929,416.50314,206.48418
-1228.9722,466.64597,300.59912
-1517.0287,478.0645,568.03406
-1745.3563,554.1431,737.8642
-1735.2482,338.81464,579.881
-1479.0669,113.74115,520.7246
-1096.5284,28.96204,518.2319
-872.5837,34.196037,416.7659
-739.8018,263.43396,253.10582
-651.60834,511.80832,220.27438
-579.6815,594.79694,211.49724
-548.685,621.5946,162.28557
-562.2311,710.2364,199.55519
-702.7193,678.3765,313.11166
-882.39636,636.90656,420.6353
-1053.2303,655.29895,423.1559
-1156.204,639.0488,400.05356
-1393.7755,624.9509,385.361
-1482.7653,642.3684,444.01468
-1521.0354,682.0841,487.8376
-1520.7723,604.1945,495.6054
-1654.5656,546.3829,478.72067
-1784.0939,340.76846,326.75076
-1520.7538,197.37376,204.31848
-1178.8582,188.39699,153.69904
-939.9059,144.99135,154.77072
-790.51166,174.90405,124.49786
-658.99365,221.7416,35.294308
-592.02344,170.24626,-28.135754
-521.8197,120.15674,-54.364624
-467.46976,142.55663,-40.449593
-441.73593,176.09811,-46.27189
-500.4953,259.2215,-44.730003
-578.5378,377.0526,30.476885
-746.1902,495.94418,238.40353
-1026.6323,506.83685,395.5948
-1243.2266,474.8211,481.94443
-1585.4779,515.2015,626.80237
-1966.4222,516.9216,755.6956
-1903.5635,323.37003,589.0482
-1388.4458,53.36406,473.9358
-1033.9167,35.97257,433.24374
-854.89435,177.95422,355.49072
-728.4212,306.64163,240.73732
-637.79865,602.86334,147.81522
-564.6322,749.2117,159.0955
-495.78378,702.6172,138.06447
-527.56366,661.4338,217.23203
-646.1486,622.36426,357.16504
-963.33606,605.52576,459.7065
-1107.533,557.5529,415.3263
-1220.0387,575.63416,321.77747
-1408.4794,626.65564,366.6081
-1410.8824,709.16345,463.6493
-1408.1317,654.21246,447.4031
-1534.0645,602.754,401.16995
-1660.0258,509.15552,299.6117
-1735.1628,357.68332,313.2086
-1553.7994,171.27571,296.65936
-1165.2089,74.486206,200.95279
-1033.2863,88.71044,172.51898
-854.5021,87.63848,82.06287
-699.1187,142.51027,9.219381
-560.3167,156.91785,-21.803984
-494.71472,142.1367,4.247075
-468.95062,188.04596,15.767355
-481.2746,272.8296,14.395321
-523.997,374.88535,76.954796
-549.1453,457.5622,189.07388
-724.7506,535.7346,323.8292
-951.2785,554.4922,412.95486
-1172.5813,429.0326,480.59085
-1562.2845,348.29837,573.2732
-1958.013,331.80972,654.4828
-1827.753,258.06702,668.37537
-1290.957,250.31343,634.1177
-921.0211,292.78357,407.72815
-765.4907,319.58096,291.57626
-666.6342,383.37845,217.14076
-595.4664,524.9821,171.86835
-554.5494,626.34454,158.38039
-538.71484,676.5841,121.74209
-635.84796,710.18726,212.39577
-842.93994,660.45074,343.3227
-1046.709,628.1102,389.38486
-1204.7548,597.35376,395.21423
-1342.1119,585.4639,401.8633
-1385.8088,642.4535,421.78607
-1444.9604,649.34814,442.34076
-1484.2728,611.5028,457.865
-1515.8022,545.2632,364.5485
-1581.7676,381.16223,278.7243
-1433.6384,263.83612,237.72987
-1137.6594,247.79703,258.69952
-938.2574,228.03372,217.26714
-777.1791,216.87065,142.14104
-691.7941,217.40001,87.62078
-610.0889,197.34164,41.268528
-566.8266,187.81432,23.54653
-541.717,187.60869,20.730171
-564.01807,231.85196,45.16113
-586.744,281.96088,66.5058
-670.64404,381.35095,133.37648
-768.8113,441.02243,241.06262
-981.93317,466.1077,341.81958
-1108.7202,418.32422,458.32782
-1321.954,399.67303,592.3145
-1686.6431,462.50223,752.0001
-1790.0753,305.2896,604.7226
-1485.8918,186.34946,518.7708
-1084.7532,170.71622,418.59955
-855.9184,244.719,300.12753
-747.8824,290.50873,221.955
-676.4363,453.34818,132.59549
-603.1305,642.5482,100.362885
-562.12476,730.8599,117.82925
-572.3319,708.7723,136.3333
-691.8918,647.49524,238.64362
-985.11206,678.223,402.35968
-1186.7474,649.87213,461.54324
-1121.3013,569.2542,357.32822
-1360.8502,638.03326,412.93243
-1415.0961,655.5594,477.1395
-1449.709,628.23737,498.3985
-1418.5073,530.2486,431.88748
-1615.7689,467.8518,372.06516
-1725.5446,304.8736,270.567
-1441.5872,199.72351,212.32187
-1212.3978,179.8322,273.10757
-939.4561,131.73291,194.49397
-760.3446,178.70297,112.36578
-623.09143,211.15576,26.109234
-555.3165,200.16132,-5.209832
-497.58228,172.6151,-15.444094
-500.80487,188.24986,-14.101891
-543.67035,281.38242,-3.522626
-581.24445,342.4509,16.400517
-629.8237,401.35272,124.096344
-823.6593,466.54916,270.92682
-1052.9095,437.8223,335.71756
-1252.9219,383.62323,423.67014
-1637.953,384.05475,600.8886
-1849.3303,406.54486,696.75006
-1690.5542,288.57053,644.3153
-1339.5471,191.57355,533.6527
-967.3012,164.35173,374.47833
-799.5306,191.31604,303.79388
-732.1996,294.25363,218.38713
-676.72437,462.206,147.36002
-622.39246,617.08826,97.92962
-581.6189,715.4977,147.43886
-621.9552,711.95184,217.5152
-735.5397,651.8767,321.31525
-981.13794,621.649,392.015
-1154.2965,596.1228,462.02997
-1274.4338,526.2455,421.99097
-1380.4741,574.5757,456.93777
-1465.4949,619.9419,575.4174
-1472.9797,516.8436,553.2251
-1445.9825,395.56677,396.91974
-1564.1981,323.63293,335.6753
-1495.1343,220.72473,255.67023
-1349.4376,211.675,286.00128
-1084.0172,184.0179,288.4741
-837.55493,191.37909,171.10054
-678.22125,209.7252,85.90616
-609.07324,209.91624,20.217842
-562.05054,206.9271,-16.186626
-536.0802,202.17484,-15.099371
-564.27185,223.93907,8.738196
-602.9922,299.08676,42.69513
-656.85175,335.11133,85.04762
-714.26434,399.03665,196.06906
-935.1149,465.9575,297.68375
-1189.0063,441.61203,406.95233
-1335.2773,356.37564,542.48517
-1655.6715,387.3971,624.1279
-1802.6804,335.85992,622.27313
-1561.4136,220.18774,554.95557
-1109.1504,203.19318,456.26376
-851.6308,135.2404,331.0612
-713.41565,215.97122,226.94305
-650.70685,386.42477,160.85269
-610.13885,572.76434,154.24188
-597.1268,639.89233,148.82053
-635.79395,677.67694,164.36066
-768.1121,684.5134,286.9874
-940.6435,642.9448,412.06293
-1171.8634,619.443,479.89142
-1110.9559,538.22595,397.0784
-1211.5228,556.41766,373.64874
-1452.0309,665.49756,500.4322
-1504.8751,578.7798,560.1559
-1391.1675,463.77615,460.23352
-1448.1034,390.75165,358.30374
-1469.5599,290.7769,299.6677
-1375.9259,286.3577,272.13736
-1224.233,267.64948,301.93546
-984.9239,196.34532,230.41527
-790.7688,182.43153,118.131714
-687.6287,204.9952,56.88451
-618.7607,216.11653,26.182474
-561.82806,220.84732,1.5149759
-578.09015,235.03625,5.1044116
-636.3344,270.43588,-10.477634
-706.809,291.60138,21.434004
-737.5025,305.12357,69.07253
-849.7265,350.90433,163.44626
-1135.0988,403.1901,258.8693
-1281.3817,414.81793,396.06168
-1453.2664,424.33643,543.2974
-1598.7372,380.76242,584.03265
-1607.4669,222.71156,553.05444
-1367.7738,172.37741,558.42957
-996.5824,142.63649,504.26318
-776.48566,201.2643,313.97385
-661.3138,327.1833,208.86685
-587.60345,451.0683,218.88918
-575.45636,524.5965,198.02524
-606.89935,611.7331,220.80472
-704.9352,707.02563,294.7776
-818.9704,674.6898,375.12735
-1032.0156,639.42413,444.01898
-1199.1622,609.35675,501.83194
-1267.2693,493.96432,406.33603
-1480.8481,541.98,470.68762
-1515.8932,577.07526,552.0015
-1471.5287,521.56134,505.67255
-1490.0135,470.3544,418.43073
-1587.9364,391.54688,357.44943
-1561.925,282.63596,285.58
-1318.5269,229.3658,240.62427
-1047.232,186.84189,203.72461
-831.98004,161.93626,150.10172
-706.62946,218.4088,81.17374
-606.05945,218.86143,12.656234
-554.58124,196.26888,-9.365912
-516.6959,176.5945,-1.0563146
-526.9364,196.7867,-14.825077
-548.1673,273.94785,19.569763
-575.2598,313.00894,48.82772
-660.344,414.98706,155.23294
-867.75586,500.05402,302.8774
-1119.3284,508.7277,408.60577
-1219.6351,410.3219,507.11884
-1511.1881,396.4908,637.25916
-1730.704,338.00085,681.1768
-1611.1865,185.8906,579.7654
-1214.34,187.95332,508.25702
-911.961,163.08586,395.99194
-778.072,250.05919,271.37866
-710.3467,397.2997,218.36913
-638.9306,553.79553,171.5135
-575.9351,642.20667,158.16145
-628.54816,713.0945,202.53331
-679.1448,657.7768,279.4596
-841.65515,617.00055,374.8082
-1109.0343,665.82855,461.0641
-1145.4135,594.3238,457.20834
-1307.1605,573.5789,413.09387
-1438.2435,625.0601,505.37314
-1531.3828,570.7929,563.00616
-1472.1716,509.4265,524.10455
-1564.5524,417.31885,441.08392
-1649.8073,213.32408,347.90173
-1432.3237,180.77466,274.93155
-1265.239,219.74332,280.3738
-1035.6996,178.61394,270.00745
-839.343,181.60368,162.95973
-676.5693,210.93732,76.68787
-569.8232,208.37383,42.2623
-503.82513,161.83684,27.658491
-448.14954,176.25093,13.2842045
-461.25238,236.04211,9.001107
-526.058,301.8356,17.506044
-606.3046,363.26892,47.944756
-701.45844,432.97858,131.5129
-995.8399,506.98743,311.49185
-1243.141,490.3548,399.76093
-1318.1222,401.69046,455.95218
-1563.9932,353.28616,639.11566
-1683.1165,252.76125,708.9723
-1543.1705,240.26878,669.66376
-1168.5544,295.9806,570.54877
-906.4476,269.73102,415.39053
-708.51337,296.18814,305.87366
-625.4537,392.7783,248.40436
-570.78436,491.99277,246.03848
-544.7934,568.7519,208.66876
-571.8044,659.764,226.54597
-680.588,700.7912,310.63696
-873.2579,687.91583,375.10806
-1088.3262,659.5136,438.45712
-1186.327,585.7082,471.59515
-1325.0986,502.24442,477.4397
-1500.4757,660.4974,594.9609
-1670.7115,719.11835,709.4878
-1566.8091,548.544,582.9069
-1603.8297,486.7798,452.3595
-1857.4258,258.05457,358.19894
-1666.7715,196.39311,179.20538
-1240.8145,26.226345,260.96002
-940.5399,-21.687027,243.91971
-735.8373,302.56454,93.610466
-633.4296,255.67014,-13.629134
-555.75104,248.03148,-47.722298
-538.6362,206.06552,-33.12682
-488.08423,131.3629,-47.780018
-474.99396,108.833084,-46.073494
-464.68216,165.5403,-60.404537
-532.51355,263.7371,-57.13288
-604.57227,444.27982,95.33661
-871.8982,516.1211,277.4849
-1128.8093,589.60004,431.49255
-1376.6792,525.81335,587.66583
-1814.9288,566.8544,896.42035
-2003.3385,245.12834,731.98444
-1643.0822,-33.462616,711.46344
-1199.9124,-22.93101,720.1549
-925.1156,306.94016,326.18747
-715.8453,401.75375,206.66553
-641.36395,502.05478,136.13321
-568.8254,730.0751,199.36292
-479.5163,653.42285,177.85263
-404.68845,584.9582,127.60542
-531.23364,536.5953,204.39943
-826.26483,579.12286,323.2919
-1152.6473,709.4016,363.10507
-1234.0488,779.7452,430.97046
-1328.9525,648.44727,484.76236
-1593.3267,658.83594,640.0662
-1663.7615,615.54285,572.81854
-1665.6382,690.8383,491.27725
-1880.8555,365.83163,489.21796
-1814.67,-16.521465,394.71304
-1540.8236,160.21278,205.23985
-1124.8188,145.8477,190.66927
-829.49884,102.33227,150.85858
-726.835,399.50516,109.69103
-661.5828,317.6283,2.6730614
-612.32886,211.72122,-40.873795
-559.46423,122.626755,-57.902138
-459.68533,85.438,-55.173683
-395.36206,92.1233,-86.52307
-393.64026,187.16173,-94.496315
-514.89075,313.53278,-48.611355
-679.69867,460.86545,145.13335
-975.14124,503.32138,328.8305
-1263.9578,473.18948,356.428
-1502.6497,445.71927,435.90323
-1941.5552,501.59418,822.3336
-2018.1019,377.47565,867.2366
-1608.1943,98.49272,614.03436
-1203.848,-13.715894,543.82825
-966.25354,92.39191,418.04514
-800.19073,265.98016,284.74106
-699.56396,492.83817,193.67097
-571.8776,666.20404,122.3007
-501.61526,716.1848,145.04816
-405.09854,649.32776,113.28163
-487.16583,601.5204,161.98586
-651.77466,623.6776,303.848
-925.8701,676.47156,388.40005
-1136.0188,696.45355,403.77243
-1286.6444,576.9978,383.52228
-1425.933,584.8145,441.37445
-1547.5477,607.686,519.5098
-1548.7035,541.4262,552.43243
-1502.1735,518.4188,462.39865
-1641.0299,470.25894,395.00684
-1642.8447,320.98663,314.8643
-1422.3173,242.98425,279.77438
-1148.5022,168.33443,256.70166
-899.64966,117.07126,133.77007
-740.31116,157.63914,58.89435
-615.8289,163.51689,-5.979574
-573.04456,146.80833,-30.373724
-493.78604,80.057724,-44.803207
-450.92972,79.71818,-30.916508
-430.97763,181.13795,-30.892422
-507.519,281.39496,-44.8708
-570.23047,360.06427,-36.813225
-699.53204,505.3257,131.41045
-904.5597,553.93884,375.0289
-1132.2303,496.95126,490.59018
-1549.8009,542.91473,612.58563
-1928.9889,593.71014,888.4284
-1954.9136,413.77295,760.0349
-1580.7278,71.89632,550.5883
-1148.4282,-96.781364,467.72522
-850.6036,-6.145186,322.8954
-663.9124,194.83679,235.1924
-589.2532,414.79083,133.98685
-509.7027,646.3941,78.8038
-471.38132,753.75793,96.48652
-399.24408,673.31146,124.98819
-430.94583,564.71655,166.76756
-681.1779,563.3108,270.40158
-1126.8181,665.1735,408.85303
-1188.9271,681.6234,451.713
-1230.8721,693.90204,427.95538
-1468.2201,698.51685,494.6602
-1618.6157,639.0399,517.39465
-1524.3228,671.77545,503.0896
-1585.8125,653.4776,437.84302
-1749.7314,453.21747,378.3871
-1622.0692,239.95845,276.7106
-1378.8948,226.00664,226.8933
-1014.29047,7.7137723,228.91434
-776.3784,97.79505,160.36792
-652.53625,239.30963,61.12024
-573.1673,211.05244,22.819304
-510.60733,213.23387,-8.454112
-459.0808,175.87453,0.7543817
-420.26477,149.30461,10.533367
-436.03983,154.16862,-3.642458
-515.54364,217.83618,-26.744228
-610.827,330.3925,39.778786
-790.77795,431.8909,180.73398
-1153.2169,516.87634,390.4911
-1491.1061,553.41785,527.6477
-1813.9252,601.6447,717.76135
-1959.672,499.97186,736.25415
-1711.5233,-13.178055,428.9872
-1384.5469,-195.85725,420.85428
-1121.0576,44.328835,400.79962
-874.9181,250.48546,290.9939
-757.7399,468.62592,177.56258
-614.3684,697.84955,127.14593
-498.06174,707.8869,98.03643
-408.54532,624.5576,95.74658
-431.73926,535.4254,142.90659
-588.53973,529.9559,258.0443
-847.0373,619.65546,361.859
-1172.8082,772.20984,439.28632
-1178.4473,626.7406,431.3189
-1191.7954,480.09363,430.13013
-1418.2262,505.4804,558.9241
-1571.6,509.81772,685.66675
-1482.0706,518.5902,603.26105
-1373.8259,540.3441,466.2771
-1570.8397,544.2028,425.62122
-1753.329,380.51102,190.64816
-1477.3176,258.99078,98.397026
-1085.9623,-93.79521,210.4807
-850.9557,220.5434,144.32898
-714.5802,357.42136,70.668785
-601.833,243.5489,-35.70373
-526.5246,282.69437,-57.61373
-488.88974,236.56523,-40.008305
-460.64783,172.09097,-43.72663
-473.93564,179.19376,-23.40272
-518.62787,234.49083,3.6994522
-599.11816,332.44766,74.33704
-779.56067,506.17862,246.75621
-1016.7955,512.7416,364.32767
-1221.7357,476.70587,486.45523
-1503.1581,402.65106,564.5178
-1736.7251,392.0577,650.9213
-1856.7712,308.2414,604.1559
-1603.1335,222.59724,554.2338
-1206.0879,210.46977,527.92584
-929.11536,296.51947,356.33347
-760.83954,390.236,258.85312
-654.14526,484.264,213.14845
-575.9751,567.7149,159.36996
-541.4862,620.258,114.45914
-546.6316,650.9033,176.01524
-642.05237,628.9608,267.48306
-818.9054,666.4245,365.03995
-998.1216,683.2005,387.75418
-1109.9384,665.3341,457.45862
-1259.0465,510.48575,461.8734
-1450.5636,557.5885,554.15955
-1668.1317,619.8734,685.741
-1605.9734,541.579,645.8572
-1603.4524,537.5342,472.95303
-1798.9691,402.15176,341.30185
-1637.9669,236.17451,214.89076
-1364.4675,212.77336,243.50136
-1007.0175,74.97963,224.56564
-787.6296,221.00294,93.45839
-648.9441,264.5111,-4.0385714
-553.8225,196.9471,-51.789585
-523.9717,195.48122,-33.80423
-470.0539,153.08385,-31.38207
-421.72183,158.65373,-26.043877
-457.93356,215.48146,-22.06497
-511.89148,323.61652,11.448043
-581.1817,421.9763,119.63415
-769.44476,542.7524,329.9179
-1067.4075,558.2729,432.24524
-1244.2842,416.6028,456.70654
-1507.6228,392.45465,562.43585
-1877.0067,553.69525,780.6002
-1866.4556,509.37814,712.2612
-1374.6089,349.08475,599.0529
-1021.5545,138.8539,440.06964
-779.1067,169.58192,332.17682
-642.70087,244.3076,282.1738
-584.761,447.0812,244.37155
-529.64185,651.8098,194.58403
-460.4046,841.09503,231.08487
-492.577,821.84155,308.06964
-642.57794,778.62036,427.82526
-884.42346,730.367,526.7063
-1157.533,551.2171,561.1056
-1367.9902,528.9042,576.08075
-1536.0449,664.6576,595.6344
-1662.7578,868.0302,625.7708
-1779.5906,747.5524,482.9982
-1656.8689,595.8271,324.08035
-1583.3225,642.09845,170.6299
-1464.0795,650.4123,92.67057
-1125.5017,642.4942,10.155042
-822.8162,585.3173,-83.96583
-624.1486,421.83493,-136.75458
-492.6687,306.41135,-83.78442
-347.70743,175.49467,-51.950428
-326.2437,239.09853,-69.179
-282.63394,197.2158,-21.875984
-83.649124,340.8766,14.305586
44.062546,807.4487,42.177673
108.0235,981.8274,88.25787
74.960434,1132.5446,225.59337
169.41696,1193.1445,258.2049
176.36678,1356.0559,0.5105237
160.76941,1553.1624,-164.71794
233.66228,1437.3207,-177.72577
120.62578,1203.2675,-223.69449
52.106556,1010.9394,-226.07065
39.36514,912.7276,-183.70367
118.21599,695.00024,-150.17781
220.09613,552.51447,-145.67763
278.93103,402.51633,-75.979546
256.59158,286.6007,16.866507
295.75482,562.8104,75.50289
357.3407,674.1586,51.93831
291.74118,960.06665,-31.12911
352.91034,1052.3075,-38.107502
381.38107,1156.3102,-142.7006
375.8655,1324.4314,-191.38266
500.11038,1287.6737,-244.37747
470.10736,1557.1061,-424.44922
356.2987,1667.8739,-539.19916
329.09842,1348.4049,-501.25916
256.655,1140.9995,-429.01266
203.76265,952.1335,-378.91827
192.13867,836.74585,-372.62344
156.77292,692.65985,-298.6937
124.153564,625.15533,-178.30775
116.96182,549.5694,-75.49506
130.86914,437.40225,-40.76024
184.77405,449.69904,49.10001
196.56819,723.4701,97.30636
249.82227,817.9429,16.557907
316.96155,794.21405,-47.029213
289.2971,973.91235,-103.02417
291.7152,1182.0127,-69.16317
314.54153,1360.058,-123.38845
384.7257,1270.698,-164.10536
366.22717,1378.5245,-254.62814
269.2882,1524.2927,-241.15314
207.4271,1345.7892,-172.25697
86.069046,1133.3069,-171.81165
11.728547,948.77435,-163.03087
1.8190637,790.6906,-183.70598
59.451046,707.60974,-140.10924
164.96173,517.7434,-45.29241
211.32106,477.0294,9.077238
258.69263,515.8289,6.793926
287.4134,529.355,-6.6155825
261.54584,693.892,48.771206
298.96786,874.7456,64.3433
343.26733,1020.73065,29.950724
405.25558,1196.0326,-82.39285
389.84894,1443.3706,-139.54959
447.97415,1303.0571,-78.24761
477.44928,1356.5641,-228.2573
343.68912,1764.3989,-447.39984
233.31235,1438.6636,-450.6789
163.71967,1034.4425,-409.49823
158.91049,978.2328,-464.10318
197.72408,915.0373,-405.5266
228.0049,751.3119,-345.36414
152.72076,645.489,-238.49513
156.58438,598.2312,-54.326073
176.78046,517.8539,-2.0860744
184.6156,536.2106,-15.250815
224.88039,596.1224,5.6975627
273.53345,701.60596,-20.245594
328.1907,846.37946,-23.32186
343.11276,985.4917,-67.42803
361.40894,1096.316,-129.00044
341.228,1203.6259,-150.79567
335.69678,1319.9779,-129.74219
327.41153,1311.5468,-200.49086
278.3886,1372.8171,-225.05672
211.61682,1397.2996,-197.13498
125.307,1200.1537,-182.2149
60.798016,1000.02344,-207.93834
26.402233,903.07465,-216.1187
28.84132,783.9378,-175.22784
99.851,613.7429,-70.87095
177.28014,504.52417,-22.607634
226.15372,535.07367,-4.02982
266.32874,551.1591,-15.983001
263.52606,675.99335,-35.86646
267.80984,822.59534,-23.41707
304.83563,929.6778,-54.246616
301.0482,1072.64,-105.01959
303.78464,1261.064,-150.16159
333.97214,1332.7628,-169.65544
416.72156,1333.4067,-229.44064
428.42667,1481.1282,-347.04742
349.37723,1565.6747,-438.24802
269.16837,1368.7607,-480.13443
227.04724,1160.9537,-468.4564
223.97272,1011.5216,-478.70187
200.27255,861.7538,-452.0022
157.24898,673.90204,-389.94144
122.09094,556.64355,-217.96864
105.429726,445.63956,-59.918404
117.520966,448.40192,-43.87228
175.0716,525.2577,10.520576
211.15683,641.07776,2.9159424
288.20938,668.29724,-67.82377
347.45203,888.8906,-126.224434
327.28546,1092.9703,-146.60574
346.89465,1150.9033,-242.84393
266.63104,1261.169,-240.41042
267.53812,1268.6652,-153.2673
214.05214,1306.1154,-281.3015
172.15668,1366.2733,-316.88812
126.87314,1485.8156,-352.12186
-35.6169,1255.2462,-389.53156
-92.15782,875.5363,-297.79303
-94.36888,816.04425,-235.80371
-9.336423,690.99066,-180.73929
117.21825,526.862,-114.604355
200.46501,550.21136,-95.340996
267.75336,635.42645,-0.17094837
232.98814,548.7636,68.55666
154.68892,609.1624,47.700375
123.3562,809.0118,53.732304
85.16091,921.88696,-82.24294
66.785255,1122.6716,-193.79538
57.50408,1304.1246,-158.68143
20.326027,1191.014,-52.41168
27.150036,1499.9111,-125.65873
130.80975,1641.2937,-499.5282
-132.85825,1256.1422,-290.5959
-237.19257,1108.2681,129.15598
-293.50894,1112.1539,75.54791
-288.66867,1029.041,-16.279112
-279.1116,814.3479,-48.51546
-393.1665,772.4066,-1.7504202
-400.9486,585.23157,75.97047
-391.92087,430.0936,110.84675
-396.85876,320.18863,124.20336
-463.5528,382.74683,127.00966
-557.6725,437.00302,133.72874
-666.6878,450.1814,140.20018
-879.4877,425.3789,162.12868
-1091.4049,356.8372,181.50241
-1350.1411,327.77438,239.12523
-1495.166,420.0188,313.24902
-1618.1268,476.18805,337.11572
-1634.863,565.7075,405.12903
-1339.8397,625.3544,502.1957
-1145.3505,502.09814,514.18164
-1086.3617,258.83905,374.49866
-956.1379,201.71976,301.0772
-780.56384,245.872,290.14276
-548.1043,310.86823,265.25092
-385.66174,430.5744,281.82706
-344.192,438.70343,214.2431
-301.4532,435.1372,190.6002
-367.95267,418.243,249.72868
-442.22415,349.90356,263.04044
-585.71857,440.42154,261.66058
-838.24225,538.2251,389.6987
-1250.3401,597.73376,515.9508
-1328.2662,493.36118,526.1422
-1381.1062,436.81012,475.6014
-1603.559,522.84546,517.0535
-1727.1274,674.812,610.911
-1522.1606,475.6464,480.16827
-1332.3486,396.92725,329.86276
-1321.9834,403.58887,297.63806
-1194.3307,383.15942,249.8875
-1003.97504,394.9374,192.6147
-754.3487,323.6126,141.63615
-573.6171,274.63693,92.753624
-462.67456,225.33185,46.29263
-413.93823,221.38776,47.78976
-394.286,224.84564,52.44858
-359.37543,223.21074,68.59489
-321.44144,245.97067,61.511055
-351.86285,390.25748,81.67837
-421.17603,486.8733,87.83346
-511.2825,610.14105,161.43997
-728.9498,592.327,281.24005
-1047.4564,389.50476,370.38477
-1394.2448,364.33282,532.0824
-1709.7657,517.59845,664.30115
-1896.3325,539.5054,776.15405
-1724.5248,431.88486,742.2674
-1289.5135,198.61464,521.80914
-969.7699,163.44214,273.61432
-728.41486,369.31824,245.4144
-633.5702,373.78183,216.43141
-520.078,503.81326,116.713806
-467.5743,625.92737,96.02564
-445.5191,618.06,113.60946
-485.59872,546.0965,112.75984
-641.5017,539.7465,218.09914
-963.07043,572.7777,319.3596
-1168.0955,643.73114,411.34726
-1205.1625,611.29895,441.58487
-1310.3871,594.9863,476.70312
-1473.8905,606.11346,562.99194
-1482.0452,550.62195,577.81464
-1388.5664,481.05618,474.6179
-1503.1377,468.76706,384.06186
-1618.1101,312.00848,325.73218
-1416.22,227.0787,237.43088
-1093.8533,73.83609,232.22583
-804.2625,49.522038,223.27261
-633.6944,290.5612,101.38265
-544.53485,324.0817,40.005775
-488.35822,274.44748,6.5526114
-436.8658,221.90724,11.365623
-410.25128,205.80498,9.464862
-413.8732,225.3938,48.477253
-454.06033,276.84692,39.13438
-551.2788,371.38892,84.974785
-746.3385,499.214,231.23198
-1020.3701,510.59003,341.58466
-1314.6761,435.95538,448.8919
-1558.1233,447.12274,628.6969
-1736.6974,441.83597,775.5308
-1701.7202,284.57803,682.8577
-1366.9567,111.00715,503.84778
-1074.6442,89.0981,445.28177
-852.01074,197.71431,339.05994
-712.87695,313.67493,258.31894
-601.2862,460.854,179.30714
-494.67062,569.90265,145.36383
-443.99323,627.1674,128.43527
-467.39496,627.3715,200.00551
-550.35754,536.52966,253.2802
-731.1007,525.4197,309.18405
-981.68,584.32654,407.13846
-1155.8054,562.2755,495.4711
-1075.1473,493.56967,451.4181
-1235.968,512.53217,458.71597
-1355.5228,573.9082,543.9634
-1422.773,632.1102,534.0084
-1382.5934,585.8404,426.95856
-1448.6427,581.62054,431.03815
-1496.2391,434.98294,363.74493
-1362.6882,238.5402,240.64082
-1176.3197,122.34627,208.42772
-887.50214,50.61761,154.6007
-737.93744,152.74121,105.802086
-630.6758,229.43025,75.40476
-584.8628,248.37833,51.883553
-545.1659,251.52731,25.849346
-535.7883,268.6957,41.227154
-499.78702,255.80615,66.43305
-504.44977,308.39548,89.21038
-564.6072,369.8584,123.86377
-677.71875,468.06088,320.66006
-914.05756,520.92993,455.43674
-1105.6816,421.5917,476.00067
-1284.7451,326.52643,527.2648
-1615.8182,384.40182,672.70245
-1774.4518,351.5425,637.6068
-1488.0605,195.35812,482.32312
-1104.0178,150.10094,379.41257
-887.0061,233.70099,295.42664
-729.8597,380.1336,242.09157
-656.8256,491.19217,183.06674
-549.0774,556.16284,141.43187
-511.64044,604.8536,141.92612
-480.28775,583.53174,165.52936
-540.11066,537.2307,217.76576
-728.4622,593.2883,325.4767
-1082.1711,686.1999,419.7241
-1149.4835,654.04926,445.86084
-1248.2712,545.8429,447.8892
-1484.084,527.43,570.0559
-1581.2017,528.8524,661.3193
-1467.1351,489.23868,584.693
-1422.4126,481.4718,414.92166
-1532.5007,484.21515,376.16788
-1677.1559,343.84464,347.78983
-1446.5149,183.79485,261.13745
-959.67096,-30.106182,181.45473
-690.1413,108.36221,112.36701
-580.91064,288.44012,81.43791
-506.94485,251.40031,21.550905
-462.00006,278.39996,-10.657826
-425.9828,253.02223,-14.77198
-397.4183,236.17226,-30.966825
-392.81076,211.839,-24.070345
-501.08554,357.69537,0.6405687
-608.6135,482.67273,74.13782
-777.114,596.7275,279.69327
-1009.5659,519.09283,359.1579
-1281.1013,436.32144,501.4903
-1497.3636,430.93112,713.2726
-1677.0745,404.85895,799.998
-1684.4185,223.4715,672.59436
-1388.1996,66.136444,509.22852
-1062.2549,77.89916,434.33426
-837.1515,235.0739,313.77106
-700.3604,485.67136,225.11185
-585.33356,577.0582,156.94038
-530.03467,590.19366,145.36147
-509.6509,555.5709,136.51651
-509.4589,517.013,127.05491
-627.2603,524.09436,228.76274
-841.31726,597.92017,309.03738
-1059.5314,706.9732,391.39474
-1095.2653,659.7633,430.8012
-1239.0586,575.5628,459.39285
-1444.0996,535.2388,539.70087
-1465.9377,499.17435,531.7478
-1325.7188,501.17355,470.3974
-1359.1621,560.49615,434.3966
-1477.8381,499.1219,369.11218
-1497.9111,406.19174,338.94534
-1369.9843,288.39948,270.26962
-983.5043,151.55844,185.35109
-770.79285,144.67683,110.08479
-647.61053,269.0023,69.84372
-602.9854,249.9151,26.54955
-513.67896,290.14453,18.717215
-500.15204,334.6789,-12.55134
-486.10123,365.9887,-83.03783
-560.4945,394.37268,-62.54019
-601.2041,425.2828,-24.319506
-663.6299,472.64307,62.84096
-813.6624,561.33575,246.23543
-1033.6858,568.06744,392.24234
-1114.1322,438.7156,566.71906
-1193.459,339.2521,658.5943
-1384.0525,306.18857,681.489
-1508.3204,302.797,617.5069
-1251.453,268.92776,556.3547
-981.4479,182.38701,475.5214
-750.9633,262.57297,352.88165
-671.1117,432.68326,285.4084
-594.2314,458.52692,235.28748
-590.4129,559.7676,229.6523
-588.91437,653.0951,286.94623
-639.23737,575.59,287.27347
-718.99176,566.86615,339.67526
-950.9423,579.06665,448.93036
-1095.0114,580.9613,488.59247
-1132.2136,499.60883,434.28314
-1304.7505,490.49878,432.5963
-1385.6282,521.26465,524.6138
-1286.8165,513.1608,495.2507
-1280.6649,501.47137,442.2852
-1267.4313,531.24506,389.2575
-1409.1039,484.32767,375.76553
-1397.5789,316.9692,309.7738
-1148.2216,232.98265,250.9943
-951.9705,190.78004,210.6908
-754.70215,145.73332,162.89835
-628.7997,186.11937,86.70505
-525.44196,219.94809,71.70665
-460.29535,219.80382,47.600876
-403.9291,211.02441,30.40473
-396.70593,234.05315,3.882269
-466.11063,289.9183,31.842796
-552.36176,359.21362,75.252914
-709.83154,430.43488,229.56796
-992.2783,425.2342,319.8275
-1387.7458,374.3246,425.45483
-1677.8077,407.94122,612.3792
-1846.958,448.59363,829.28174
-1666.994,332.07944,724.63574
-1234.8656,95.1996,570.54407
-972.49603,20.342789,394.57565
-734.8213,137.99092,257.62762
-605.88824,231.60754,197.49686
-550.25256,420.36667,173.03651
-469.80502,536.3756,134.81021
-424.58127,627.142,131.99585
-434.58673,625.5569,182.55258
-528.9507,539.71765,240.91815
-763.0944,553.0132,342.77866
-1131.1327,590.50146,457.49023
-1206.9009,536.30536,456.58353
-1322.4811,503.02213,474.06897
-1508.5447,537.8421,584.67944
-1522.622,514.8524,618.2709
-1382.3153,483.66742,552.83014
-1301.6443,509.40536,485.71927
-1384.5106,427.2167,451.97284
-1432.2443,374.93866,365.95914
-1266.0155,330.97052,200.25815
-936.0867,-95.07549,225.02208
-723.16876,-33.505764,201.41815
-597.81366,318.82065,90.63144
-538.1705,270.9264,24.612473
-483.8848,244.51031,-24.428547
-438.84717,224.24779,-21.326136
-429.6389,221.15788,-19.938217
-495.3771,269.92548,21.691813
-596.462,335.8308,46.38211
-704.7156,373.0409,128.13219
-941.9762,431.50482,265.0366
-1233.7562,441.45038,322.75928
-1464.6317,432.9384,389.0069
-1693.7548,546.5962,588.2663
-1712.2423,499.961,681.8624
-1447.2023,187.37283,569.4619
-1072.7509,80.7969,543.5284
-825.09204,64.78843,457.79236
-657.538,125.44039,343.35995
-512.28033,233.47165,272.01334
-431.22476,479.93103,226.36095
-395.0629,599.40906,268.28973
-405.12888,626.6687,311.44385
-512.4183,606.40186,373.39627
-721.11664,559.65466,458.28012
-1000.2467,495.11383,511.40784
-1291.3354,433.88864,571.69507
-1321.8708,272.49887,505.6341
-1451.6967,316.66312,467.4831
-1614.3395,480.3035,599.0922
-1546.1346,471.0202,548.3445
-1374.7166,431.72623,406.05612
-1363.8395,413.67163,341.56772
-1380.6532,347.71713,276.4281
-1258.9253,304.06906,275.63333
-1012.2177,186.44437,231.0025
-735.5967,188.12009,139.0347
-565.803,193.16539,80.64926
-477.14545,239.03174,25.039513
-481.95578,277.71252,13.564862
-415.01807,255.67976,-9.138043
-390.53613,233.34895,-37.056446
-419.35638,262.7953,-27.680288
-500.93872,325.85727,7.484586
-604.2821,448.49384,106.35126
-821.8365,518.35187,251.08687
-1185.0723,506.57373,340.24817
-1485.5688,427.1782,488.71317
-1602.144,374.94437,674.9538
-1755.1897,328.55405,756.9533
-1574.5592,252.01451,692.9926
-1192.7693,151.5599,568.8165
-907.6139,172.62878,388.22986
-681.32916,323.77362,297.8367
-588.05817,364.75864,245.92451
-525.6371,443.1229,233.0815
-504.78955,519.348,238.40341
-518.91943,539.7442,226.82924
-565.97314,547.7452,207.76048
-670.33563,541.1917,271.46066
-1011.3958,650.38654,431.86218
-1214.3325,657.61835,513.90894
-1209.6725,505.46597,470.23514
-1437.809,429.25937,538.3027
-1641.1206,455.79803,682.9498
-1579.4247,374.054,578.87415
-1448.0206,371.0952,425.3382
-1489.8312,375.00958,405.6375
-1526.0128,304.80792,342.5688
-1449.7327,236.785,270.81216
-1064.9381,-53.176544,251.14337
-749.9748,113.86955,160.63562
-605.7076,308.18823,82.94748
-519.40295,266.1901,28.567255
-471.00803,282.12256,-3.0790126
-410.35678,227.76268,-20.878067
-372.61792,183.06075,-20.303242
-372.79388,194.29962,-18.586243
-444.64325,278.80908,-29.485664
-543.43774,355.1746,9.277815
-742.3949,452.59177,167.08327
-1073.0535,494.05377,353.8048
-1340.2626,527.8762,391.49496
-1558.4791,627.75775,478.21445
-1759.2217,681.836,687.78174
-1769.8737,486.89468,787.90564
-1394.8597,166.45311,739.9938
-1049.8096,109.09386,502.37134
-784.60516,206.29263,284.78165
-604.424,260.49277,217.88089
-535.9436,412.9719,201.55374
-463.896,496.9028,201.20499
-407.90964,584.59515,157.90126
-399.57758,620.31586,163.4579
-456.21234,601.01825,225.71866
-664.7717,627.8343,320.28543
-976.30707,694.9095,380.18967
-1270.5492,732.0973,476.3808
-1410.1185,644.13074,568.663
-1586.8152,494.4213,615.90424
-1788.7815,597.3753,718.73157
-1695.0308,512.1686,565.31494
-1532.5134,442.6951,400.22415
-1501.724,368.68124,341.37305
-1429.5555,333.51883,282.4005
-1129.3693,281.06665,272.5001
-837.51166,231.10283,212.82816
-659.5022,284.62198,119.227
-583.663,240.53049,43.39834
-524.60626,226.02765,2.5086195
-508.27072,175.571,-16.45321
-447.54596,133.95647,4.7766147
-416.25922,121.344215,-13.973013
-409.22916,143.6586,-20.181368
-472.98602,264.3283,-14.805834
-588.11536,453.84,82.659645
-788.0319,555.61957,268.83395
-1159.4211,589.0709,427.77344
-1501.7703,531.63477,531.7119
-1806.0679,482.14755,815.6865
-1943.2474,413.4468,908.697
-1653.3787,131.30675,738.89764
-1321.0015,11.918055,553.9043
-1022.844,198.97107,334.1646
-756.0916,262.17413,271.2531
-659.5896,427.32907,224.27382
-547.4044,575.8957,193.39388
-461.28305,632.8167,109.64936
-395.15842,649.7621,145.97957
-406.72128,553.3376,162.48119
-538.88715,572.5655,237.43156
-866.78687,698.5381,370.10764
-1149.1909,770.29865,446.18582
-1192.6976,687.3524,468.02097
-1370.2705,522.4173,565.6981
-1474.7382,450.97632,631.5712
-1575.9254,489.38095,684.589
-1506.0348,578.7414,601.11554
-1511.9766,627.8009,498.73196
-1658.2876,525.07794,387.99835
-1620.1062,295.2749,310.81293
-1265.7415,9.012653,279.4605
-928.91583,147.82776,164.11182
-756.6783,230.86992,64.552124
-636.774,205.89095,-15.91383
-575.7862,246.60707,-23.738392
-532.5257,215.07204,-37.425785
-476.2333,184.44023,-25.976255
-402.53647,176.1984,-15.48581
-409.49524,214.29184,-10.871021
-464.2166,308.18802,34.919518
-523.5459,414.94937,151.8393
-735.88605,537.1634,332.49197
-1045.8296,554.4558,442.56152
-1266.5259,378.09726,472.64346
-1636.9912,398.18307,670.0924
-1958.37,468.40677,842.81335
-1829.6338,363.79666,715.6238
-1354.0607,246.12091,584.4188
-1032.9711,147.38713,428.3681
