# PAMAP2 dataset (wrist-mounted sensor)

acc_x[mg],acc_y[mg],acc_z[mg]
-352.656,661.12164,599.4867
-160.44061,688.5973,332.2837
-282.65244,534.46954,450.84805
-495.2908,744.8048,437.9428
-2805.5225,917.0827,1342.3801
-3490.6797,1313.1254,393.89062
-1659.8198,48.96282,-435.6549
-1777.7523,558.9701,979.89233
-1453.6869,569.80444,677.652
-1290.5677,425.46207,345.21252
-926.46423,516.2218,27.73458
-776.01624,241.16325,92.56537
-514.8525,635.0762,134.62814
-453.8299,236.4175,71.45499
-343.5102,223.85915,116.368546
-195.51611,112.23456,-48.019867
-77.4988,493.20267,206.12318
94.653206,81.42767,8.93267
178.2447,542.93774,320.07126
485.5252,-612.93054,-190.11511
501.71918,1107.8855,1571.9597
853.83234,2324.2463,1713.6964
963.8705,-109.74786,705.3389
-884.63007,1005.406,653.53174
-1887.7328,455.26648,99.07764
-2546.9084,1907.6969,533.6522
-1647.3446,625.5383,-341.85126
-774.1624,665.1136,138.74968
56.968132,-97.42798,220.09738
256.8985,-465.57635,420.3992
-200.23961,-105.22217,386.942
-305.03394,291.93936,340.09485
-1027.8077,464.31503,476.57922
-1558.3745,1166.5134,687.0989
-1312.481,493.17813,284.778
-1743.414,766.37585,398.7976
-1590.5369,766.07587,327.24997
-1219.373,456.56152,390.6275
-1175.9514,695.1608,587.7347
-1173.0273,555.6883,649.8457
-1233.2511,545.75854,504.43027
-1587.7965,450.83292,645.36066
-1870.7567,322.7475,436.5458
-1627.8622,458.8487,387.21686
-1634.5203,667.9245,390.88226
-1707.7979,380.8165,407.4006
-1443.6028,426.7131,96.4269
-1121.5851,307.65903,201.15536
-820.46295,487.24442,254.70917
-566.48486,343.31775,10.318512
-357.03348,302.6136,114.54113
-166.56255,167.60486,99.51132
-89.82172,189.05376,68.35172
-7.2707167,120.775734,75.23482
58.92997,305.24088,9.80711
129.33405,166.22736,67.91504
57.304783,214.85165,-17.34427
293.93054,-134.64008,471.314
-121.963234,2779.891,2208.8748
-186.4654,1646.2755,885.2801
-347.54865,1.9196872,705.7677
-954.3046,1492.4575,427.80444
-996.51953,649.68164,304.13553
-901.89453,1106.3448,406.2902
-273.39062,736.8457,509.18207
-271.2954,1224.7915,742.7664
68.99856,354.18863,382.7685
-15.688696,808.7483,592.34064
134.50397,511.0078,321.05045
204.76079,408.04123,511.28125
177.51122,1058.7185,606.46436
243.14476,877.6929,287.04193
187.65627,371.88507,135.28705
47.659786,567.1558,172.99654
-125.269226,657.9232,460.91467
-121.48238,673.12036,255.38412
-32.754536,703.58624,350.43085
-404.09213,1205.5802,429.11792
-1507.5515,1067.2545,701.989
-3679.1982,1601.2124,563.10345
-2615.7722,821.4486,-138.08624
-1568.4546,908.4628,770.1126
-1184.862,805.7723,663.1119
-1086.8201,735.17834,340.66476
-795.01654,318.74878,185.4914
-640.3462,321.09338,183.91481
-404.0,378.71506,160.62595
-395.1899,285.40054,103.75654
-317.4519,299.9135,103.95405
-253.66656,305.6095,49.171898
-30.22916,440.06604,170.46141
146.05882,27.479666,16.49342
341.35083,174.23581,284.70862
390.83505,-791.04407,-85.789246
472.59442,1449.6831,985.8635
-3.8585408,3274.8535,1327.359
-109.639206,-851.22107,229.17216
-621.39996,1739.1777,951.2761
-729.8055,703.3327,433.1732
-1235.0388,1019.9829,478.9051
-665.4359,405.1527,56.87033
-267.03586,1028.5951,737.6936
340.99088,176.61945,197.86772
21.078156,790.4737,988.9042
1.6025647,1551.1334,741.7571
59.361248,-9.296615,241.15579
-80.44083,448.5778,309.56982
-41.064167,712.48376,497.73203
-89.591545,707.55414,427.94232
-16.233395,788.1051,386.13773
-103.40311,652.30554,309.35596
-194.65686,617.31934,392.2137
-368.65393,388.89047,277.01733
-331.78622,482.15482,443.07327
-634.296,884.1562,531.91205
-1460.9409,804.94775,819.1293
-2563.2961,1064.2599,493.50287
-2676.8533,1550.6578,328.3533
-1747.9868,477.03632,432.86844
-1318.4634,973.9171,669.5253
-1036.2056,735.4956,202.19704
-949.16516,526.1389,287.48453
-813.65546,441.8233,220.40356
-533.8318,582.3767,284.58478
-442.2719,425.7545,233.71304
-355.759,392.70645,201.50107
-182.1775,73.47441,-89.7839
23.69823,75.82141,12.9830065
58.935604,239.56067,-13.695512
302.00882,-175.70567,-4.2975783
397.0218,-574.907,-312.46246
482.97028,-7.412827,466.62497
139.90366,3862.921,1731.8584
-454.7935,698.9517,536.1213
-1212.5153,893.5975,847.491
-1404.4705,1277.5035,208.03647
-989.97296,125.301285,175.40034
-838.6973,906.5358,443.68005
-285.99615,-74.053375,239.61281
-400.20386,241.20119,259.18524
-105.07179,-303.52847,56.16469
-504.984,171.5451,240.0018
-390.50607,46.76195,47.659897
-1500.6305,838.22345,494.44632
-1947.1796,1537.8451,776.81573
-1418.7067,528.2778,237.2319
-1394.9167,426.5802,74.08426
-1349.0603,781.07556,857.83997
-1115.7916,469.5427,763.6579
-1238.4707,891.7256,922.65393
-1359.3015,329.38577,699.7584
-1722.9585,576.5524,697.1185
-1709.7289,546.2541,370.8652
-1638.6687,695.06976,546.88214
-1372.5084,483.2575,238.88124
-1282.7706,679.7952,320.82916
-948.7292,432.69168,136.33188
-822.017,770.75854,238.81851
-642.79504,394.1248,100.9155
-579.10583,465.94046,150.69185
-358.8963,151.99539,-43.740334
-280.6402,407.4801,104.6304
-128.80042,75.3415,-18.490711
-115.69572,299.80984,309.9345
91.20976,-88.96194,-98.94958
144.28004,417.40662,252.75145
590.65686,-742.2651,-426.18518
221.77959,1580.2672,1264.1893
-390.00873,3927.4358,1632.7192
-1214.4202,57.900726,32.040894
-1125.3052,1852.0096,-81.22151
-49.70541,65.3491,-31.286917
-242.55608,-207.71188,304.4794
-327.84772,-550.29626,112.91613
-760.33887,875.2232,831.63275
-649.0056,1915.452,1249.0818
-348.7689,513.31195,689.9592
-328.85236,457.77975,195.51643
-448.2281,483.3935,-53.331932
-472.40222,838.72375,128.01288
-576.10693,702.441,259.69772
-706.3732,934.8942,392.9979
-883.45355,320.19327,192.2071
-1090.9077,752.1395,310.2502
-1223.336,285.24335,370.34604
-1633.807,789.0101,461.6138
-1349.8906,575.4892,278.35733
-1465.7612,1120.954,677.96533
-1514.5847,1019.2707,718.4129
-1522.5651,1024.26,417.68457
-1391.1512,970.9844,273.8166
-1405.2883,972.29987,610.6203
-1190.5725,820.02893,196.41112
-1163.1342,764.8189,300.68384
-740.2951,294.58145,22.935282
-516.6634,440.78253,143.73581
-226.37305,-36.462948,-54.967907
-188.01923,159.20175,174.8803
21.804777,-103.77315,-247.4862
-64.25835,329.32867,216.96991
326.50085,-474.6811,-347.78455
337.87634,205.55867,334.07675
464.87338,-716.66693,-487.67484
-845.5358,2490.782,2597.6055
-783.7742,3938.8665,1723.1925
-402.8766,-1614.6814,-320.38013
-1093.3966,1946.0841,1214.4332
-288.19324,631.3709,308.61584
-395.53574,629.40546,1004.6233
-231.14618,883.9905,608.2847
-273.58328,707.5092,741.0743
-115.96877,433.92053,399.9936
-117.572525,531.30096,589.3589
-11.567961,437.16794,350.7036
-71.95476,1080.2078,518.3513
-92.55444,553.44135,281.0248
-250.68372,721.36786,216.15176
-80.41367,581.9384,154.79166
-396.87277,780.8634,431.91696
-255.33047,446.25867,55.939175
-499.05768,671.54315,315.49033
-518.0985,680.52075,289.62946
-663.4114,312.86682,444.5312
-1501.6272,767.9269,389.53177
-1879.1759,1284.2306,631.80225
-1885.338,1162.8785,640.2597
-1786.2911,1501.2701,804.1514
-1580.0046,954.4226,516.38947
-1588.6985,833.68207,299.7553
-1329.3953,665.96674,-96.653755
-1160.7408,725.2456,119.26584
-718.9208,632.4453,-137.29189
-618.41516,499.54465,146.50198
-339.6227,221.48643,20.838696
-272.34418,493.28995,156.17747
-156.9707,87.67254,56.75414
-120.1785,345.19507,191.94353
27.606588,101.22061,121.86776
81.18853,596.7574,313.95886
250.92166,59.029907,112.44178
285.76678,625.3144,368.43265
313.2553,-526.16846,26.995378
-163.68578,3181.8333,2452.0317
275.22577,1998.4402,639.29944
-196.04556,-370.33615,220.10493
-798.1979,1744.8223,496.5557
-703.9137,138.42392,311.92734
-975.6305,1159.8044,670.97534
-719.35706,648.89856,368.30292
-250.06352,584.1256,259.94128
-70.83516,113.83837,233.5578
27.052668,89.130646,166.1096
63.93517,-288.14267,67.80976
-334.1325,139.99437,110.083084
-569.476,185.33037,234.17175
-1326.068,594.3221,667.9625
-2064.8801,1029.177,706.7816
-1674.0692,1040.9927,213.89537
-1299.0576,555.4036,449.8609
-1130.732,1006.49713,677.087
-1054.2272,954.8072,643.8319
-1038.6111,772.14606,568.55725
-1365.5597,873.47034,396.6906
-1712.1442,1019.6666,258.33755
-1644.3281,785.0852,130.34091
-1554.0913,844.64764,122.126854
-1388.3154,759.8629,-44.726315
-1124.3636,586.3049,-174.94759
-866.551,463.06772,-160.74945
-647.42883,521.4599,-200.8033
-616.2504,353.06058,-103.58565
-458.13718,460.08432,-82.572235
-346.35547,602.0129,1.6214317
-179.02306,326.77045,116.371796
-107.0851,559.06305,106.61667
-30.303318,287.3985,199.44403
-51.287014,634.73676,253.96167
127.31367,-98.61266,142.71857
49.43072,245.69427,289.459
-49.444675,-592.0041,197.93741
-794.1138,3117.0847,1281.3843
-126.93263,3487.2104,413.05112
-205.0591,-565.43463,101.18762
-683.7291,959.324,438.37082
-637.07104,489.44586,392.53214
-594.43256,607.24274,741.9968
-232.57727,136.13145,637.5358
-450.04364,616.1083,857.69904
-329.40433,146.6578,540.61237
-442.8009,769.2937,572.92883
-696.0979,385.62833,382.86957
-824.3355,565.3395,192.21053
-755.30334,526.5003,51.684875
-714.30444,807.3548,253.5912
-602.59906,392.81985,332.97815
-693.23676,754.2914,642.02277
-605.1354,127.65325,356.73663
-1006.83203,1339.8988,413.9153
-1018.5635,921.2324,416.81778
-1024.2655,980.8322,493.56955
-1336.3942,1364.81,496.0821
-1335.494,1276.8239,509.0821
-1612.2863,991.00586,113.60687
-1777.3607,893.55304,277.30145
-1485.064,572.7911,-62.99743
-1272.1533,771.5328,141.92686
-883.02466,361.83368,93.92591
-675.4129,427.25983,261.12173
-525.3464,241.90279,145.91737
-357.52432,505.44543,303.73383
-158.44914,-51.779236,10.73707
-142.83974,418.83902,240.00726
64.041214,69.44466,-140.76338
123.09029,472.416,273.43616
238.29758,-421.29037,-86.99593
79.77797,1865.3413,1752.2631
-162.6652,2239.9607,1028.6908
-266.15683,-394.7368,517.5522
-495.65442,1607.2524,801.88007
-436.05997,333.28485,52.542305
-593.95197,719.0292,373.29947
-387.99603,-107.33811,34.464603
-584.8598,63.790737,271.18576
-670.9016,237.2153,210.48395
-811.1409,249.06862,183.86778
-1151.8868,400.42505,83.21989
-1944.9471,1705.6859,699.0725
-1094.5201,1129.6875,330.37427
-769.82324,-124.80653,8.790584
-1009.33685,885.7759,127.88317
-960.5012,716.0363,253.44312
-955.1649,569.9191,361.96912
-1001.94037,515.0116,398.1176
-1179.1608,781.91113,523.7544
-1258.6459,706.3598,572.32355
-1340.4205,883.88354,651.65924
-1224.2268,783.8134,618.0229
-1364.3754,1000.1321,617.97
-1361.4221,929.0277,362.93704
-1398.9652,859.7496,409.86603
-1119.6604,751.2248,140.5216
-1020.20734,876.52734,243.79471
-750.7327,421.9875,145.42316
-514.73047,420.5542,177.06491
-322.82294,111.868645,98.77071
-289.78638,354.26678,149.36398
-125.87094,42.13988,-104.37609
-81.046906,318.4745,170.16405
163.60385,-198.31732,-153.17651
141.5679,376.56165,188.88103
357.70288,-642.3159,-452.0373
417.00464,1971.9487,1289.405
60.905,2718.9282,1231.0831
398.53314,-1031.2334,313.06577
-424.61127,1298.5859,772.7221
-1460.2269,1459.4341,751.8862
-2301.435,1376.5162,212.31416
-1099.812,559.6268,-478.05966
-613.55115,521.53564,443.99368
-192.78647,-198.47,76.65431
-394.82846,165.32028,568.1049
-344.6619,-23.967129,392.8582
-621.2719,406.77643,384.5713
-912.5948,758.9154,201.66116
-962.6884,774.9152,499.82474
-1246.147,958.7856,501.9376
-1236.9513,992.708,453.8724
-1160.3552,798.80707,347.96597
-1165.8734,800.968,586.96606
-1333.5919,911.5905,634.15985
-1391.7908,789.40814,659.40924
-1417.064,666.9874,464.18015
-1469.2981,1208.0194,614.34985
-1272.8469,965.9423,615.33
-1253.3427,1179.3789,759.7292
-1219.4899,1018.16614,619.30676
-1044.6638,897.02185,528.56915
-887.3113,263.12442,343.77307
-668.9096,469.66583,159.07422
-516.7107,301.86542,6.8329124
-423.34045,271.4394,47.13939
-174.7408,-47.77623,6.4342484
-91.43185,197.5065,14.792793
-18.530441,-21.353119,43.49291
32.97932,363.05167,160.43034
174.82797,-12.39872,104.73764
236.21892,314.26614,141.80698
261.94995,-266.2238,308.17413
-219.33147,3779.9045,2658.0715
-37.55627,558.18463,380.43466
-718.9061,258.2886,862.1928
-1309.0159,1809.3524,325.917
-934.5963,480.27844,226.4676
-740.2863,1633.4047,980.0128
-396.10535,716.2615,669.32104
-396.10007,537.72205,522.98254
-263.52707,267.43295,347.9614
-339.68448,492.2658,373.01608
-17.714117,290.99612,39.459763
-4.0714192,212.43517,-34.33498
-142.5372,683.74207,82.066185
-329.6822,861.32916,177.96123
-433.21558,863.20996,261.36584
-947.4228,1074.8522,281.7092
-1240.4972,1111.5919,273.18573
-1418.7157,1178.5598,507.3789
-1287.1272,1113.0867,586.6027
-1386.5328,951.65826,604.82904
-1454.5082,944.40436,745.9227
-1538.8365,1026.8021,746.38696
-1357.9288,837.2539,602.2906
-1104.812,767.1379,627.656
-1068.9365,759.1926,521.4555
-982.0294,562.95776,347.0596
-782.1948,613.15765,239.50192
-616.4866,588.7565,294.76797
-523.064,695.062,291.9302
-174.73912,43.824753,261.5592
-31.959496,336.70337,236.29906
81.996025,-25.499765,255.14563
173.63588,320.92734,12.5015745
400.10873,-364.46304,-68.24264
442.66928,-119.873055,-310.57294
303.05804,-792.6944,155.52095
-253.67365,5136.988,2667.2314
359.1866,-5.012376,-166.82549
-292.99152,156.49393,663.9062
-514.3508,1688.0297,324.2247
-216.38576,261.49057,613.2641
-851.0286,1750.1401,588.0007
-958.5161,800.9368,226.34012
-829.65515,1014.99866,0.6260976
-665.7419,839.7346,351.8422
-305.0294,856.8659,488.69366
-82.744865,298.4903,479.24338
-147.31384,1273.4589,636.25507
-68.31753,532.53955,603.3436
103.80358,504.68903,302.45657
95.575836,507.80917,428.77756
65.3887,810.2797,399.1683
82.99031,633.1747,376.50815
28.634195,840.44617,327.1092
-146.85452,698.17163,431.27182
-370.41998,811.1076,534.91583
-995.8796,892.6409,612.9726
-1427.3639,1509.6403,410.61325
-1908.8489,1681.6307,867.14685
-1825.6996,1489.5822,759.2754
-1308.5989,1269.3835,677.4097
-1226.1846,946.023,725.7994
-973.9872,646.2427,424.9144
-828.87164,731.3842,412.14542
-557.1753,496.64624,165.11865
-385.08752,300.55438,111.842865
-299.244,237.06871,4.0390925
-115.463806,29.796585,-119.641945
-78.21127,26.485596,-156.53777
120.009,-89.68142,-90.74481
287.77774,-319.42596,-233.28177
573.2599,-472.46957,375.9887
291.29703,2754.9368,1849.4255
-185.16902,1575.0891,630.9229
-85.609634,-170.3342,614.6153
-526.011,784.7324,371.5835
-829.29456,1067.9036,703.5184
-1163.5277,1101.364,239.89612
-1091.0254,1058.4509,189.54951
-1008.40717,977.0283,248.96576
-753.812,749.5497,286.24124
-464.93912,799.94464,352.7129
31.569746,585.13654,568.7557
-43.98547,377.57236,482.85052
-145.72955,317.07816,460.85037
-337.3134,878.1423,476.24527
-279.9569,895.12714,445.3605
-267.21805,462.81668,314.01907
-423.56805,499.14462,460.06604
-390.6271,627.73395,372.47162
-512.25555,468.48267,563.19324
-927.414,447.13898,323.93903
-1893.8265,1383.125,648.5489
-2267.0295,1462.6401,389.23615
-2002.5739,1062.9233,381.91528
-1575.7346,976.5201,789.6444
-1357.3125,1028.8182,493.5523
-1402.3262,1058.7,272.19855
-1119.125,669.1482,142.27219
-898.2193,520.1276,58.248672
-629.75226,500.124,112.76328
-587.3685,407.09387,67.8499
-351.04562,-238.7943,-38.327084
-53.66173,-368.99445,-99.98503
77.63632,191.25821,-49.522938
196.9953,-143.74763,-146.41998
408.87506,-111.93775,87.483505
446.4554,-270.16803,-138.58743
433.8255,1795.3954,776.0187
-114.68279,3632.877,2055.9038
107.73276,-621.96747,-64.3244
-1044.7375,1423.0446,834.8451
-1645.5352,1714.6852,345.98056
-1215.4495,388.1766,-42.219208
-564.42926,296.99423,344.29984
-452.67087,-193.54614,302.44345
-352.05652,292.27377,207.55191
-374.1755,1781.8079,1345.4531
139.774,1051.6067,1058.1437
-42.33175,878.30237,468.16544
-327.49344,875.81934,482.1699
-342.05695,743.0139,586.23505
-132.66205,-257.98727,353.1654
-624.498,421.85022,409.2298
-726.28784,904.75275,570.33234
-388.72256,435.5961,516.12024
-299.99393,452.19662,357.59305
-1053.2018,818.83575,176.06816
-2082.0059,1548.8439,391.3639
-1980.5497,739.54193,508.91278
-1865.8326,888.2507,638.27155
-1540.7152,1177.7673,791.99744
-1336.1566,632.3515,609.02826
-1261.5385,574.60034,373.0844
-1113.9634,430.793,324.84525
-904.30634,755.2165,356.25708
-858.56726,445.62543,201.03857
-525.35785,339.77896,316.02777
-327.50473,240.58727,112.71942
-79.189514,153.16563,193.25012
-9.556984,27.888739,18.464556
169.76804,-92.226395,-73.30178
192.76912,54.89212,-124.605835
451.6709,-389.96448,-82.15166
362.99512,-135.19562,-169.10732
-64.63218,113.802315,918.9677
-803.80316,4838.4204,3141.334
-178.94635,471.4057,-157.45203
-772.04236,-295.35223,933.0682
-861.6656,2472.092,585.55615
-515.1962,-178.873,229.95389
-482.9479,764.0541,406.92957
-263.9716,745.1172,748.9505
-261.04645,1397.4153,562.6517
-198.10898,339.67685,409.38046
-288.72516,870.93665,351.41312
-116.569466,369.4653,74.48699
238.69658,-108.77753,64.93512
4.8237376,-423.2333,14.04333
-216.7275,-270.9223,-103.96155
-878.4346,-167.65047,55.714252
-1058.1738,978.8797,198.20279
-2328.1355,948.64355,1224.6688
-2919.1108,1130.1893,398.2853
-1640.1171,-132.19978,-97.400566
-1802.4557,1380.1714,1035.4498
-1404.6235,304.1791,926.81433
-1383.0979,356.80212,553.61743
-1317.0448,-41.522892,270.89438
-1672.3165,267.41675,313.58282
-1316.3447,174.84001,88.20095
-1344.5664,571.08,229.78424
-1025.8641,301.7412,176.93726
-1001.04443,445.3561,134.27422
-635.9478,363.09814,159.99034
-683.814,744.1104,220.8028
-351.77936,205.68483,133.19495
-361.2741,536.9607,29.11927
-13.835228,192.53754,-26.280922
-62.160934,386.7242,230.29262
405.46637,-517.2348,73.121445
235.11143,-89.449715,30.28497
242.8579,-392.35336,576.6037
-248.01591,3686.5732,1863.8733
-14.408784,1415.296,406.31372
-586.53235,219.5614,759.17725
-1697.9333,2186.384,755.7256
-1277.5928,429.91595,-170.2963
-642.9163,482.16522,453.6152
-203.39229,316.32114,295.18393
81.58585,-344.24713,109.38546
-210.68451,-97.146416,259.5094
-455.61584,-168.0014,146.3195
-908.9853,2014.002,909.17206
-3.2203622,1643.4253,305.72223
-209.19868,623.6801,463.01788
-316.80524,1135.5135,346.89066
2.8756354,234.18456,34.463673
-253.11583,-65.25523,-215.84494
-1352.4535,917.6482,612.83075
-1947.9977,1015.4615,882.2836
-1817.8654,300.01044,216.54001
-2215.0806,229.07237,543.43604
-1925.1978,508.111,924.12854
-1568.6322,649.1189,621.1578
-1512.7957,802.78253,626.7034
-1478.1495,527.3871,462.65872
-1299.4406,762.8724,353.41785
-964.3599,355.83575,32.77993
-833.4058,508.00977,351.13583
-633.4166,196.09297,73.56442
-415.1177,373.58984,39.451683
-147.78609,-55.512825,-73.78451
-177.75262,233.44197,261.07507
47.737457,-94.57579,-97.444664
84.12066,479.50565,136.83914
281.875,-147.434,-152.87024
78.17629,664.43005,467.17752
134.86461,-238.88185,-142.19562
-607.49854,2964.9937,2635.3054
-526.6912,2459.882,1286.2599
-461.91785,-508.19052,75.12005
-893.3668,1745.0879,804.6022
-246.92795,433.32205,173.05595
-376.8081,285.20032,693.70465
-383.71167,1548.4442,918.33044
-9.526494,592.6494,733.2512
30.325565,693.73865,646.74054
-49.13911,1069.1364,646.24725
248.3128,-23.688398,30.759092
64.438,806.74207,427.0058
91.74706,879.32446,554.1544
37.206043,1108.3365,478.58505
225.11694,271.25894,25.89788
163.57225,601.96735,322.42557
58.401604,494.7319,114.06671
-440.2096,490.5761,336.89105
-455.9341,1453.8018,167.73393
-671.6688,794.1271,317.28418
-1196.3807,773.2096,431.16245
-1267.044,542.6997,894.9309
-2167.4866,445.63098,510.18448
-2241.8762,1796.8677,421.6093
-1642.4429,368.23547,494.18826
-1209.4059,1131.3008,588.3631
-1095.7974,757.70703,363.52814
-984.3435,861.2916,445.55942
-706.4557,312.1358,118.05125
-401.06717,486.34628,259.81055
-361.9373,213.1971,161.86626
-236.38866,195.08139,141.29433
-51.872692,119.21762,-180.48381
-7.529933,381.3819,133.63028
120.4405,-15.185007,-19.811548
223.04965,537.73975,163.28563
295.56003,-512.5843,-155.58432
419.86365,1053.6647,1667.4728
349.03757,2770.7048,1600.2611
-81.285515,263.86835,489.7355
-1217.3749,812.00995,389.9231
-1609.5007,602.2033,79.6754
-1889.3737,1094.1345,233.59319
-865.9865,-60.438736,8.779371
-533.88385,930.54785,451.9549
-419.90793,1418.2125,851.32056
-327.05862,1647.1782,1003.50494
-429.71118,-112.15416,105.622955
-259.41293,-16.294136,470.22507
-74.719,807.8534,624.117
361.794,361.95453,527.70215
0.43059397,792.02026,461.63214
-341.66287,1348.2323,695.4776
-178.97763,352.22675,457.02457
-573.8517,561.52094,248.24458
-518.1136,229.23674,85.01531
-911.7204,761.6817,674.5311
-1640.4847,544.8173,469.19116
-2435.6494,1588.49,251.42415
-2505.0442,777.13495,536.57007
-1553.6896,669.62317,473.96512
-1412.9116,985.8191,752.3746
-1478.1906,768.23065,527.61395
-1236.9192,538.5958,193.79156
-841.71515,512.5407,158.03479
-584.28455,394.90128,226.90497
-389.452,264.77747,86.75643
-212.18118,6.5235786,24.081318
-165.38911,71.90456,14.64043
49.84319,-13.428768,10.714628
174.06453,144.83395,64.7811
486.33337,-297.9895,-42.989273
624.8976,-102.24834,-195.91885
472.67886,-136.39177,253.67384
-16.581532,4283.977,2180.9346
-387.89218,-13.759792,274.54858
-1754.5261,754.50366,925.8893
-1704.7214,1308.4998,86.03216
-1340.2017,553.9694,487.02512
-623.90173,1016.9056,487.67126
-2.643455,345.26236,914.30756
-3.5360432,1497.418,1171.1316
-15.858455,1297.6038,928.7727
44.184303,-139.01418,-30.526348
-71.047775,408.06598,180.38367
124.58428,332.36658,42.276665
177.10657,84.67148,13.048202
134.15665,-124.742966,-45.440044
-254.69011,-49.43284,-165.45148
-645.63696,465.9498,309.6682
-1854.6348,1105.4885,1037.2972
-2183.6116,758.909,657.89685
-2274.5063,483.6967,186.20116
-1666.8083,384.6633,685.1138
-1638.2761,533.7499,788.1728
-1557.8024,998.84033,795.45056
-1176.7341,73.52705,446.8741
-1278.2952,366.45795,292.10355
-1344.1193,341.79715,273.15723
-1289.3297,210.13782,256.636
-1109.2606,298.78537,153.35886
-1024.7205,445.01312,168.24828
-843.664,274.26086,109.93915
-734.4909,525.64307,135.83545
-608.9039,403.34198,183.39374
-598.5118,684.5924,131.94456
-321.84753,376.85712,52.873962
-151.1131,491.026,354.19724
119.42,32.22896,292.45953
161.93904,532.7362,413.59506
320.28128,-448.15253,-71.1125
600.14514,1160.1914,1131.7524
377.9089,2010.3936,988.33417
40.846237,-29.9243,549.8123
-463.97354,1050.4209,539.00854
-1298.1172,796.25055,417.39545
-1673.0055,1450.2653,410.79337
-1131.8708,174.94704,-120.28996
-707.5983,699.49054,192.01349
-233.417,-199.77429,4.6463876
-306.08405,124.28312,173.42296
-277.13037,-113.237335,192.02321
-528.20184,269.92816,344.55457
-754.5338,251.71661,385.45093
-1542.1677,935.8665,723.9621
-1640.5884,851.87537,646.6656
-1751.4027,543.6836,480.97324
-1605.4806,688.3633,540.4566
-1414.3512,781.7782,667.979
-1457.4835,536.0247,766.05133
-1411.7117,644.16144,649.05896
-1335.5076,445.0114,526.3864
-1433.525,495.52496,573.7282
-1358.0345,571.3225,501.15952
-1373.4545,724.1667,564.1004
-1294.1234,192.30614,440.64493
-1249.8531,540.9484,395.09213
-971.3399,330.29285,212.82713
-649.07605,529.83185,246.08058
-322.3176,245.84384,26.435057
-214.85214,338.91403,197.30566
-65.390366,56.7062,36.5577
-17.449507,235.38857,149.95845
111.23756,-132.47165,-0.5334985
66.65294,112.06258,176.88326
196.83575,-228.42459,-29.800858
-43.422295,1473.304,1707.9365
-150.00832,1969.0614,1293.879
116.251205,67.01234,419.14896
-699.61774,1024.6079,783.9512
-1812.7711,1613.3547,607.9002
-1631.609,621.93726,-165.2794
-728.3632,478.50125,74.49959
-608.87787,-421.459,-137.2305
-891.7882,1251.0068,549.7661
-441.70215,2654.2012,990.03094
-155.71858,1489.0454,669.79565
-358.72684,871.819,303.86252
-215.06319,-15.76539,156.84041
-211.84818,287.9135,45.697952
-101.27871,491.28937,274.293
-99.47929,689.88837,194.47198
-400.68646,792.437,258.08582
-505.36096,741.62885,343.38138
-470.8736,708.4626,421.44086
-557.5553,577.8642,374.39188
-1082.6304,522.8286,567.8777
-2009.4266,766.0654,664.68976
-2656.2737,1061.8464,786.9831
-1998.3873,295.75677,405.41895
-1514.5659,594.3491,746.8678
-1448.7877,449.1569,684.9769
-1454.7205,457.7392,650.55585
-1200.3702,297.60275,388.33627
-975.9835,584.2112,395.61926
-692.8897,292.64185,174.33788
-506.52274,532.7416,180.37447
-201.32957,-145.70146,-119.8131
-21.539484,228.1679,18.544827
168.02855,-149.79498,-303.86356
229.77281,401.36353,126.761215
502.08215,-376.19006,-352.05493
588.64075,381.751,169.87552
583.5731,-573.55023,-299.27414
-242.0345,3177.9553,2188.946
-216.56308,2259.8606,674.2969
-1307.1989,-608.8494,343.03976
-1413.8695,2366.4863,726.19073
-665.23755,3.0245395,378.3107
-422.52194,1193.0243,1019.25525
-8.820142,510.2913,607.6121
-125.053,727.5206,618.5212
-33.54584,899.99854,494.31726
117.39303,892.761,456.9557
224.44005,213.90448,49.12859
155.05403,448.97647,245.62897
7.873817,459.75845,129.84213
170.78638,330.6155,133.79051
257.11215,-137.0512,185.50725
47.368885,30.25348,318.10565
-434.00616,308.91962,453.75253
-1213.6437,587.1051,390.66296
-1917.0331,1226.9362,376.443
-2531.8276,1297.9209,671.2879
-2356.135,301.7855,510.71765
-1915.2177,805.7899,668.92676
-1565.7855,543.45935,642.05646
-1743.2239,207.77795,758.9535
-1466.0652,138.0049,400.20993
-1297.8165,85.24202,451.63284
-1046.5918,240.90614,425.0734
-806.77704,108.55902,275.2313
-599.8535,263.9551,341.82294
-465.29477,268.09808,263.25067
-245.3914,299.21216,122.59288
-131.50673,233.55238,-9.12843
29.829664,466.4286,86.84455
87.32241,360.66174,97.706215
161.48201,456.06976,320.43018
392.36465,51.225513,23.171513
300.27264,1205.7335,1222.7495
-53.233677,1387.8715,1035.1836
-96.11095,214.72969,634.36847
-906.182,1461.2717,622.36145
-861.4704,660.97534,222.30856
-674.39746,882.00934,699.2768
-566.8541,999.9701,866.92847
-302.3344,1075.675,789.9581
-35.508545,495.7443,311.80942
-169.59937,834.16516,388.513
11.83216,575.8146,85.517075
159.7006,718.20135,253.2827
197.5941,542.46155,91.74437
102.96585,733.8447,291.01556
4.261486,577.5606,70.28749
-210.97453,951.44507,363.89468
-231.3217,1228.2122,373.46768
-404.37106,914.18365,422.7471
-527.4265,389.40128,386.07428
-755.5723,666.4273,665.1543
-555.30646,485.63303,501.4545
-1019.56305,940.391,590.9434
-2224.1492,1217.548,803.40173
-2348.7463,1331.7606,656.38763
-1843.7179,1022.3318,702.4741
-1444.9834,626.2399,715.0689
-1190.6761,679.19006,601.53253
-1018.4027,603.8863,503.0408
-663.4024,187.68327,102.27412
-419.3189,250.2585,203.62682
-224.97997,142.15317,-72.72659
-116.9354,331.0294,-37.49021
77.26723,-23.104982,-37.042793
148.98581,300.06546,-11.953412
295.14114,294.68332,-140.48668
196.81572,357.69574,158.91031
437.9495,83.691574,-192.10457
101.07495,2902.798,2165.8064
269.47318,1127.6958,465.06268
193.71292,-242.93376,465.04462
-879.1498,1685.5692,978.90704
-857.45355,597.05817,262.55057
-875.8905,940.3828,532.56793
-504.4585,986.5262,546.6712
-404.4305,609.2798,372.2766
-211.32559,790.2163,463.2182
-115.13176,729.3958,362.50137
-130.37514,304.31195,218.06537
-198.86589,646.3717,386.8669
-170.99182,1050.2831,368.5277
-104.08293,1176.0618,335.29846
-165.04834,616.39954,513.7813
-234.05174,718.00555,428.26755
-263.08572,663.6704,416.05966
-316.30936,718.5933,394.96436
-289.3372,804.59607,453.573
-250.99635,758.4488,345.32925
-270.55585,1038.1359,588.77496
-1143.6948,1295.3262,836.5308
-2390.6057,1130.0497,560.77954
-2446.1743,1338.4569,348.6359
-1728.242,766.518,593.1517
-1467.2239,840.39624,895.85815
-1301.0514,696.24335,698.4667
-996.7838,442.6362,442.46286
-616.8241,253.92696,351.36252
-291.36914,212.22455,103.72385
-129.44565,285.1905,89.75058
93.653534,-243.01393,-187.42625
282.29178,-88.79087,-188.88486
315.10513,-161.97676,-311.5933
426.81308,-183.8673,55.296005
201.17093,-314.7062,-347.9794
7.7013335,577.84753,966.9102
-665.5586,2568.534,2238.8237
-584.12836,1428.4437,751.61633
-739.23065,854.5066,614.6685
-932.5537,726.3493,295.531
-1065.9675,909.649,756.6019
-769.9048,468.20627,679.2988
-480.7916,232.35263,477.46106
-743.40765,1595.9768,1091.2974
-544.97644,977.61664,781.30255
9.87385,-395.94034,16.830156
-80.01414,298.87628,222.26265
74.05527,-223.55754,-171.59117
-29.412098,90.456505,-45.119415
-316.21402,101.99416,-95.00399
-1033.5546,777.9573,440.0149
-1806.099,1166.8947,858.00757
-1880.5082,921.66974,574.5923
-1696.7372,398.58286,315.66187
-1554.5533,508.125,882.05646
-1497.9111,597.6969,803.32275
-1448.4325,348.9018,870.6643
-1654.9055,188.3755,602.1092
-1606.8524,158.9802,451.78577
-1462.9692,273.1146,240.81451
-1465.0709,298.87265,397.6699
-1112.5992,157.75522,154.40286
-931.668,365.28995,154.22688
-803.86176,480.7527,126.5091
-773.9738,617.17255,243.44565
-554.1266,385.63324,316.55984
-473.57758,525.31537,242.23448
-372.52356,500.0879,173.19157
-317.1501,443.6007,277.43073
53.411087,251.1198,40.18365
132.37187,330.3281,333.17316
405.49283,-145.92427,-97.88592
451.0208,-349.71036,73.740776
547.8924,-1070.9387,-278.37112
-15.040025,1356.3993,1400.8447
-798.8707,4356.023,1469.3673
-1658.2537,-20.259054,477.30374
-2243.2937,1975.4236,471.4649
-774.4471,83.665955,-475.43475
-569.95935,229.8765,715.7527
23.288359,-813.2993,70.6998
-348.26566,1124.1678,930.2516
-24.588535,2416.067,781.9812
239.14648,1015.6361,585.8604
-170.31084,984.62524,541.75726
-347.22974,292.0449,461.78
-243.51245,6.6781697,85.78835
-261.66666,364.19443,314.90997
-411.20743,741.32434,343.4925
-496.81116,705.39575,363.27902
-546.58417,685.71185,199.53563
-567.6482,642.1913,371.50632
-1165.306,458.4677,479.5329
-1920.2208,1328.0171,729.7258
-2445.4722,795.9106,512.61957
-1941.1354,590.72314,403.8231
-1532.0792,789.1149,548.20905
-1446.7979,440.66287,541.65857
-1347.9705,620.88715,311.41122
-1006.12195,405.10553,290.07947
-819.6689,408.60022,216.23282
-680.2469,513.94775,297.29874
-513.64954,370.7323,130.54562
-371.60638,146.12585,241.4189
-188.74902,153.22513,-24.299751
48.214336,179.24968,47.229397
142.9194,266.13995,-7.5510073
313.154,157.37396,233.84644
439.1106,-185.47615,-53.517914
498.843,534.1038,698.0015
234.11014,3020.0608,1759.173
173.65756,130.46321,495.68826
-1381.4583,1482.2745,1211.5139
-1560.7697,1241.1254,-107.898674
-928.3132,897.74316,523.41254
-492.39822,-14.061443,116.96208
-205.48602,-289.13065,275.59372
-380.7266,-228.28645,96.9189
-524.30035,304.64728,392.84833
-700.04156,2328.1274,643.5746
-43.413048,1710.4075,484.76492
-197.19669,504.25986,519.1463
-625.35706,1479.7441,258.8157
-20.018314,-181.50122,269.58023
-587.08765,612.0325,267.42407
-769.7861,655.91077,390.7288
-934.0153,337.48514,340.75052
-1601.6073,745.8785,667.7682
-1953.9103,954.6574,487.28125
-1952.4509,104.85144,356.68448
-1993.2817,817.4679,512.2308
-1396.9026,524.8047,500.60602
-1364.1637,803.0897,510.95206
-1398.643,614.9025,402.07315
-1412.5282,635.14703,161.81961
-1088.1223,577.61865,112.92132
-868.33826,464.9842,99.40794
-500.36002,371.358,140.0116
-432.93158,287.47092,96.77678
-245.05687,215.62766,168.09999
-106.14656,202.6797,-17.621582
102.36351,14.49576,155.37064
90.222755,280.1795,42.287197
367.61966,-80.75785,113.749985
449.0248,-214.94086,-148.83983
390.4621,-180.93771,778.7783
-633.70374,4314.641,2801.8545
410.58673,540.75433,583.2796
-1050.8535,578.9266,1234.6262
-2121.102,1734.4043,166.97667
-1683.3209,316.96902,-97.63274
-1011.64075,898.2911,254.15714
104.28529,-809.9716,-13.779117
-236.29585,995.1608,1046.6985
120.266846,2457.6807,1079.1431
447.57486,782.38947,605.5619
98.662384,1719.7952,546.5762
-62.586613,683.9282,564.1168
14.244413,-32.285942,52.75921
-237.7353,162.26665,288.03937
-344.76108,1510.6084,443.5156
127.04873,376.58087,82.90225
179.0313,569.44415,347.6055
57.92718,640.1297,229.1258
118.61703,288.5465,288.25372
-305.76987,971.3946,576.6905
-964.8592,929.90625,709.81445
-2684.1675,2226.7383,794.93146
-2549.106,1295.438,615.3991
-1788.4038,925.1243,451.04083
-1297.4462,935.9031,842.79205
-1139.998,454.84448,485.6869
-908.7261,572.1793,428.22443
-708.9334,472.42105,214.4638
-488.7372,370.44308,216.90953
-477.19754,391.81085,183.61053
-219.74333,206.90411,69.90103
-274.06015,306.64575,51.21305
-72.31387,251.43097,73.42432
45.92848,347.1559,96.38575
204.45306,290.19873,229.50462
298.4684,211.8207,226.11157
832.966,-627.5688,239.61604
594.91907,2843.2517,2064.7139
873.9081,817.16473,675.95325
-604.1679,445.6695,920.14545
-2322.509,2025.8408,176.00746
-1575.3444,56.74631,-210.84076
-1260.7157,1846.2626,924.3748
-273.8306,532.8283,506.7443
186.79979,727.31195,795.54517
385.28784,708.7998,795.87805
211.92873,825.67914,814.9756
292.816,239.73894,333.1942
290.94327,661.2,384.7913
282.07217,535.03674,472.0776
229.20103,990.4096,524.1014
388.9685,405.65863,170.08833
198.62259,638.2439,392.0058
119.91417,311.88135,264.76593
-80.421196,1297.7682,644.7846
-154.60182,643.05646,492.58023
-478.16644,627.09503,827.73926
-2135.8865,1330.9055,543.2731
-2768.8718,1679.7515,328.03735
-2387.5884,1297.546,702.1183
-1498.8584,1065.5013,743.5054
-1136.1713,770.4089,536.8642
-906.71375,732.0379,536.1694
-628.41064,363.85834,205.89273
-420.0135,542.5188,234.07152
-191.03075,68.46359,90.23269
-176.96498,445.78372,222.55235
118.4584,-156.56297,-128.94609
111.59012,331.92493,209.88213
343.02304,-254.60011,-73.29609
279.42633,486.50528,287.46732
516.2239,-711.363,-265.29794
486.0588,1684.6566,1570.1615
455.01886,2353.7202,1459.6364
-245.40157,268.99658,324.97113
-2121.7373,840.77783,282.86722
-1798.7388,102.250404,-83.4231
-1609.28,-173.27138,66.830185
-1308.879,-314.45963,33.372135
-1357.7716,-420.54932,345.1699
-1812.9927,2638.324,1268.9055
-478.36847,877.23315,723.7548
-708.127,-657.7909,396.28223
-1250.3026,1510.3154,514.67004
-915.32654,259.64508,378.76596
-1260.4957,949.2127,411.925
-926.1266,1081.6567,241.55495
-954.8645,591.9719,382.39786
-880.0315,755.00525,471.15405
-1002.0506,627.3765,486.1425
-1200.3696,516.5218,589.4664
-1483.5581,374.89902,663.8464
-1569.7039,659.55334,479.22418
-1713.6013,559.027,606.50397
-1795.4298,725.8989,592.17535
-1676.6677,638.3665,439.90018
-1599.9064,612.0985,539.4747
-1377.609,551.1832,420.80368
-811.91205,384.01755,165.25189
-547.87756,322.91733,138.10335
-500.574,364.7196,257.0952
-397.6481,262.73975,145.46498
-276.73984,387.0811,127.60882
-120.80344,233.17,17.416925
-180.31847,601.2802,354.0659
45.98877,103.18114,111.221
263.17432,213.14847,93.91538
672.1747,-452.75433,52.897324
437.78076,211.4686,301.81467
155.46313,-20.521864,-101.99162
-1093.3224,4201.81,2434.5183
-966.25555,1660.5004,584.4856
-802.12726,-796.8113,4.2949367
-836.823,2135.3125,1069.972
-501.13266,526.644,656.03796
-398.25165,960.07776,841.9502
-115.576416,1017.81,675.1658
107.01312,546.83276,558.2527
288.71588,681.4829,607.8478
404.63998,884.6488,595.19476
608.1448,477.3141,318.91742
653.77716,366.0343,215.58667
626.1535,154.78697,-3.4921005
609.051,-18.24487,-82.57756
289.60956,61.769836,-141.3466
-212.69473,988.98236,212.5751
-608.20605,1155.5219,622.81604
-1041.0079,1244.1952,160.86775
-1728.8835,1954.3124,586.71576
-2189.032,1604.7856,905.90967
-1859.711,1528.5486,362.66742
-1708.2819,1494.4847,652.9501
-1204.0875,838.0084,527.49695
-1095.557,712.1309,524.9907
-922.8863,547.131,186.90955
-656.99524,448.04434,206.52876
-504.0318,672.61743,197.61902
-369.8113,310.06058,210.30493
-302.094,415.25076,181.91566
-164.0714,494.28314,161.7232
-67.36647,424.5886,76.83768
58.159473,293.97437,144.76665
191.6908,338.28528,95.66015
399.29675,-63.460896,39.952095
456.72046,-130.08356,11.082131
402.70245,-368.79697,255.95775
-71.368614,4037.2837,1730.6975
-746.94867,1472.206,413.0928
-1551.2804,507.87943,522.9636
-1493.401,1314.714,-43.620834
-991.28015,382.23178,224.21068
-564.04517,564.29376,230.98917
35.996613,-282.73184,85.50343
-163.98605,-101.77214,35.149014
-447.21054,159.32335,278.89603
-789.02435,476.36993,429.26846
-1182.1398,938.63995,404.8023
-1378.9125,1624.3922,393.0662
-1141.5333,961.5012,369.78656
-1108.0554,482.9176,379.42764
-1022.9052,1093.8546,591.8695
-1032.1073,790.3817,700.41064
-983.4124,651.7376,621.675
-1226.8527,826.6094,635.66516
-1259.9843,657.39825,559.6203
-1662.7996,818.7271,552.2484
-1869.0476,806.5635,419.06216
-1715.2747,625.28253,271.7971
-1614.2942,783.3485,263.9316
-1519.1311,633.09546,226.03423
-1285.3151,392.459,246.74983
-841.962,319.3795,38.8137
-511.9008,421.12253,183.4563
-459.03046,434.05884,275.241
-416.23264,561.0796,154.11848
-125.61725,260.43985,51.62079
-195.6083,370.67346,239.33142
-63.69406,77.15811,2.1285794
-39.96755,377.12033,168.04645
252.11919,-262.1143,-145.92853
281.32657,145.55322,244.17168
346.64987,-769.95593,-93.39737
-163.6854,2341.5327,1757.6566
21.660412,3509.4827,1069.1881
-549.83374,-278.36758,605.1082
-2242.643,1907.4305,567.4385
-1279.8744,553.3763,-424.1827
-1078.8645,848.715,438.81653
12.85897,429.2198,96.447174
213.00494,-180.05466,294.8486
-4.137516,1679.6853,744.5177
304.36298,1618.9419,969.6419
316.1701,441.98895,462.93814
-99.48662,1793.158,730.3203
182.86607,64.87106,221.55174
30.2038,156.8121,174.28725
40.642204,341.29272,202.03835
-126.12729,815.35095,388.2069
-260.57172,754.88934,274.27753
-438.3384,1073.7888,373.2253
-403.31177,641.5791,393.4229
-892.12427,976.90814,340.74283
-1693.462,1112.7579,56.37958
-2439.6006,1658.8969,509.2489
-1809.5925,1044.9315,326.3025
-1279.323,1146.8076,670.8747
-1124.5543,1054.8049,525.66986
-1048.293,797.3648,431.22638
-836.9783,307.25296,133.06044
-667.9903,599.8826,337.48126
-512.96716,660.05646,232.93869
-473.91348,540.6541,302.76755
-368.74283,311.31274,147.99324
-271.1106,461.4468,234.67389
-77.09718,238.05626,29.81213
61.101147,338.56305,263.35437
184.00073,81.12097,28.207636
395.59235,84.26184,306.13333
497.5386,-352.85986,-189.73653
289.67764,357.13922,1025.7858
-109.42143,3955.9553,2213.0156
268.61145,-160.38182,60.999397
-1052.0972,1083.5845,909.8377
-1224.6288,1205.5116,269.88446
-1245.4497,549.3916,355.6803
-1218.616,933.7875,216.07936
-601.6095,449.07074,399.88672
-234.9327,872.75146,479.2037
308.7798,201.42143,527.44214
88.32283,1113.1176,713.62744
63.74288,1415.0286,976.1393
271.09604,248.2448,376.57874
233.32635,348.85638,472.07196
137.41402,672.46295,591.8413
5.0109606,657.48254,634.70496
-176.66089,563.5069,448.38007
-355.99612,595.3917,537.6037
-485.176,701.5153,535.23126
-347.67194,640.2529,667.56366
-465.71533,1083.5958,792.33905
-1132.989,1082.3796,685.0355
-2271.9878,1774.9302,363.8502
-2150.4639,1528.5577,573.29913
-1356.4214,878.7081,505.6541
-976.7606,1124.6986,652.09735
-877.91296,750.583,422.74838
-570.0943,681.01483,380.46786
-489.75778,396.63458,228.79083
-287.34586,440.17548,224.86722
-191.15834,243.90947,-31.722656
-19.668295,265.10367,171.63785
15.326028,26.384586,-93.46498
209.70607,237.69499,85.18956
199.76796,-98.59653,-233.61194
313.36276,264.12384,275.4206
301.24075,-645.2611,-232.51294
262.8051,1944.431,1362.612
-107.588425,3497.8347,1831.4047
-39.148087,-748.88275,147.16096
-1191.7614,1619.4994,970.0186
-1134.7241,404.639,116.29735
-1316.2152,1086.2323,700.3472
-917.99713,802.02673,347.42908
-401.11053,510.27057,479.44363
135.57175,684.73334,467.9415
236.61986,492.5194,654.9236
89.50698,1006.11316,763.3452
-31.05539,1153.9965,795.04254
213.55269,24.57703,257.3094
35.621128,697.45624,511.0364
81.86063,549.0035,486.17053
-29.197655,699.3668,481.73618
-70.58188,821.6962,344.24042
-301.30045,904.50696,523.14325
-260.1473,502.8568,398.3198
-481.09534,895.37384,604.2368
-1087.7656,1201.2887,748.62964
-1533.1802,1045.552,381.43478
-1989.5842,2031.2091,596.7528
-1630.4047,923.999,862.0089
-1173.3074,946.3206,648.7013
-1121.5785,1039.4015,617.5113
-893.90027,548.8777,528.3022
-738.44714,629.8196,545.94904
-398.37607,508.62558,267.46603
-347.07977,346.80362,277.0763
-67.76324,147.6075,47.81297
-53.565235,295.12997,85.03356
162.10077,25.91004,-56.48749
114.50156,56.723377,-83.35492
317.339,-260.7587,-112.30069
87.494736,-127.257614,-5.1586
346.22903,-33.930054,116.10965
-361.46515,3979.4006,1975.3552
-799.338,1132.782,406.82724
-1111.5415,587.5362,571.51953
-1101.3246,1422.38,368.17477
-698.40857,167.31445,319.9779
-440.83768,916.93195,760.8468
5.456815,512.20215,1033.1674
-43.292656,761.73895,750.0134
-401.99542,1836.7479,841.3137
-110.58015,-321.08698,59.227512
-107.653404,223.8657,135.25378
46.006695,221.09988,67.54331
116.7367,-31.710121,5.56733
191.50919,-309.99246,-64.181786
-350.11578,-218.14058,82.74419
-720.3713,297.17996,223.06883
-2418.8772,1188.879,1376.8367
-3427.216,497.92505,991.2301
-2079.656,243.66449,-332.30804
-1707.1747,314.25922,594.8807
-1668.2614,985.9466,993.7506
-1257.5714,193.49036,646.8065
-995.0939,-123.57037,295.38635
-1238.717,0.029759713,433.6898
-1098.6627,-4.1218653,341.38992
-1056.0438,188.70883,312.56607
-958.24994,188.03615,462.97076
-986.44165,425.63504,439.6526
-790.661,397.1445,245.29129
-879.19995,453.50882,556.4301
-576.6808,614.292,459.6631
-487.7142,706.02203,465.37955
-240.61104,260.64948,180.56984
-216.67792,481.72018,150.77054
-53.19477,441.90106,118.7167
83.52983,483.0431,103.748886
206.38617,145.69434,252.11823
263.44766,-208.99896,254.54578
746.63416,-699.3287,226.0741
196.39832,1985.1959,2233.9563
-215.33502,2660.9521,1663.8386
-860.8444,94.813965,320.26755
-1350.6912,660.7009,227.87552
-751.6154,345.43008,319.53568
-643.3366,362.2635,205.40242
-380.7023,246.2727,68.97699
-161.1966,413.25803,451.7936
-60.88433,1631.3901,1204.7748
109.84452,665.5692,669.8995
-319.5489,1386.9578,695.3091
-516.4346,1229.9281,738.548
-90.1845,-14.276338,218.56053
-248.52403,-31.958527,511.73907
-343.79584,1120.6292,879.73
25.458696,686.34595,626.0716
-96.610275,706.21234,738.90985
-284.7461,816.94324,622.6365
-952.7406,874.17035,771.28876
-2179.256,426.89594,757.84393
-2391.902,1213.1812,311.489
-1651.7249,532.0004,479.36188
-1305.4015,643.86,779.42975
-1102.0281,637.0483,498.11758
-851.95276,312.0119,356.2994
-752.2336,600.18604,362.6618
-458.08853,574.5624,334.08524
-231.4727,457.67407,290.91617
-112.97166,586.49603,194.50006
207.8842,310.2772,14.732349
251.77162,331.0783,163.02959
444.22675,10.393619,-41.459568
487.39328,-185.91556,-108.33324
568.47705,-467.98364,148.93044
54.195934,2105.2034,1958.3752
-328.10074,1316.6133,533.7024
-309.38983,434.65186,574.07043
-572.96545,1426.0586,738.3567
-740.1005,730.5623,478.51633
-1256.3444,1150.6002,471.95142
-1181.9149,408.47208,163.06258
-765.30664,-123.21041,-265.70428
-610.84155,-26.555431,33.69027
-353.59088,-194.46527,-40.618034
-577.49115,-81.32608,200.71597
-1152.4492,1502.0007,583.8567
-810.50793,1074.5986,408.45074
-1262.198,807.3514,389.0873
-1261.8711,873.8508,605.94495
-1062.145,466.02127,314.13882
-1243.2372,762.77747,556.04517
-1375.9579,379.0688,757.67194
-1281.0482,266.22763,647.87805
-1446.91,393.66714,616.7424
-1520.9521,291.59222,750.65656
-1544.2745,231.3881,644.93304
-1494.8204,454.7319,818.65234
-1513.3936,314.46387,507.3937
-1659.5376,468.89917,746.685
-1389.1758,270.1073,525.611
-964.3389,534.19684,476.10068
-592.89307,248.66638,188.61395
-322.75403,291.33163,145.8557
-58.327328,37.238605,-184.35289
-18.50083,254.53606,90.818886
171.4359,-54.992367,-137.80234
222.95366,354.52637,99.72872
345.11484,-423.28824,-246.12279
339.26187,-9.082418,191.94243
148.95367,-616.0155,-306.08804
-312.57977,2819.9978,2575.2983
-349.1626,3027.596,1127.0184
57.920868,-1543.1443,65.41035
-571.69183,1450.9762,1280.1184
-770.8848,1197.6584,727.9352
-1036.9288,890.06226,913.8862
-853.8867,682.02576,377.00488
-749.2252,717.85376,463.17908
-485.90042,834.25885,112.500656
-236.58495,898.09064,216.89098
-36.200302,381.6671,-116.59173
69.06051,107.97516,-45.032043
1.9229516,229.09207,-100.83069
-67.21786,461.83932,73.54539
-451.70453,673.9758,139.0033
-828.0838,741.21387,415.112
-1264.6719,834.68005,418.67587
-1933.7861,1351.5509,691.1323
-1536.0812,315.58032,387.83292
-1615.7853,696.6977,713.3407
-1468.224,722.91895,909.36804
-1530.9647,440.80527,872.6532
-1334.9053,244.05821,692.4663
-1405.1372,340.2356,760.2382
-1464.3854,361.3948,699.51587
-1583.019,143.51317,527.4957
-1245.1609,264.44913,623.041
-1076.1008,325.90002,554.8811
-677.70245,395.568,492.16907
-368.0269,271.40115,324.19412
-292.46512,441.8266,387.9649
-142.70769,178.75266,108.24848
-9.18421,379.52298,288.70126
99.0855,0.049066868,118.81822
163.22076,304.6236,262.28348
335.33966,-624.24023,-184.07008
471.11133,69.74093,275.40506
369.35065,-1114.0963,-573.2512
-236.70758,3509.664,1812.6821
-265.4479,3285.33,1096.6147
-402.40167,-1556.9475,152.93796
-804.7149,2564.2332,1131.6106
-542.3988,84.838356,210.21169
-919.0421,1159.885,767.45825
-467.98868,672.63904,253.48737
-371.49222,861.63403,431.5843
-107.76825,574.5692,148.32361
11.206695,1062.7874,586.6181
148.99457,447.31714,187.92496
71.41839,925.7415,358.33694
73.83234,659.3659,243.2749
-42.3135,763.7433,620.862
-1.3068488,523.37213,290.4591
-54.994255,979.33575,548.4586
7.945985,562.3697,544.1217
10.227087,743.6943,714.6293
-5.6745005,636.6495,535.9555
-480.83023,944.74927,987.95404
-1452.4867,1713.9879,588.22266
-2211.8413,2575.1133,816.56934
-1595.5204,1519.7286,745.785
-1114.0653,1333.2203,824.7942
-842.42664,601.7877,606.21094
-663.62164,718.1082,487.04178
-522.88556,175.05925,81.8019
-480.9568,536.5714,172.11888
-355.93567,246.66571,114.90205
-242.98569,393.05972,153.3852
-52.68202,69.826996,-45.210243
-104.36269,433.41077,178.88411
181.50168,-49.582783,-95.91447
415.36948,-44.1547,17.517174
811.1039,-951.8559,-267.58737
418.76303,2932.258,1852.7343
138.68405,1054.3278,654.4688
-1394.1304,594.3197,630.07874
-2187.1082,1344.9292,-92.4249
-1464.666,390.76797,162.878
-1299.6844,1130.7714,441.78287
-3.9634643,-100.29871,627.5144
-432.15054,1599.0997,1254.7554
-558.9002,1949.2494,1203.5032
-443.71295,-329.96875,218.42088
-664.7888,414.84875,243.28835
-102.1049,229.35313,250.36093
83.72631,-139.00838,236.18369
-45.098873,261.64294,94.94832
-282.90207,313.25735,171.79695
-836.9428,635.07837,223.5206
-1366.5092,1171.7056,533.0116
-1377.6974,463.1573,309.68118
-1652.8147,696.1243,195.1694
-1585.7827,675.1364,412.62567
-1413.1678,736.65393,699.55133
-1309.8986,899.232,602.6464
-1687.0593,712.8062,684.4344
-1628.237,335.45868,328.39886
-1502.2122,538.23035,406.57953
-1520.255,423.731,336.5896
-1426.3809,596.21,420.9981
-1263.3748,470.862,272.7385
-982.79193,324.7895,360.2359
-634.7586,298.88278,217.80832
-442.72568,311.13696,319.11096
-196.92616,130.4172,-42.865887
-138.73439,263.4291,246.50522
-24.485016,181.35568,-42.303448
46.83439,396.12698,150.28688
176.71333,124.930786,-160.42268
415.3506,-30.838842,90.15349
827.13464,-954.3242,-433.56824
539.6393,297.8962,604.39777
-59.663956,4844.0938,2285.5132
-427.81845,-146.18536,389.61926
-2773.7764,1195.9547,733.1138
-1875.7168,847.98157,-379.1566
-1135.6487,-128.91664,472.3076
-653.37836,483.87772,320.3074
-382.37622,-205.6502,241.99763
-378.68228,1592.1777,1041.6299
37.369434,1265.222,880.70374
135.06099,343.31403,625.10736
-288.7559,858.89777,739.1032
-374.76376,1144.3075,750.0678
-49.879154,612.0922,544.91986
29.391582,129.67319,345.59192
-425.99057,641.31964,630.37366
-364.95953,483.12402,414.11792
-648.25824,495.8408,415.47668
-910.6263,556.0115,310.80624
-1885.9915,774.15643,648.2348
-2453.3496,1048.305,459.01538
-2174.1592,1051.7758,271.92084
-1516.8923,538.94617,426.06433
-1443.179,984.36127,759.0713
-1298.7339,513.7861,406.73563
-1241.6139,731.48126,390.80746
-1046.938,455.5245,439.3046
-834.7774,659.8056,434.03342
-424.81027,266.9069,159.73393
-400.0342,490.37793,324.337
-102.38835,-104.42502,44.17264
-15.150342,305.2494,-18.45303
132.23671,-103.77045,-158.62543
238.75365,270.1343,-10.058014
483.73328,-537.241,-248.17775
366.99045,20.36353,102.24631
301.73233,-821.5958,-60.928623
-271.0999,3654.6348,2329.397
52.685635,1226.3557,817.41705
-1509.4475,180.13748,776.6852
-2104.7432,1678.4076,-29.505249
-1081.2272,-470.19608,-1.3784721
-1006.7771,1965.0643,1148.2153
-281.28116,595.6661,493.20602
-74.103775,619.6232,667.6569
-59.404037,859.97766,526.28613
-155.66827,648.53674,479.0194
172.28677,-99.07333,305.19366
-178.52362,1234.9398,1090.3505
-65.649124,786.44336,729.4448
-192.83224,352.29657,451.179
-238.53967,494.02573,386.1748
-2.5610533,352.5055,463.64035
-134.913,719.78357,502.66736
-143.50975,895.36816,369.12872
-192.15784,829.2475,395.48917
-401.26523,997.4636,475.20892
-1526.0829,565.2754,545.51013
-3001.6255,1426.6106,641.9875
-2383.4268,617.89636,-69.51797
-1588.4594,225.11292,596.33997
-1295.7251,906.19086,925.7945
-1316.371,605.8125,622.11774
-1072.2882,428.33154,342.96927
-904.4816,364.7319,199.42911
-554.4952,434.21475,165.1525
-453.54102,689.37463,217.23055
-384.29,117.40019,30.966158
-245.10611,207.78165,101.91892
-223.71759,385.4839,-32.46711
-115.79752,423.94836,316.60373
94.471924,181.97586,86.60294
193.72829,22.48857,22.050194
1046.344,-1413.8759,-631.1431
580.1165,3.2993903,568.23737
-663.8647,4866.799,1969.396
-1075.0696,-588.8377,20.343822
-2115.1868,1365.4226,685.51483
-1496.299,633.58746,-233.46902
-1047.5552,425.38452,674.4151
-608.20465,1347.3796,745.78033
149.83011,177.10435,649.6447
80.77686,513.29364,734.69635
-146.9579,554.5336,752.5033
-125.667015,819.43243,400.68988
-217.1792,694.81,408.65012
-175.45776,641.77924,408.39218
-259.47025,621.9809,277.27444
-282.07443,602.3029,249.10245
-517.84076,700.8067,320.513
-564.1866,611.59393,285.50253
-630.71545,746.7839,330.516
-639.18164,665.1211,423.0257
-1437.3596,563.3973,727.7608
-2662.543,927.22516,912.714
-2304.7734,979.1342,372.55103
-1771.8745,-76.22898,533.3752
-1566.2577,575.5259,717.2774
-1374.1826,407.8265,579.68274
-1071.0868,474.2273,379.5282
-893.80646,607.7631,296.00665
-586.14795,531.3282,82.167786
-464.4631,493.06494,133.70256
-298.79642,432.3409,-41.87957
-143.18149,45.3429,-16.902288
-85.677765,187.98645,28.641975
44.739193,316.1988,-58.50511
152.9283,437.64365,-18.845957
184.36961,384.18732,177.39636
568.691,-93.638885,-378.08755
900.34235,-675.70703,573.48364
620.46655,3535.3728,2870.9155
181.38773,441.4077,326.7471
-1931.3762,831.745,826.87744
-2547.0198,1474.4917,44.94477
-1761.3694,80.36861,-104.39682
-1209.2772,1157.2812,453.58044
-615.2782,945.4064,900.84955
275.2682,521.89056,797.93097
241.437,1065.7101,1424.4686
280.37103,849.1895,900.4977
348.1968,203.73566,649.33765
165.07617,731.48444,387.09082
282.8735,454.79745,214.52153
162.15317,722.4519,246.7545
23.574066,1090.5851,519.80725
20.498472,744.4708,151.93579
-155.70966,368.806,346.79355
-247.72935,599.7538,208.68475
94.308784,280.61023,589.0532
-838.92993,1343.6946,618.64386
-1382.2953,691.4666,833.5518
-3862.928,651.759,795.7411
-2506.329,1090.6863,-389.9693
-1653.5852,731.4559,817.7762
-1650.8431,768.61224,1146.1652
-1191.8501,748.4069,482.5059
-1024.7295,371.01743,331.32462
-593.7887,380.51456,145.14032
-447.2236,262.43973,247.9112
-229.42929,159.12294,71.857605
-68.917915,64.14068,11.824356
39.24306,135.45918,-118.59279
86.54897,34.016743,90.71976
176.07495,41.29485,-92.38945
229.92726,-326.8849,-105.77288
689.25574,-986.8066,-413.48233
354.8025,-78.38889,1248.6095
-443.5416,5721.0107,2396.811
-218.35504,187.54762,-161.55061
-1546.6804,341.0257,820.5885
-1863.2405,1549.1204,314.32907
-1854.7837,333.8378,384.55954
-952.7672,776.0629,318.64572
157.25296,-793.9777,24.056099
-72.2736,-676.6699,118.47282
-582.05554,-26.151737,254.97198
-753.10925,226.3725,325.41077
-1122.8905,274.6159,428.31558
-1562.8544,950.4496,463.11517
-2007.1382,896.0557,435.40918
-1447.5397,836.69025,49.950523
-1332.1906,-136.43022,64.20901
-1225.2192,782.0428,388.03598
-1140.5828,1312.0972,768.296
-1077.8292,118.101234,700.13904
-1202.4912,312.2331,501.5787
-1650.4562,297.52112,670.08417
-1629.4072,95.24078,436.47733
-1436.6758,307.34293,333.30032
-1384.9371,293.923,616.49664
-1541.1973,324.2755,458.6821
-1498.3027,487.9876,109.21728
-1396.0548,309.03317,152.83083
-1098.0139,799.2029,242.45529
-847.85614,518.17456,103.92459
-525.21967,314.29706,-14.447618
-286.74246,-57.36295,-91.850266
-74.18764,62.75398,36.973713
6.838041,-142.9222,-88.641426
327.60022,-423.7913,-129.88559
523.7019,-517.81964,-146.62845
409.43546,-543.3995,300.83524
-67.754814,2669.944,1794.6844
-5.6234484,2894.5508,1201.714
170.37729,-189.45093,521.11536
-1817.6805,1775.9906,900.3213
-1849.8582,1075.6132,-126.801414
-1203.2435,973.6125,362.34207
-453.2333,306.36255,356.9774
-177.82034,-70.73447,293.74252
-290.1186,138.78075,272.36905
-268.15408,211.15393,277.1175
-371.3422,148.51666,406.80072
-385.78128,247.67369,298.8769
-519.4184,94.07019,131.56516
-1001.148,728.97797,235.66046
-1790.058,1022.51306,725.2813
-1947.9226,866.8837,488.85684
-1431.5275,393.15054,113.378654
-1341.7229,652.3751,478.45514
-1398.3241,970.95703,925.86053
-1363.9904,497.90585,825.8879
-1241.63,248.82092,608.54987
-1550.3066,361.7889,783.9222
-1599.44,271.76434,659.5226
-1264.1941,425.74377,686.5125
-1286.9122,503.4063,632.4922
-1323.5891,245.20667,515.25604
-1142.598,324.0195,324.33963
-896.4042,517.6902,276.6072
-643.54,342.9323,276.50967
-348.12787,320.28903,66.52959
-212.39066,200.32549,144.56964
-40.920673,18.372456,-4.9144816
-55.918186,179.18243,186.45863
140.50739,-40.902557,-49.591743
196.76482,28.74166,251.68976
548.30005,-720.21387,-163.37254
218.79866,1632.1407,1735.0447
63.951664,2671.7646,1348.0674
-65.73633,-426.3178,147.5294
-1297.629,2018.8458,943.1942
-1189.7373,626.47675,230.00237
-1652.4941,1245.3978,623.34064
-736.4751,588.45734,63.18195
-237.68887,796.0479,948.1097
256.61526,879.5992,813.6748
-34.74075,1245.4501,921.7884
-145.81895,804.86884,206.18791
-204.09137,-68.40881,118.00146
85.866714,628.5213,242.74358
167.00374,630.16547,370.8231
216.71408,601.3914,-132.20685
81.73837,943.5457,19.501043
-60.354736,893.2361,221.566
-232.28468,905.4714,433.93344
-274.1214,893.985,404.60565
-369.67065,916.2964,553.17236
-487.93066,452.08835,545.1493
-1998.7118,1239.7354,1150.8807
-3155.5454,1237.3108,827.6623
-2299.9802,435.28278,367.45724
-1700.6677,204.18736,846.9742
-1340.1364,807.33215,750.5167
-1127.9805,342.2197,342.9834
-901.1193,530.36804,281.94098
-672.87555,426.81842,-8.253766
-401.41846,576.3339,263.96155
-225.57066,344.76923,-38.298435
-55.642307,118.21015,63.830906
33.91491,-63.769398,-178.92018
138.07683,306.25412,64.49086
174.6297,76.88742,-186.35176
313.91138,-44.666428,140.92227
567.399,-688.34106,-378.78394
42.938255,1399.8827,1889.3672
-191.67702,3715.6711,2019.3301
651.4194,-240.07115,14.354005
-1983.804,2005.346,1097.6072
-1842.3882,1005.1588,-530.4548
-1249.9143,934.08405,328.9843
-585.8497,129.154,-14.172902
181.04022,-717.51324,182.46533
-44.6654,-837.94354,62.23223
-829.22144,629.8863,735.98804
-555.3633,4804.316,1410.1857
754.27264,-262.23932,111.10202
-263.901,360.40826,387.68243
-726.2088,1434.6158,332.5424
-648.9091,818.91046,536.0751
-572.7919,228.7466,270.7163
-640.3909,-36.493668,104.35422
-532.15125,74.80594,135.67763
-498.8144,715.10645,326.49103
-597.6626,548.4003,477.42426
-1550.3075,1263.1249,813.88403
-2080.6116,1040.763,732.10034
-2300.0742,738.1574,431.2865
-1620.3208,959.1123,558.2747
-1458.1083,894.28394,842.3423
-1343.9183,618.5696,516.4504
-1233.9452,736.6044,332.38803
-945.733,343.9203,208.60612
-769.88904,735.6122,318.28925
-503.63687,325.4374,171.25403
-464.1326,395.64838,283.13412
-220.41698,151.35945,-10.927213
-230.63628,396.82166,58.745674
35.064682,23.304287,-49.873173
-3.6822352,379.5982,161.6395
607.92114,-523.9141,-148.40675
448.22134,190.59904,249.37059
397.60938,-832.24896,-625.2411
-365.42484,3116.506,1276.0938
-316.8892,2564.8901,898.82135
-991.01184,-684.1181,215.84247
-1985.144,2071.7776,807.37354
-1210.8126,81.817055,28.669518
-1070.3276,826.4286,794.60516
-650.9037,1242.0298,822.1468
-210.61328,810.7363,870.32806
159.22081,805.2684,774.66394
246.18863,387.5647,477.02496
178.21104,516.42584,632.5797
115.3211,1102.5533,765.73444
323.93854,388.33386,340.49814
172.96426,678.84625,393.4414
128.1106,688.9167,175.60938
-19.886515,807.41925,320.78134
-223.14201,972.9741,406.75772
-406.79218,905.8579,506.59113
-451.1334,451.88336,296.16638
-720.5698,852.2857,372.22668
-795.43115,747.5428,459.11594
-1372.9579,1344.8533,541.1925
-1682.0492,1471.384,436.82748
-1443.94,1468.287,555.9736
-1148.5223,1285.1245,524.6029
-1117.789,902.78735,570.84845
-924.0967,699.7755,312.4768
-724.9241,665.7607,309.00848
-509.97922,583.44495,210.55054
-400.88602,379.86496,202.20308
-365.95047,485.1575,208.75395
-181.71327,408.574,48.79786
-45.967068,475.25998,139.73134
-60.239555,351.15863,276.8795
16.33271,635.30524,255.90007
82.09559,519.22095,368.1423
144.2488,684.9785,332.59137
190.049,942.12427,528.1265
210.90364,1080.139,446.2658
375.39328,800.7385,539.7931
447.35757,784.7075,853.7653
460.36703,560.45264,513.1583
204.22775,1124.2743,347.84116
56.48073,1586.3337,480.24924
30.279482,1472.0193,674.6619
94.91145,810.315,270.62775
-34.049892,655.9992,277.8319
-45.47556,545.645,471.07712
-87.6946,651.92957,246.94571
-81.4542,361.45477,103.90043
-225.10341,917.6344,375.5429
-103.587875,706.8178,411.92783
-290.97583,961.19116,343.71857
