# PAMAP2 dataset (wrist-mounted sensor)

acc_x[mg],acc_y[mg],acc_z[mg]
-576.969,43.94314,100.924866
-829.1345,443.9126,198.80075
-1492.4127,603.11,481.26978
-1964.1351,1120.8783,604.4722
-1542.1086,459.74948,160.84843
-1392.2946,552.25397,336.1795
-1280.7662,1246.2411,736.08563
-1225.1234,780.9071,741.1151
-1128.1752,671.97565,569.75574
-1212.5361,892.51733,586.018
-1308.2471,827.0722,778.8054
-1545.0834,1058.0255,601.1673
-1589.4523,598.3168,305.09845
-1482.7206,638.0112,458.2065
-1402.7473,758.5814,255.3721
-1153.5898,378.9298,171.37743
-829.0346,385.83267,87.11689
-597.3357,427.80734,26.258564
-491.41055,229.32027,102.7442
-396.04233,381.64993,111.72128
-245.795,121.09564,-17.663992
-229.36208,347.464,149.07047
-28.299444,76.199295,3.338863
70.591934,243.05237,220.75351
71.22141,-28.936604,28.921553
189.57085,1337.5604,1295.7766
52.07788,2356.0906,1284.5178
495.00952,-393.47675,525.184
416.10226,702.7341,912.1512
-875.09607,974.3032,1029.0624
-2094.4119,1401.7697,143.06296
-974.8346,550.03705,-247.17148
-344.381,-210.39557,-235.38774
-111.35081,-871.78766,-213.54688
-521.6402,2601.643,1267.8622
401.6883,997.56024,479.44284
-606.12134,941.1569,488.26
-810.85223,1547.7616,256.53305
-658.0277,986.7327,137.52263
-53.242294,-686.9849,-161.76459
-800.5528,428.01974,387.86334
-455.8788,235.19006,64.92479
-711.22076,342.8088,360.78232
-647.07837,371.22296,186.62614
-1201.489,350.98117,250.1154
-2373.3328,1224.9319,566.47125
-2275.277,1058.8419,610.0237
-1900.582,340.44452,683.2723
-1361.1348,1114.9236,730.38184
-1415.1696,687.6937,491.86856
-1606.1366,708.95245,274.3943
-1368.9308,670.1257,114.686356
-1124.6824,656.60596,92.53525
-861.28326,950.39905,177.80663
-741.6624,536.05884,-88.7182
-439.07242,87.47292,-171.06566
-467.80402,145.64218,1.7045426
-42.209255,-190.94478,-242.77567
-4.598194,70.2585,-13.491271
359.04684,-350.4196,-20.449045
172.46883,-126.849365,-173.28668
300.7027,46.601067,54.97694
-280.7917,2938.436,1449.4102
-208.17664,928.0247,375.5049
-439.11697,595.00714,563.29614
-727.62115,957.11115,619.996
-1172.1343,973.7427,689.2953
-1127.7926,512.98645,271.62943
-988.7583,767.6679,580.1932
-756.98773,782.9209,322.3921
-359.73077,717.5187,578.9956
-180.30252,739.93115,223.13998
-90.0064,484.2828,359.42587
-281.32657,723.294,387.28232
-349.18143,877.0927,510.41412
-176.86923,966.055,174.62717
1.1956058,247.14732,348.40573
-193.8294,934.1153,552.86383
368.18375,405.1764,541.1328
5.077049,877.56946,635.0023
-433.24783,861.4715,481.34937
-880.6107,846.71747,391.29364
-2734.5442,974.6604,578.5433
-3515.4941,363.52692,458.9124
-1907.9579,238.08076,720.9174
-1465.7993,726.6615,840.4806
-1100.4735,1058.0468,367.40894
-1220.1012,620.27606,123.637505
-864.669,836.939,55.28789
-545.97125,514.4937,107.470375
-298.30045,274.42633,70.487724
-261.3248,72.88284,-159.23389
-125.191,304.16116,23.260487
-86.525246,-62.880802,-119.18557
38.144787,134.55756,-50.766933
176.39015,-160.67412,15.88096
321.96155,351.21423,242.67392
316.5893,-610.6233,-51.549786
141.45091,2941.5085,2376.519
408.44016,1672.8354,723.66815
-132.77847,-361.5186,335.9005
-706.5033,1492.4355,568.5793
-617.2085,584.5273,761.76654
-1233.1511,1216.4391,627.66327
-1007.37256,410.9641,417.61682
-1083.4421,848.91895,228.30212
-303.68164,-163.77794,-341.5183
-71.1653,-162.79047,-144.59155
-156.58081,-503.97238,-321.68414
-462.93036,40.398384,86.96037
-705.41095,216.44608,87.45832
-1806.2593,717.37476,716.41724
-2531.214,925.52954,647.9518
-1942.9121,1048.7529,340.09073
-1616.2668,501.99738,643.176
-1401.8457,1109.6196,814.6431
-1231.9866,512.4412,757.65906
-1417.6865,727.9704,806.1585
-1775.1251,432.01102,694.51306
-1589.6361,162.86595,240.54767
-1335.205,532.55005,393.48752
-1546.6915,702.4866,388.0901
-1484.3989,488.5643,154.38
-1210.2216,626.26117,-27.591574
-920.51965,486.62964,15.709853
-777.299,354.3721,188.06923
-454.69424,307.9441,98.66457
-406.9117,312.37677,99.88072
-152.75526,299.80466,55.64456
-113.85555,202.43466,85.54066
-1.1960644,181.98322,108.81783
67.42647,235.97032,99.26049
144.51076,220.56566,87.99248
-43.76652,199.60045,60.415104
167.39864,924.1104,1226.583
-14.404904,1987.1698,1484.1814
234.48792,386.67435,663.0122
-1081.0747,1285.8358,959.7327
-1742.8325,1320.2999,608.7337
-1496.7584,314.22214,-228.30301
-1123.9968,199.23184,203.79955
-556.97437,2129.9026,1419.5183
847.8792,674.9929,271.2015
850.68964,-74.40868,462.05356
56.442253,1813.7224,1162.2144
54.05351,615.1858,557.72186
-357.25455,100.45696,-94.51265
278.38147,-773.5828,-373.91367
-191.6754,1159.072,866.7188
259.93567,877.7681,493.33826
-262.69986,-157.81445,41.553005
-1273.5176,843.20935,254.30199
-1703.3107,1085.0763,476.57498
-2244.0166,1211.0452,617.905
-2588.5562,23.626291,383.6839
-1865.581,374.081,530.8296
-1590.1055,382.98257,942.4403
-1334.2009,659.63684,668.3547
-1147.6449,553.97205,356.8404
-1128.532,562.11597,332.03897
-832.9343,795.4162,173.89969
-762.32446,776.23645,90.47997
-536.8553,436.79358,-10.001891
-515.4516,626.84534,134.44662
-298.70874,190.25677,-86.97549
-195.5474,312.1439,17.451305
-54.899986,-26.614876,45.147987
33.4891,394.36826,91.899704
189.06244,-81.6137,124.2962
70.758354,203.845,-3.0586126
230.74693,-818.3369,-50.36958
-221.63043,3785.3347,1790.3324
202.93182,1391.8654,455.43622
-29.313507,100.863716,783.3967
-746.16943,1325.7584,572.798
-1182.5575,306.93103,351.80075
-1211.4894,1008.97656,225.36714
-679.1675,401.7158,437.58435
-647.09717,1250.2484,571.6035
-217.70833,223.5267,163.11038
-341.61758,1108.0374,393.97736
-244.13243,698.4295,125.282906
-140.64188,699.43304,261.92407
103.52509,1067.0393,560.46454
213.87106,636.6048,344.60876
402.99362,589.0647,366.7292
218.33737,840.5452,565.33704
98.286224,892.11224,570.7716
-48.76862,470.07968,309.63382
92.97231,417.09082,418.61618
-145.10146,748.3832,774.6155
-697.4563,1150.5881,892.2028
-2832.8906,1013.612,624.4036
-3467.3606,1286.3568,42.36784
-1931.2015,141.65599,82.97972
-1136.8375,1101.5037,740.1121
-1001.1679,900.6913,365.5797
-830.5833,527.5491,184.84125
-757.8319,340.4791,65.70388
-614.1915,555.72546,291.96057
-488.02188,192.6305,-62.96093
-272.3149,388.26636,240.26173
-185.27875,294.17484,-18.744637
46.944344,236.58192,79.70848
144.8672,-92.90932,-45.49222
349.96915,174.93338,174.70367
173.52452,-264.23727,-79.10639
346.4841,1092.0,889.3852
13.381101,2801.7656,1207.3463
-242.18196,-233.42499,295.86432
-477.6117,1139.1006,591.4425
-797.0826,487.86642,306.62845
-1223.0206,958.0648,837.9547
-885.819,802.0276,448.9858
-792.8271,812.8498,325.05588
-529.46735,281.46484,203.091
-432.5753,871.1028,450.38614
-186.33807,401.8786,163.37717
-346.6373,988.0757,627.897
-520.90576,825.896,235.94014
-549.79895,696.8713,348.694
-180.85698,475.9388,208.39395
-22.579939,645.6836,664.3114
-168.473,942.59283,595.3861
-258.50806,438.80228,602.3276
81.20071,387.26007,867.2764
87.80178,-367.41467,662.7537
-1576.027,-238.3364,230.58685
-4842.912,1203.273,403.73697
-2460.3066,37.3681,-44.178898
-1272.8528,1187.346,434.3105
-1189.0006,862.1426,635.4629
-899.4327,201.11938,127.21993
-996.2637,744.6428,110.138535
-936.6659,597.34845,116.59769
-644.7157,922.70245,147.466
-495.2403,390.91965,98.26426
-395.69675,451.11838,195.33449
-310.62756,357.23856,-151.18254
-315.9665,460.54358,122.32915
-128.95224,-28.612808,-12.236575
122.31418,336.81833,54.69503
-57.709255,-183.44514,-224.14856
26.1474,480.2328,660.71704
-362.4829,-278.5606,46.87777
-1136.9254,1152.6172,705.92395
-519.4667,3068.7002,874.3513
-918.7585,-1443.8185,-179.27783
-1958.5247,1151.4464,678.42706
-1569.4794,513.4332,101.85068
-1355.5155,674.4188,272.51672
-1060.482,252.85678,99.74135
-532.80255,600.8658,435.3876
-506.95996,276.62115,504.94507
-610.2315,547.6009,549.5947
-704.14374,294.74234,148.6199
-734.51624,602.4121,361.22156
-657.2321,237.935,324.17252
-737.0795,440.99225,418.34525
-866.27374,257.00964,219.9749
-1605.5663,617.7731,386.95297
-1498.9067,829.8184,188.96414
-1460.1608,1113.7664,664.83093
-1444.4576,874.73883,750.76337
-1414.2787,1427.1444,627.1913
-1450.5574,755.383,621.3795
-1356.0383,1106.8201,764.57336
-1184.1954,816.9038,325.23434
-857.94196,545.38214,342.18124
-623.28827,431.3537,280.6388
-554.75665,556.48126,111.9193
-401.36386,255.075,84.500885
-442.5735,537.64185,177.08661
-173.31367,-37.776894,-82.12984
-199.0577,369.84357,196.21382
-7.0617113,74.086494,12.97626
-77.293335,247.98553,122.82262
73.56815,-55.58111,-17.708845
-117.13682,283.3517,246.53206
17.29552,-57.73635,31.697557
-231.24973,3548.3118,1696.7461
-296.3075,1549.3328,659.7547
-260.32153,98.268425,308.92392
-968.99585,1112.5928,662.7206
-1184.1277,1009.8586,656.3382
-830.1758,284.88055,256.00415
-494.36026,947.00867,881.2893
-185.05952,1361.7809,784.17084
-477.05945,589.73914,483.16278
-139.36205,72.02472,97.27768
-59.331573,-133.66945,210.41515
-56.252045,245.74841,-66.52766
122.12983,-38.176033,15.648651
-299.73932,-58.334206,59.34946
-750.77985,678.4453,252.3033
-994.21594,871.48706,940.17096
-2236.6882,301.9303,682.33636
-3078.198,875.408,183.54742
-1393.1777,-429.9205,-52.115257
-1557.8698,893.91077,956.7869
-1577.427,1149.5789,1042.3535
-1314.9885,-381.3664,510.5477
-1330.6744,421.85397,309.61276
-1545.3757,354.87167,374.12848
-1483.044,552.6645,433.51224
-1154.9082,263.91376,131.07323
-1011.3715,509.856,75.62363
-876.79346,369.75262,62.98778
-664.9973,454.52045,22.850014
-553.2483,419.4991,-4.158189
-422.59674,343.50165,151.04826
-222.46982,213.45834,97.68803
-180.01659,271.83112,196.56578
-11.659928,196.25342,241.85866
-32.774582,226.3686,200.71536
239.86952,418.641,351.71918
211.22531,1145.9884,651.55634
203.50546,828.6737,473.10663
511.69055,774.9129,593.37244
-172.50047,338.21533,528.1823
-900.5481,1176.0288,918.67456
-1695.4888,957.1621,170.08496
-1907.2047,872.5455,214.40245
-1580.2646,558.48584,84.916245
-553.21906,575.3099,194.42032
509.21472,170.57693,736.91876
330.7454,492.2477,1025.7177
91.063736,559.7664,647.52747
-1028.3359,1962.4597,865.773
-623.40875,717.287,13.152343
-278.42548,-562.7428,-211.95422
-530.4824,69.14873,41.532276
-28.867395,-361.99588,47.827774
-842.6401,198.71376,452.43686
-1361.3738,243.8929,389.48657
-2829.5928,623.10864,719.3027
-2205.116,665.66614,464.34082
-1712.5386,1121.3778,611.06573
-1545.3275,833.63873,802.6317
-1122.3558,314.0212,443.4913
-1333.8331,589.2573,400.91016
-1477.1361,330.0851,127.04147
-1231.0104,387.24084,190.01279
-1074.0239,458.5777,29.016333
-1089.5391,483.4552,102.65473
-880.9915,345.21555,-65.906494
-770.22003,462.33963,180.78313
-514.4096,219.39645,38.135887
-386.09583,523.0656,106.8083
-268.1287,400.58054,91.30594
-130.88367,637.60815,289.49356
-22.633589,433.32703,146.03896
58.671635,661.1212,353.63092
225.01212,-92.5871,127.27377
509.23972,290.8824,518.55914
57.091682,1240.4117,877.17725
228.06738,1169.8458,886.56256
-337.36478,425.7939,209.20566
-1021.5157,820.06146,482.23355
-895.88513,199.76035,365.55432
-1041.0348,1007.33923,397.19272
-816.06195,1166.0593,447.1404
-233.44003,120.71634,465.60513
-812.837,805.8443,579.6597
-473.3316,-14.24109,82.03917
-489.51053,575.89124,508.58212
-367.76852,671.05164,529.53827
-723.79236,578.0023,453.0742
-534.04395,590.2697,150.5683
-615.299,448.11002,166.12296
-604.90894,812.0595,211.70892
-745.2175,427.9192,208.02109
-1267.7953,548.5826,250.01016
-1782.0474,706.4281,458.7338
-1488.4447,959.7055,394.3292
-1536.5948,894.30865,986.7539
-1487.3148,1277.4885,672.3798
-1552.5941,1140.8125,489.0111
-1561.1376,880.9911,446.12866
-1401.7051,944.8589,-28.306768
-1282.2776,992.8706,-263.23395
-1004.6055,378.74356,-58.05154
-710.3045,738.917,63.734562
-387.16724,265.9075,-197.83995
-346.94916,257.15115,102.3074
-150.20326,164.12494,-119.90753
-172.96634,443.01025,94.50605
5.9228206,-196.58275,-35.7081
28.709232,478.32092,126.393715
299.3044,-463.1421,-126.88594
3.286169,409.72214,156.10684
-53.730755,-1054.4226,-148.53117
-965.83765,4790.9604,1959.3005
-440.26263,1679.002,583.97217
-916.7853,-477.04837,489.3065
-1830.1854,2042.0527,396.7127
-1551.5269,-135.9256,203.03957
-1001.99084,1110.4071,457.97397
-65.16299,251.92104,898.6715
114.0202,1277.7253,1047.307
312.68106,320.2372,767.34515
218.81862,233.17111,695.2571
58.175785,361.2542,1042.9119
95.356514,808.93256,911.13007
-41.498936,823.8688,464.18765
-186.0626,437.2319,379.98294
-11.913622,435.53882,339.4733
-328.12234,787.744,298.286
-563.9353,517.2306,396.63177
-2051.808,845.57623,275.0945
-2244.386,1427.4146,-105.97598
-1982.6256,905.16675,571.09
-1564.3528,954.0531,619.15753
-1455.7664,1089.4172,470.51968
-1410.5687,697.4134,475.09293
-1268.098,1085.6741,302.6827
-1063.4935,818.9109,-10.11012
-838.1906,814.6245,116.45885
-519.1445,842.2305,-72.45894
-388.964,451.7141,-19.51277
-313.76285,295.83783,124.97313
-98.8843,233.29913,-4.1081166
-105.52821,159.3127,100.664635
38.763577,25.864798,56.04505
72.34623,176.43265,230.4575
243.9263,4.000183,37.272007
105.23949,375.96188,216.03857
-17.896626,-585.5885,0.8704825
-906.1035,1354.7147,1679.8328
-429.77512,4908.1733,1004.88794
-9.594784,-44.762615,496.62976
-1822.0099,1656.9866,849.9569
-1177.9294,-56.086357,-124.16572
-1369.9033,498.26196,389.778
-328.37344,322.6208,427.91522
54.202873,-481.57764,676.7028
-102.12616,-102.29014,632.96216
-175.77534,88.172356,475.60773
-333.47256,365.16238,245.37167
-839.6,551.5406,658.9872
-1111.7336,1025.8013,453.73618
-1248.7589,974.9974,308.95898
-1456.8567,986.5908,377.0537
-1067.5626,763.4192,200.37564
-945.15173,377.4468,118.58101
-1048.6669,799.3904,333.58292
-1123.2202,427.15173,309.6443
-1466.3171,582.59314,467.0418
-1452.8671,705.16016,247.136
-1604.5143,759.2237,600.7095
-1684.0713,703.4481,242.02718
-1553.6437,672.81366,265.0646
-1429.093,791.93524,6.483994
-1378.7184,515.59186,23.95975
-1049.5646,678.2629,-44.47225
-923.958,540.0579,-8.190081
-694.362,757.59015,8.109375
-510.08044,499.04242,-50.235813
-398.76102,574.62964,85.87842
-245.14699,169.04063,56.17986
-94.7135,365.09363,26.313957
-44.48395,175.88075,172.26465
196.7142,475.2978,26.127722
101.59222,172.57042,181.4091
52.759735,223.24107,-19.35604
-30.863909,-692.6873,303.6973
-62.76894,3784.9238,2065.8875
250.61215,1068.7639,328.65115
-94.6603,280.96085,656.51
-493.4817,1249.7966,514.99133
-660.86316,198.78322,565.4411
-822.74396,911.85706,408.68552
-567.3319,396.12863,324.56403
-369.98367,976.5161,451.1814
-267.15594,660.9746,359.6356
-221.31755,526.2932,312.38287
-325.0902,691.7644,411.07275
-301.58017,470.74152,186.12975
-273.4497,525.9225,322.84418
-569.8684,481.1165,322.76892
-817.46783,1094.7971,602.462
-406.3369,258.67154,311.1293
-224.4934,152.1618,245.61296
-405.9944,472.6314,390.21417
-753.51154,802.9734,633.7241
-1608.4149,598.9708,350.93933
-2870.4153,1390.8284,557.75055
-2154.7983,679.56256,-28.011446
-1586.553,1222.335,605.004
-1479.0927,753.0464,535.78937
-1557.1023,759.07886,321.7472
-1389.4012,611.26355,114.87505
-1135.7069,679.30646,10.285039
-889.3174,576.1769,118.40462
-622.9195,267.9138,27.160112
-380.03143,105.255714,-144.26059
-418.1193,322.3438,143.52794
-94.67749,17.021248,-81.031876
-25.79129,456.77847,62.612034
237.40138,-207.90369,36.169098
269.11475,295.67523,67.18583
424.24387,-1079.5383,-217.15543
50.74426,3500.0579,1713.1442
116.46723,1514.6785,630.87445
-119.54005,-36.380993,680.4141
-383.81784,1314.1157,455.59497
-912.4196,819.22595,645.60956
-1185.5171,1049.2194,105.31246
-973.48676,420.49908,102.922295
-336.08493,948.3139,464.5632
-23.61635,474.49084,883.91095
118.08801,1179.5249,830.2027
-626.1625,682.3594,841.2965
-699.3529,724.1081,75.22973
99.14449,-416.82254,-101.13904
361.52185,-684.21313,-151.15382
-103.86915,-958.62427,-165.68518
-756.45776,291.47314,-151.09485
-1429.0657,1040.8567,405.41565
-1969.8,1403.5349,958.5677
-2657.95,686.2222,390.6266
-2482.5889,564.3007,-47.114025
-1576.4336,556.3451,696.5736
-1607.303,1236.5444,1006.4587
-1221.5881,391.02518,576.5477
-1222.206,232.30031,391.17844
-1452.2438,267.76904,280.35977
-1439.128,573.86523,179.87968
-1313.9464,417.6797,82.32196
-1156.4519,460.68335,138.50168
-876.7879,456.40182,102.54005
-761.9665,639.3393,63.832687
-650.12305,212.91408,60.592503
-434.6689,490.26147,182.04633
-348.50415,404.11075,135.6795
-150.97447,270.47086,199.70226
43.36899,199.37144,118.67219
120.953964,208.50899,218.32785
81.208496,-241.46475,-95.452805
420.77002,295.37247,600.3709
283.50775,2159.307,1599.4592
225.4462,387.60638,385.4348
-1171.8073,1291.0908,898.7356
-1903.6989,1105.4847,6.495048
-1175.8435,151.74898,-130.99174
-861.84216,-486.27756,-290.49734
-974.7312,671.28,826.00806
-721.2312,2929.276,1162.5848
-314.9898,1671.8596,605.0558
-391.77515,460.7295,58.301685
227.99887,-986.2754,-44.79274
-217.85428,523.8009,279.99124
206.65424,-106.01474,-152.18602
-295.67615,380.47815,149.32784
-249.75291,175.26018,187.35445
-1839.1599,1093.7827,758.7612
-2771.2632,1003.087,634.8056
-1855.2535,838.25104,-322.1637
-1597.9623,-553.9342,581.7633
-2090.2402,1025.9432,1006.57733
-1627.5844,494.50372,600.4615
-1463.6104,-137.09158,404.92538
-1400.5082,195.35924,441.8171
-1532.1863,778.73566,218.13435
-1209.241,414.8005,258.44144
-1034.0243,992.41016,105.74032
-788.1534,480.47647,-75.95919
-837.541,785.1125,-45.106575
-519.94824,102.920746,-72.00883
-373.5296,269.23395,-34.9976
66.498634,-388.36935,-10.349801
97.77511,143.36308,100.58161
553.1382,-770.2157,-51.94797
273.9155,316.4804,185.41895
385.32483,-610.8659,-104.62386
-506.43842,3873.706,2274.0159
-22.963778,1699.1414,576.06647
-113.830444,-512.5549,560.01843
-1089.4819,2008.5234,1000.805
-1473.767,602.9197,426.68753
-1662.5273,1065.6587,426.82147
-779.47034,564.42566,158.30109
-130.50299,-193.08539,370.03214
-1.4144032,-388.62296,9.752703
-707.494,75.13929,451.9745
-752.39575,2521.8374,994.0772
-13.110372,755.1861,515.671
-385.69962,835.82117,349.92087
-302.53308,1242.0713,405.56174
346.09616,-377.93365,-62.755856
-385.60455,368.65063,212.961
-502.72382,685.05597,386.76703
-1720.355,803.988,746.729
-2419.89,1104.9575,137.1603
-2189.1484,532.9862,396.43396
-1675.1628,822.1794,755.4363
-1669.5824,1135.5675,816.0485
-1627.1942,742.52734,442.722
-1666.5658,617.52515,449.26392
-1496.4384,797.7917,316.80893
-1299.6609,935.28613,385.2654
-939.45294,397.78632,204.37883
-571.5281,554.7991,240.87856
-328.86316,325.63574,103.242714
-251.37311,222.0836,157.26398
-64.238655,54.494408,-70.03257
-115.716995,296.62427,172.89923
50.711,55.53636,-159.88089
109.01172,207.56825,117.713326
156.98344,43.94737,-270.2877
24.569605,194.77055,298.64276
-126.14484,-171.4038,-308.76663
-443.66562,996.135,1574.8533
-617.3424,4325.6064,2480.1233
-706.1348,-397.3283,50.94787
-1629.8993,1481.3832,968.7047
-841.2788,796.8135,41.947685
-449.5677,143.97578,506.1506
-94.65801,236.99663,127.22638
-210.56625,-72.73556,296.3466
-434.43015,183.26018,95.05704
-427.62924,277.4297,242.55751
-754.44824,376.77597,224.3144
-841.26764,302.0705,141.05296
-2017.052,1730.3069,602.30536
-1436.2964,1640.1086,718.70764
-1349.0872,-247.44423,4.0441008
-1466.3711,867.6699,130.56523
-1317.6971,737.94086,595.76587
-1459.1031,656.04095,857.00336
-1292.0558,706.1623,494.39978
-1760.5879,836.09235,776.51245
-1835.3523,677.87604,356.8203
-1784.0254,801.2279,328.08255
-1451.3606,556.5074,322.7609
-1379.5417,701.15204,380.92242
-1106.5231,249.13031,166.30463
-830.42035,396.42438,163.96648
-575.9515,504.45645,126.632515
-491.58173,562.38434,88.77919
-342.2387,272.38452,100.77439
-245.44939,433.0731,76.8593
-111.06508,242.5182,63.38926
-129.16747,386.6203,143.37944
65.34858,52.736122,70.12168
83.34234,410.01968,113.67823
332.49387,-195.95737,68.928246
115.667244,368.93256,238.72127
184.90985,-335.3497,362.86823
-443.82303,4616.3945,2788.0671
-381.222,622.55206,297.4342
-758.5802,-12.623606,623.34204
-971.5691,1896.8646,425.92175
-537.69257,196.38943,423.2163
-340.09497,1309.9319,702.6138
-118.90653,1324.9297,781.0042
35.499653,802.2346,144.819
508.9715,160.9956,198.86354
343.8784,-154.78134,173.64696
224.20808,-140.78914,-28.339794
93.7813,-13.628742,42.678112
-52.81699,4.417378,-12.379357
-273.47675,226.42647,-3.6269162
-771.967,423.33963,111.33559
-2046.2433,875.1092,475.55988
-3322.1824,1517.1497,780.73956
-2026.4021,-91.82844,-60.137638
-1575.8208,468.0986,589.567
-1894.5017,1539.8232,1135.9237
-1648.5216,394.4202,671.926
-1425.3315,227.49411,321.45248
-1471.1035,510.2578,416.70615
-1331.7075,659.76843,292.059
-1130.8491,447.70386,259.9144
-922.09283,578.357,64.83719
-829.5325,604.1052,169.57712
-600.3774,393.77084,29.439928
-459.10422,364.01254,170.73108
-287.80084,128.89578,67.96903
-148.61217,411.96793,94.34994
-84.5615,264.34866,114.6213
-19.082443,574.52,235.93732
222.24628,-72.96284,-19.772993
412.8337,-124.18158,169.59113
580.78625,-1032.0266,-150.95453
-50.945698,4229.426,1888.4247
213.99258,1488.9934,739.40204
-879.0431,-292.0639,841.70056
-1745.0554,2018.0929,441.35193
-1046.1069,-372.34515,-122.06315
-932.7947,1481.0134,691.7004
-221.75049,886.6413,467.55112
-23.748024,752.024,478.20767
280.07697,757.5683,457.06845
115.63087,1039.3015,643.55145
396.34903,327.36176,322.97906
250.09926,906.17194,631.6135
402.0747,711.9395,531.3811
392.633,455.25327,440.22186
411.77914,708.27466,569.66223
349.075,852.4377,420.9914
480.99646,223.79007,97.38934
227.54622,757.089,316.27057
285.15182,553.33875,407.68848
-310.88623,1353.9893,583.8136
-701.67505,763.4715,336.98712
-1431.158,1266.1244,378.22122
-2090.284,1589.2488,214.78307
-2117.2285,1174.9218,366.68073
-1635.4585,1476.9955,610.5434
-864.2631,745.72046,524.6468
-721.58856,662.3158,574.3666
-497.4841,457.7005,495.20193
-399.4918,244.75229,302.2626
-315.09152,399.31546,230.49794
-310.063,473.6207,46.75369
-64.34778,524.67645,35.314285
89.69871,294.308,-67.16124
156.36444,392.8359,131.26518
101.230064,-32.488506,-8.498133
476.75223,149.49649,567.00183
248.13016,1193.0027,1572.8116
-78.740265,1483.5092,886.9735
-754.45245,629.1278,472.5816
-1178.212,619.54333,166.18199
-1348.9155,759.3902,294.76624
-1163.7013,933.15234,606.43823
-676.77264,1195.1161,439.75134
-525.9783,641.9002,153.44707
-354.03925,612.08405,229.25552
-29.75819,292.1742,149.48685
123.14327,-139.3921,108.94625
-464.3784,13.423565,148.77469
-339.7944,-71.4777,56.18753
-769.8095,397.20212,277.72754
-894.5647,810.1754,475.12424
-1949.5886,1231.2515,1034.11
-2295.4768,720.7441,581.4284
-1667.5339,595.9627,-93.0942
-1647.0355,946.6157,711.1983
-1827.6923,690.5908,1018.1519
-1562.1903,611.86816,464.1618
-1560.3976,561.3209,244.67297
-1409.1003,318.46835,335.4345
-1346.7614,771.4655,330.22525
-1129.5887,531.03754,109.44764
-969.5905,457.57468,-57.02719
-721.8095,441.16504,69.6767
-584.07135,432.4086,57.74063
-363.5946,151.26051,47.82273
-266.2999,233.75636,-47.14296
-37.148304,134.09416,40.767788
-37.85336,342.2329,137.25237
227.40833,-5.0145664,26.917738
148.95651,356.36264,221.7152
383.0618,-248.38258,135.44427
-82.94079,2381.3596,2046.8511
84.55762,1582.9603,826.27844
38.62495,36.10033,563.7469
-768.134,1399.0658,773.8942
-837.2552,370.11374,699.644
-1075.0764,1148.0836,695.9067
-1464.5144,1029.0211,357.0295
-882.8852,319.87915,-240.61206
76.54709,-111.15389,-128.22705
107.835106,1416.0509,815.8621
765.7096,64.89322,361.61203
-34.759274,1618.2375,830.0626
-29.644009,2084.55,768.30035
-351.8088,431.2319,133.67543
-637.59564,-277.55536,-103.823494
-94.90354,521.506,360.59467
22.934948,897.736,459.34006
72.56432,1030.6147,337.39578
-188.47395,957.1394,261.73807
-283.76877,969.3546,393.77005
-1544.1024,1405.292,498.29443
-2446.7837,1960.317,475.06317
-1962.2965,1565.4395,531.3993
-1405.5101,1178.2562,696.16144
-1210.9113,940.91583,524.76
-1043.8887,697.45245,458.67105
-811.579,294.81528,181.16583
-560.23987,482.2698,169.1826
-455.53726,358.8332,33.022766
-310.18375,244.83722,133.4552
-174.48314,-47.02048,-33.42852
-54.37834,154.03838,64.459816
-4.718964,152.63892,-153.98375
151.42004,253.53088,274.93765
380.67615,-477.2062,-99.23016
468.83188,1084.7013,814.4048
327.337,2874.0583,1535.7395
479.09592,-158.91565,502.74533
-414.71344,1284.3882,861.6523
-1436.169,1056.5765,500.58524
-2116.453,1241.9667,244.57968
-1170.5425,382.16547,-146.58281
-551.7779,338.44922,174.79921
-108.68293,-327.4933,33.098877
-351.34735,53.005104,231.0612
-375.263,86.24662,11.645334
-795.13135,502.79968,284.3423
-1041.7668,610.54865,364.33313
-1715.7766,585.17706,622.7546
-2236.4155,889.1211,498.9042
-1558.0562,655.14984,97.45654
-1170.174,796.676,328.92264
-1088.2489,1182.4186,1075.0952
-1041.031,641.2703,770.6874
-1176.2361,645.7412,760.5109
-1411.531,251.35345,671.29987
-1810.7211,698.9445,720.5214
-1831.6534,358.44342,409.03064
-1710.7291,536.9187,401.14087
-1621.142,604.6807,354.14877
-1542.331,556.7047,205.26222
-1096.5652,317.34164,-2.2404115
-874.1598,662.24133,241.42606
-510.7434,215.39095,86.083466
-388.1701,246.36223,80.79342
-213.09421,-15.660239,-47.640198
-236.13705,430.26837,156.57819
-123.37674,62.291428,78.78213
-159.9512,360.96902,307.86322
111.029625,55.226124,82.67918
-87.91938,489.8273,309.35666
178.98987,-113.24566,-22.373674
-105.24303,2380.6006,1882.0408
176.4602,887.6833,589.3883
-511.45224,526.1211,916.7151
-1301.857,1492.2753,671.4495
-1096.9075,247.65004,32.577534
-1012.1255,545.60046,375.6569
-570.3469,1236.8934,939.9259
-224.0235,868.0228,718.8549
-162.27095,1505.6683,743.2776
-116.99269,530.134,232.90637
-49.479313,92.47902,5.4975314
-66.12971,1123.8285,486.94574
266.3691,584.1392,284.94925
89.08002,627.82745,297.53455
-87.98605,910.3199,461.12173
-7.627261,787.4342,314.90463
15.01222,436.3872,220.8881
-65.29929,680.9305,378.9416
-342.39948,696.0018,617.92316
-651.0017,271.1438,368.4481
-2764.0237,1188.9526,585.54376
-3324.87,1522.3965,402.44302
-2044.3312,296.09964,207.23253
-1405.3524,784.46497,798.62317
-1123.6992,909.06793,533.41876
-1100.876,628.8587,279.64725
-919.2562,491.2098,99.326256
-836.74945,673.0684,124.98928
-492.15277,549.98364,-36.216583
-546.75745,668.25385,195.9462
-333.22546,52.441425,32.20787
-152.6732,360.1725,-5.4998817
4.2447147,11.448366,139.25267
124.47722,275.97968,172.56769
352.28552,-412.45236,-62.411842
341.16144,74.40617,201.34155
493.36905,-1200.5142,-49.075195
81.90753,4152.663,1691.1084
223.21333,1767.5353,744.06415
-1176.9976,-180.41095,766.0567
-1897.4553,1411.3126,81.38057
-1287.4387,-170.70996,73.982056
-1004.13995,1477.8324,858.48566
-171.67677,428.92883,541.34784
-392.72928,1773.4291,990.64026
-17.580946,110.047035,222.65297
29.917744,307.673,452.76633
65.057205,912.1483,622.2464
164.2785,552.61395,445.11987
63.108196,922.54034,419.6435
-125.07925,936.11914,588.9456
-401.9136,178.51149,175.9272
-111.33748,497.28076,222.27881
192.90219,614.19763,519.60944
-164.13173,968.2707,519.60803
-79.28717,379.06845,181.60335
-467.13345,1045.5338,410.52762
-1007.55646,364.46353,174.72493
-3613.224,1529.2832,1015.22955
-3147.1152,180.32047,64.31854
-1585.0168,-42.437798,141.0962
-1302.3123,1066.0267,801.69
-1033.2338,709.09424,501.9143
-919.7183,349.12982,132.2441
-710.2947,355.09256,-58.026882
-620.7094,964.4644,-2.5344918
-565.4743,585.9068,-69.129684
-464.48355,-54.054226,-42.222134
-315.92975,670.95026,-24.540451
-99.39495,111.24685,-41.152744
-137.7207,507.20856,221.58092
20.678192,278.75186,62.687294
83.60285,385.54596,198.9194
391.42484,-347.40997,-28.805405
175.05556,1513.6179,1505.6255
-15.805623,2042.6592,1258.0012
183.55301,635.2765,743.1811
-574.8655,568.4711,435.86633
-1301.3289,782.565,461.7708
-1693.0656,632.2523,134.49522
-735.34076,-375.50574,-353.41293
-455.60812,-319.65372,-217.66937
-604.73724,-562.91876,-233.92445
-1009.3065,120.304596,26.92152
-1387.5157,458.58234,505.1462
-1375.6527,243.88351,472.47055
-1922.4758,319.72543,405.94006
-2028.6774,844.1665,464.72662
-1301.1597,729.4781,639.5014
-1084.4885,1000.7205,993.4083
-921.73456,613.6775,948.2516
-983.7829,654.8217,755.49854
-1049.7201,463.88846,712.4978
-1443.2078,761.3616,591.4031
-1544.7544,893.0358,378.27188
-1643.486,482.73193,226.89154
-1750.4845,848.1607,133.04053
-1543.4006,947.7122,24.214699
-1355.6238,439.73044,-152.73578
-1215.2532,835.57556,-99.54264
-954.14215,559.8611,-4.5854783
-677.7892,360.45883,27.755186
-580.1915,575.8673,45.607754
-358.91943,238.56227,33.711533
-175.3272,304.18362,99.3332
-283.09543,333.73856,6.840195
-141.49683,387.68765,89.82153
-20.83258,206.08704,-47.444893
-16.058058,208.6926,-9.628532
-176.72826,487.1161,62.153503
-338.0741,57.728863,182.27783
-708.28827,183.7554,-27.709211
-842.5183,-87.847664,424.00552
-1177.6077,4234.1416,1467.0107
-265.0546,1985.8013,66.352585
-1076.2352,-11.104572,525.03876
-1226.4434,838.3042,331.65524
-801.16455,-442.82843,162.07756
-688.1817,444.36215,296.78302
-437.73218,-85.93498,327.8938
-588.82117,291.822,383.03925
-543.944,403.37512,446.88983
-930.2732,480.44217,387.13412
-1202.5592,153.27937,188.57135
-1302.2297,621.3736,222.0738
-1040.1024,146.58223,185.55305
-1078.8868,697.94885,502.88788
-983.55585,752.5881,505.56143
-1073.3167,876.97925,519.35565
-1174.546,814.0138,466.58148
-1161.461,1009.79596,443.5796
-1302.6146,1273.5784,366.15433
-1549.6669,1170.3113,170.89294
-1375.3969,734.6931,132.5736
-1183.7675,1189.2394,109.5555
-1041.1982,621.78564,31.539772
-1025.9059,1052.1384,159.01166
-721.6094,531.8634,-44.32055
-624.93365,674.8991,120.86893
-323.19904,97.7954,-1.4060724
-225.59729,420.27005,116.66262
-152.48624,-44.010254,15.432477
-158.52505,439.0807,138.8252
81.1907,-219.12505,-19.548035
-146.63007,561.5722,217.2222
-61.819145,-648.7588,-93.61119
-519.4359,2723.7097,1168.3477
-600.59283,2915.9517,978.8723
-173.06506,-712.5073,205.98077
-746.89233,1750.0559,596.1301
-291.93326,410.13672,382.29205
-557.01733,1123.4092,733.4157
-206.1062,433.53094,615.98627
-526.431,884.9224,862.448
-338.76816,339.85074,468.40695
-33.995842,226.06355,443.07388
-11.531604,-97.65794,336.28528
8.738449,-63.19566,160.02136
-259.64188,-55.89238,35.35942
-583.1229,398.02405,172.2481
-1385.5907,695.8261,605.67535
-1990.8805,1454.2385,661.69464
-1310.548,336.83426,-157.81903
-1171.138,1.1651524,247.54053
-972.7422,846.50793,486.78656
-1063.6569,924.304,730.1634
-1099.4839,523.9249,623.97675
-1312.4813,637.9637,523.3567
-1670.8475,1009.9122,451.79266
-1850.2733,502.9937,517.5439
-1499.7108,762.00714,323.83157
-1356.1057,707.33624,189.81793
-1281.3953,642.25903,74.777504
-1022.5349,514.5848,-1.132828
-755.84485,492.50702,6.2654934
-586.2721,364.70532,44.341652
-421.55396,441.74594,125.92746
-388.01666,405.89423,148.97234
-238.79324,256.12943,49.163044
-229.15024,384.35312,222.48676
-157.85612,476.92972,192.91023
51.705193,654.00964,166.53883
6.652589,320.0602,223.79037
319.59702,439.57098,225.69151
105.67286,1262.5256,686.22626
-22.637554,619.4393,693.5595
-280.05212,1236.2921,453.69907
-481.83725,873.6235,356.45956
-889.50836,1020.3922,229.87495
-1249.1306,689.2284,179.8551
-1455.322,1046.7147,266.92444
-944.9036,349.6299,-77.030975
-244.41684,95.50953,200.15652
-240.97946,376.16873,818.48706
-161.03174,572.8043,836.2871
-588.65295,1021.9418,667.8794
-728.35486,889.89087,571.6956
-327.81274,-153.54286,296.47696
-423.60876,-161.79486,121.882355
-575.9581,-193.23033,210.72656
-898.75885,363.27588,390.08548
-1508.3373,436.77066,644.6337
-2405.629,197.32611,326.01807
-1709.9001,625.9358,-156.4858
-1505.3468,1102.806,735.2794
-1627.198,743.7023,975.9751
-1214.9065,442.8412,297.26343
-1286.5637,389.02026,188.40504
-1347.15,145.88853,264.44705
-1511.5946,575.12787,238.20532
-1339.071,508.71576,83.18182
-1143.204,400.94177,120.34177
-925.6188,268.76712,122.9895
-707.6946,321.6935,59.247154
-430.22128,176.9019,40.328064
-195.84625,173.01462,200.37654
-158.50514,223.17001,179.36821
-56.366898,208.77979,138.72179
-183.56248,428.98218,424.4513
-271.18872,886.9263,329.254
188.22711,619.88904,134.76352
333.9993,79.273926,505.9743
365.54974,1100.4052,1024.9739
350.66867,1157.5364,1021.9428
-433.66708,171.25076,538.7565
-1047.6976,611.2075,399.50275
-1160.545,711.0478,515.2913
-1220.4712,1077.3076,500.0645
-1393.9902,1152.7833,353.7976
-1301.4761,264.5506,-210.77626
-175.26805,-324.3287,-441.21127
688.7866,-1182.2007,-119.924515
-402.96335,-313.7327,82.22131
-1345.7498,617.88403,336.254
-1985.7955,1082.7921,805.59186
-2124.3347,1034.1938,554.84174
-1356.4822,466.7504,-1.242797
-1253.7902,708.6,700.30133
-1207.6901,952.361,921.7253
-1167.0177,382.58405,796.8435
-1423.2079,587.8749,574.65094
-1943.8491,621.20636,568.98425
-1719.4457,399.06726,376.3942
-1551.45,525.0704,309.12552
-1443.5659,718.48834,272.41928
-1276.2943,216.2694,-43.021744
-1074.9114,386.45505,-80.11989
-859.041,439.94775,-95.81228
-581.925,384.12512,-51.17319
-576.12775,289.63882,117.58027
-438.2881,265.77307,44.753376
-315.38028,489.50568,167.81305
-197.66165,285.39453,108.831894
-1.3582568,340.02634,158.5761
76.98596,204.11784,82.037926
61.372383,130.12523,237.81848
3.999968,358.6867,297.70178
-227.87672,1168.3622,905.5508
164.10504,1188.9365,816.966
-466.1174,543.30255,752.7719
-1064.0188,1005.51184,600.70935
-1795.003,1294.3641,497.5664
-2060.433,1079.935,-52.685497
-1020.83417,88.28135,-630.343
643.8118,-820.762,-212.66125
622.743,-1309.6252,135.80559
-1084.6693,659.18463,305.52112
-2246.4546,684.794,581.347
-2791.4197,926.008,266.76987
-1147.3331,914.3013,-171.37122
-1046.9347,821.28345,605.7999
-902.28156,586.8109,642.9517
-923.5399,422.71524,465.05533
-1078.5609,368.91852,407.26422
-1287.3422,286.11844,452.76465
-1422.7509,425.0957,445.8018
-1658.1687,532.1955,505.81345
-1813.9944,433.35663,489.72983
-1782.0072,682.8394,516.20465
-1635.483,285.6204,238.167
-1510.1752,424.81308,202.66226
-1149.1024,349.74878,51.23438
-805.6192,528.40515,145.9974
-654.62274,460.6366,73.21418
-552.2242,393.92676,94.69659
-477.92725,413.14883,89.05946
-454.8474,385.87976,223.83817
-128.144,133.50653,-47.805325
-119.79763,401.2667,143.34102
137.3405,-61.193867,60.736996
139.82448,122.16531,247.77254
218.03952,-333.7332,-194.16805
329.3335,1334.5264,1421.0779
147.29037,3072.8105,1586.6652
317.29984,-108.27256,254.32944
-1026.2681,1462.2944,636.7209
-1644.0105,1017.0189,183.61053
-1908.9246,649.89374,117.75936
-1028.7156,1000.9046,457.3294
-182.69646,736.5889,712.92554
422.1461,367.31488,531.0314
287.0929,265.19165,683.41034
-48.396313,1153.407,748.9747
-106.22978,612.526,748.30597
25.602722,350.3232,333.68393
-84.78777,586.4106,315.57394
-185.14166,601.1526,457.3507
-425.25177,860.37646,539.1307
-325.59683,550.3062,313.4265
-275.52167,401.3933,457.13815
-429.67267,906.40283,456.60013
-1045.2494,811.6529,378.0353
-2522.9102,1458.5475,129.98305
-2813.841,1617.6195,452.43433
-1754.2513,628.01715,488.41995
-1345.3104,1138.0481,838.2034
-1423.7815,812.8519,540.48065
-1192.8425,293.09,282.81158
-911.57825,618.2954,143.1236
-674.96063,496.67963,101.773926
-572.00586,431.26797,55.797024
-386.458,3.93958,-8.959592
-222.31201,70.37398,-139.1068
-64.08184,-21.978724,-85.42325
12.145388,281.06763,10.984919
254.19955,-81.22295,43.88741
284.747,219.13333,-23.322187
311.64288,-310.47702,243.38239
47.026146,3108.682,2219.4216
306.29294,730.0649,444.6612
-126.3804,544.3912,821.2228
-1232.8098,1869.5096,622.41626
-1623.3833,-57.017143,7.164784
-1272.2969,510.98557,27.549732
-715.72064,-592.2241,94.361786
-821.5103,1995.4382,1096.6316
-91.33136,1478.993,653.73486
-117.896225,924.3027,659.1251
-755.5572,2038.039,653.5555
29.15412,-625.9868,-241.25223
-209.05687,300.08368,33.625168
-191.76105,213.8374,103.24492
-56.408848,101.87879,40.678795
-342.9141,361.15503,137.35175
-451.02698,412.52765,326.29016
-1737.7684,797.8163,645.3498
-2335.5403,1435.4169,766.91547
-1867.9535,415.52652,227.2441
-1828.6329,1071.1627,1011.0832
-1695.9958,760.7302,875.9523
-1411.5419,533.15955,544.07904
-1345.6979,392.24933,397.87335
-1413.981,534.42303,278.38898
-1256.7322,588.90814,68.95682
-1078.754,650.1175,42.376225
-831.2456,367.17053,-90.66935
-602.88306,494.22208,64.57735
-481.08038,298.18985,38.34184
-329.28943,321.54895,55.043465
-93.13925,54.88795,3.1588717
-67.42736,328.25943,308.57733
133.2465,-3.3148353,-16.234184
105.07318,363.39728,462.13687
151.25294,-134.68129,-101.375885
-52.54818,1264.4282,1459.1029
-284.83636,3241.833,1861.4194
248.84094,-52.85476,328.5551
-544.1835,1114.6129,1038.5758
-943.4365,800.6316,243.80884
-1311.9802,944.0904,410.92465
-723.8933,853.12646,243.88397
-365.88235,894.6303,585.2669
112.26164,621.9014,488.61557
190.65012,828.07404,800.464
206.81104,1036.4135,545.37537
269.31766,251.45862,251.9903
191.33899,800.95734,476.73138
221.31046,793.1178,615.91534
267.6619,579.1334,292.2186
317.49783,627.5689,433.88583
290.3597,819.0208,312.73404
279.45847,465.3433,378.3528
67.51467,851.3715,223.35785
32.068115,621.1609,198.52391
-178.38669,1147.1101,338.07037
-600.8971,823.2856,493.6448
-2137.2292,1832.2129,330.26443
-2427.3523,2488.5037,597.4545
-1618.9291,1358.8375,815.8724
-1046.2957,1170.5197,695.1421
-871.18536,1151.3854,659.86053
-707.83496,439.19293,454.6449
-541.5923,576.9869,326.475
-368.35373,255.32617,239.44069
-275.94098,401.5782,172.39674
-87.50378,-78.03146,-88.49981
-35.663887,342.7982,97.95587
85.034874,16.47127,10.3421135
136.31664,506.6704,151.84834
284.26547,-233.26906,-78.552124
39.684185,660.2646,184.51183
73.81839,-1414.3783,-265.94806
-145.76012,3220.6199,1772.7233
-97.27063,3549.3071,988.757
-532.657,-1039.1968,386.17096
-1209.9946,2231.597,636.7907
-1043.7454,-167.71912,13.179824
-890.88727,920.275,459.645
-154.74637,-312.51157,86.60195
-250.32567,-96.90689,128.93353
-373.85077,-14.130543,-51.170994
-603.9199,451.37274,315.10843
-919.4298,478.03812,301.87338
-1287.4186,825.1937,479.20038
-1262.9639,713.3973,188.662
-1356.8138,827.3468,273.2742
-1318.7479,90.68813,135.12689
-1383.095,661.4472,562.4354
-1160.6859,765.7594,506.7897
-1238.4104,776.78827,846.5657
-1410.9312,469.56464,596.7236
-1562.07,863.9642,645.1199
-1691.1318,479.22012,501.81985
-1549.3368,951.6506,464.79187
-1441.3134,829.359,345.30453
-1558.3022,622.71423,159.1745
-1308.7444,447.4325,-58.835358
-994.2901,541.1577,125.030014
-705.2079,429.8502,125.67688
-590.2433,231.13945,202.49384
-350.9832,177.0999,-20.26109
-397.9541,311.72354,164.95363
-251.64932,409.60382,62.047592
-256.67856,432.69318,199.82596
32.088818,190.39587,23.070978
66.4528,430.12735,135.23767
163.52943,287.4341,-45.81685
292.47702,-217.66751,33.626564
135.38481,2842.946,1244.89
318.7687,728.7714,1182.719
680.96326,93.756035,1032.3665
-1085.5615,2014.3529,1076.4285
-2100.1475,1021.12787,73.000015
-1170.484,1125.3184,-260.03152
-103.1449,-184.66946,35.562744
48.48974,-415.9399,0.7584669
-161.4307,-307.1035,-4.9150257
-596.7244,488.93234,129.38228
-711.90753,479.6553,126.8468
-1152.9576,1149.9513,269.8979
-1339.0441,1577.4163,356.4942
-1055.7776,1033.3057,277.06186
-971.14056,785.1482,344.90298
-877.1109,871.43744,465.24536
-1117.0643,825.3025,549.5882
-1247.0045,731.72723,615.2579
-1382.5227,694.5111,678.6065
-1388.6241,777.8622,654.3947
-1313.2742,689.70105,522.8648
-1640.797,955.7968,670.5687
-1667.4143,762.50287,337.67056
-1491.4805,782.84546,387.73087
-1423.84,643.9497,285.37164
-1167.8887,666.0166,169.08876
-762.8438,379.3732,51.775948
-545.5663,354.40005,163.61171
-384.65598,179.80708,-99.52082
-186.65356,245.77222,171.93233
-96.03033,97.15889,-14.120978
-92.05489,382.85663,212.09372
-40.73106,73.932304,-50.2323
72.03214,384.42328,265.5431
231.949,-443.57758,-256.59485
113.745895,1193.4883,1345.7987
41.10545,3084.3918,1393.2417
532.5285,-751.26917,386.16055
-765.4209,1706.1614,912.37683
-1022.76227,507.96298,0.7120456
-1242.3785,1404.888,762.0374
-1063.493,1054.9551,371.2445
-711.1642,1017.26746,562.9215
-370.4125,930.5754,380.3922
98.11462,410.5904,393.42035
167.70622,651.40814,599.95856
229.5707,732.0976,682.7969
68.361534,1159.3358,495.76837
101.02803,384.5323,237.95062
17.397358,592.747,271.52008
-97.01806,674.4239,403.96283
-52.08428,382.15857,151.16391
-112.2898,787.1388,260.5543
-153.4786,733.62823,179.6084
-168.71713,580.19006,197.68861
-574.9128,1006.7317,355.93604
-1760.9816,1200.7838,457.35367
-2544.6458,2126.3906,394.5924
-2141.522,1447.4783,577.73596
-1434.9357,926.33026,831.57367
-1266.5521,1119.4435,918.8141
-1321.258,586.3259,426.90973
-1127.0358,514.2118,199.47136
-946.116,726.84326,174.04161
-664.8182,433.0726,45.33697
-571.173,304.93994,-72.75632
-332.95615,-5.1614532,-19.058796
-119.60475,-116.42045,-78.68807
23.794744,2.043309,-37.120945
-7.8164473,185.70676,142.15631
237.59679,145.47968,169.90364
229.08206,516.4597,309.66208
440.07822,-150.82396,267.6191
242.64368,2841.6772,1644.7562
463.92444,1391.6438,779.8063
411.98093,-3.0251057,709.53784
-762.9612,1888.1027,1020.6676
-1539.3933,964.8446,267.93204
-1482.7296,949.37396,-8.048043
-674.9212,650.881,238.86499
-223.44702,433.23215,235.78708
192.61923,-201.07368,131.70215
-85.165276,3.0771935,203.09244
-171.7419,39.69927,169.53691
-712.80255,410.55103,351.22104
-797.1526,747.5304,261.02838
-921.44,1030.2937,470.31372
-1153.8302,784.77057,508.53366
-1271.0345,873.91974,440.7447
-1391.0822,688.3498,535.54376
-1342.5459,800.7809,759.21405
-1298.4052,695.40393,689.28613
-1416.7374,724.89484,657.7788
-1550.893,572.9796,616.52313
-1824.2762,806.5177,480.8241
-1680.2322,544.6221,205.60692
-1496.1495,645.50854,439.9605
-1454.269,508.24124,302.3124
-1323.7863,510.18134,225.5235
-1026.1478,376.19238,127.32018
-838.58636,566.69574,208.51321
-544.0219,307.2956,211.65382
-451.3045,373.74454,260.47238
-276.9335,134.1553,78.12
-247.77786,346.196,177.62634
-69.48118,130.64886,78.11173
-1.6765825,324.51105,155.99562
192.83243,46.793835,2.5997653
184.18361,388.3605,277.9579
424.4626,-398.98462,-246.00119
284.1621,2092.2837,1664.3441
593.58167,1835.3821,1181.9586
428.4506,40.348083,470.83994
-1096.2324,1582.1012,800.2662
-1581.8856,704.7422,174.12183
-1793.9081,815.457,74.010765
-759.0348,-32.21999,-29.24428
-470.26782,1703.5452,956.6818
626.9651,272.50165,454.94122
87.582405,594.3617,946.2651
-405.06448,1775.497,912.95013
-188.97147,47.71638,286.10492
-741.3708,403.01056,186.35854
-488.7116,625.8251,232.49089
-92.760475,586.0986,256.9358
25.59455,770.2348,433.7263
-175.30421,750.9177,318.82584
-212.77597,352.27676,161.95557
-444.87112,891.31995,287.4552
-413.92865,934.55884,406.15494
-1243.7314,1062.9666,942.1518
-2668.7217,1667.0352,460.45657
-2809.7026,1535.7837,255.39636
-1631.3433,806.37854,806.09576
-1646.5017,1224.71,895.2062
-1436.6112,140.16818,248.91711
-947.7493,914.1992,-2.6589105
-649.69904,439.85107,16.29676
-503.3774,424.9157,47.21467
-253.2031,-174.03415,-157.78423
-243.66052,122.48054,-94.696945
23.771448,-216.48798,-103.73427
58.69555,24.696646,-44.895954
254.60747,-279.32294,-14.5576105
190.61215,108.67929,137.07297
410.13596,-378.12036,-62.065132
171.72392,3725.1128,1744.0621
403.66357,581.3025,527.8594
-89.934395,190.22379,403.49194
-532.3503,1140.2006,579.47046
-1326.89,778.6676,633.1838
-1812.1387,881.6247,274.04004
-1290.5814,416.6475,305.81464
-1339.2975,1076.7302,555.3721
-695.2767,535.6664,372.9536
-121.44164,465.03983,304.4867
43.512024,518.2409,653.46106
-166.50545,853.701,707.9801
-51.937603,722.8084,433.3023
-300.42227,686.348,271.89453
-139.34138,671.2046,300.57034
-306.50607,636.99896,336.46637
-260.63638,713.33887,467.25226
-420.8576,582.6767,504.46503
-407.27365,820.55707,488.6728
-960.69934,662.6364,402.42435
-2065.3767,1330.871,283.98376
-2129.2612,918.7387,398.79047
-1825.2302,1195.1962,674.0903
-1443.7625,1047.1619,565.9919
-1438.1697,920.98004,517.9386
-1312.8319,481.64038,225.34575
-1231.6873,827.9874,99.05149
-973.3526,443.27676,26.370615
-774.46277,574.1131,114.52473
-514.84686,152.0273,-99.5351
-580.2608,440.9428,69.13011
-259.28976,-63.41713,-41.622925
-87.77572,502.9159,127.27727
31.963293,145.74583,4.369794
121.190636,565.33856,304.86856
332.09708,-17.622734,116.70449
291.05466,537.0097,430.2417
541.1192,-883.1182,2.1403434
-43.465923,2432.0613,1440.011
148.27797,2923.356,1295.1791
-405.62903,-1014.2061,268.2096
-1486.5791,1781.4358,761.2258
-1059.6735,127.37539,235.99008
-1186.0212,1074.5558,812.96954
-797.37335,575.1716,518.57745
-344.51422,359.1923,460.49637
101.262695,-159.16838,369.08273
107.45837,-182.5251,202.31656
-33.013992,-133.979,-66.28125
-350.8286,313.48566,536.3029
-1000.43335,641.68225,677.09467
-1102.2296,1119.9283,481.68433
-1231.5461,973.5644,431.45486
-1453.9342,704.5037,594.13525
-1195.3567,425.35764,404.48383
-1319.2795,882.8284,579.67316
-1226.6633,618.4724,519.9959
-1424.6631,840.54596,583.6068
-1517.7733,796.84686,526.6485
-1710.1669,564.9549,484.36392
-1585.7571,718.0334,217.93329
-1578.7151,683.2181,306.08167
-1348.9935,495.72003,118.06837
-1112.492,572.1975,74.133644
-841.0261,424.69183,-18.443144
-565.50476,334.02927,14.671673
-440.25018,386.30768,-33.008743
-422.8436,430.89096,107.40559
-233.87836,610.4244,2.9335155
-148.31361,334.22736,146.02078
-117.323975,588.63855,58.34985
77.85424,490.9194,251.89992
177.66853,489.96472,140.08577
146.21758,232.12172,417.75745
185.63316,108.392075,72.98222
91.365326,379.34995,775.21423
-199.1906,4009.597,1758.718
-80.84029,-388.42947,255.04765
-959.7254,1269.5813,682.45984
-963.0557,819.61475,261.9835
-928.61273,425.22324,578.47
-465.88144,608.75165,570.2962
-149.42711,760.1361,737.3231
-52.245163,765.87134,582.711
-32.05895,386.54816,581.2886
-162.21759,540.0065,375.2052
-80.77666,694.9445,539.2834
6.92153,883.9346,386.3724
81.44601,622.62494,316.31943
-180.61288,710.9977,285.60843
-111.90355,604.6863,231.97354
-265.51712,701.9369,114.06041
-594.7194,725.9313,32.962082
-1152.3912,1037.425,197.94415
-1660.6436,1598.7135,435.81195
-1549.1816,921.1354,239.60948
-1522.6589,1398.2012,628.13275
-1315.9523,1098.6589,783.47815
-1246.2765,1092.8689,806.8609
-1308.7894,979.53894,406.30927
-1213.9885,1007.16724,168.62076
-1091.2499,665.5081,-0.15030926
-877.1135,775.0102,154.10905
-560.4997,332.4743,-93.91522
-473.41867,519.5979,150.09697
-183.17363,-39.40947,10.239591
-155.48662,444.28638,145.37495
-51.39157,-4.791467,-9.537988
52.815655,533.61865,204.18935
274.7598,-6.586166,68.265114
262.67566,557.7492,308.46722
329.89337,-1065.6514,-288.63727
-268.22708,2948.2524,1570.529
-126.28504,2339.051,639.0622
-500.58636,-485.91006,630.527
-841.09735,2034.025,937.8919
-611.3973,-364.44492,382.21585
-846.31287,702.4481,648.97205
-520.0164,165.08516,493.74606
-435.9868,757.3599,598.1712
-420.49905,715.56854,538.5504
-311.4423,596.1146,499.46188
-272.10474,446.31662,408.09854
-255.12671,814.9514,248.44151
-404.40857,785.9995,58.99819
-645.604,812.94586,155.8572
-642.48444,543.40515,185.87454
-715.97644,615.668,110.976135
-950.6799,508.60992,213.38995
-1342.9487,1228.3275,161.21703
-1389.4198,847.58356,122.61219
-1384.2948,815.9785,580.0908
-1354.5125,1292.3368,680.7952
-1465.4073,1272.9639,567.5419
-1767.8772,1207.2726,545.82404
-1464.3163,1062.0233,370.22443
-1254.6324,952.8874,394.83044
-920.4049,685.66174,168.57385
-803.8283,644.5187,170.27817
-536.88904,552.5596,172.57399
-419.4593,570.21075,147.33344
-162.89432,140.89383,67.31926
-20.307865,237.95442,186.11026
278.07108,-330.5465,-98.693245
129.62007,68.88232,62.92243
508.8978,-604.9553,-174.23694
244.11732,170.23183,118.21952
433.387,-1091.4543,-474.30594
-1199.5691,3412.5168,2321.739
-1157.0261,3182.3386,1093.3861
-1287.5531,-1244.7665,-197.08589
-1799.149,1847.1055,427.81326
-485.03906,199.74709,340.68906
-817.59674,1669.8265,1166.0818
-392.8714,806.57275,539.3325
-541.7438,595.5691,661.13104
-408.56775,531.6142,560.40735
-86.32289,454.29214,595.39557
314.62805,143.99712,523.75336
66.8475,698.89105,528.15784
-284.6984,1170.3186,634.43036
-368.9882,977.1453,602.62256
-314.39795,161.06854,140.98796
-609.41595,352.42624,190.52325
-524.46875,440.17023,334.26233
-567.0113,810.4357,508.20822
-368.48853,487.1721,283.08987
-673.92487,694.8732,563.8114
-1389.6575,564.5981,389.87903
-1994.9674,1357.9453,525.3884
-2160.1135,1190.2577,330.57175
-1683.5674,690.753,536.3754
-1384.1669,679.95593,642.8275
-1481.7949,765.7042,315.3589
-1361.6044,603.21454,140.63374
-1074.5304,581.5939,151.8988
-897.5645,682.8283,121.00088
-780.45935,488.7922,150.70584
-557.0738,428.0422,99.99524
-328.93652,241.16711,31.09698
-217.5665,306.74475,12.666688
-90.39862,12.269356,97.17919
117.5723,266.8718,116.792915
251.67853,-81.32934,80.9018
447.5002,-41.864037,-66.0608
514.5978,-1012.8069,-307.5987
87.75785,2678.3345,1994.4337
90.48749,1820.5929,997.0022
-1313.8304,141.82838,732.7587
-1899.4327,1914.2277,680.8645
-1561.8369,233.58463,113.83952
-1247.3184,1535.0377,588.1304
-436.45712,995.76373,550.89343
161.04025,311.76135,499.8469
549.5748,-455.3273,146.41212
-98.36777,240.81789,294.8849
-84.223404,96.53871,19.729311
-346.5534,393.93448,38.851936
-481.833,418.70926,176.02536
-1104.6575,1102.1646,537.0965
-1037.415,1043.2992,495.2335
-1408.3326,923.04346,528.76556
-1599.2216,651.9848,271.8016
-1625.6725,437.69705,507.89413
-1498.548,476.95197,578.3686
-1459.0732,813.72284,640.2161
-1520.9668,843.2262,678.1224
-1794.2078,569.98926,739.1078
-1614.6912,493.21826,223.40523
-1490.0264,764.5767,412.55914
-1448.9734,565.4226,443.7405
-1379.5094,658.67834,251.75067
-1066.3401,719.5044,183.61688
-836.7945,509.6352,315.29666
-455.67947,300.77838,162.90778
-228.17998,258.3018,168.76799
-15.647824,152.91861,86.45344
57.081947,117.58333,119.392
17.092607,158.74551,117.98273
117.565605,-77.30374,79.918755
93.49605,220.72487,-11.049488
312.87054,-373.68356,-220.83496
-48.450542,26.388771,-141.49828
-403.24683,-256.66223,212.33142
-1228.5485,5031.441,2863.1597
-1224.2738,889.42584,479.4918
-817.96014,-290.93814,345.51334
-903.385,2366.281,707.60767
-48.481674,-109.3419,227.15604
-98.88612,1387.6327,923.3229
11.590244,1383.0563,1026.1697
-188.73218,777.9396,422.92905
165.0783,186.27693,201.38475
-70.1753,194.12762,206.29724
271.17392,-438.4774,-256.66183
126.65793,-115.864525,-16.077738
138.17152,-395.7802,-318.45624
-490.91046,375.83054,31.610615
-1081.1522,639.89923,484.42935
-2953.0283,1005.8493,1182.2804
-2808.887,1263.6705,-289.03207
-1275.1108,-77.27217,-161.71025
-1615.855,508.3999,788.0683
-1741.9479,1223.7333,984.0954
-1845.5903,-480.1546,594.62976
-1488.3165,37.488846,442.19553
-1322.6659,-2.0982041,341.5396
-1510.2281,636.1633,529.92804
-1247.2853,177.65024,177.60117
-1013.0958,620.15564,67.70785
-915.9966,229.4785,-82.1785
-805.8007,695.7123,106.37562
-545.27936,580.58466,199.97072
-650.7435,772.4137,261.9919
-285.44217,119.4664,8.732173
-420.04877,614.5665,254.85707
36.771076,139.34818,-128.3849
-18.513353,232.36172,163.2786
280.60297,-147.4099,-196.643
7.2569327,103.32256,-54.113506
132.99193,-1179.7164,-703.4289
-780.692,463.44522,1871.0375
-901.87726,4645.924,602.8184
-598.9403,754.59235,380.99094
-1245.5354,-66.21684,773.5493
-1262.5742,1252.3867,286.38922
-1256.9845,277.54523,470.09088
-911.3276,537.9489,-13.653053
-411.31543,724.08734,361.67645
63.183086,672.89154,376.8905
-101.16279,600.76184,455.73987
-319.94147,890.3443,321.50372
-350.8899,399.06686,386.55444
-640.3495,470.52155,200.602
-397.0399,327.5793,247.44843
-530.2363,728.35486,402.94232
-411.20703,505.2063,398.89502
-578.5152,792.2476,288.71112
-836.3455,596.93335,591.66046
-1383.3127,506.72626,361.65115
-2347.118,969.40314,556.54034
-2404.0022,630.2594,780.0198
-1751.8059,665.6068,797.79297
-1581.8167,974.84674,849.46924
-1661.9008,543.0131,632.31006
-1426.9518,550.03674,267.27945
-1066.8237,411.14777,309.91956
-793.3634,539.7501,157.81818
-621.8484,312.8866,61.72715
-461.3622,295.44278,24.931282
-201.64928,-26.623255,-39.5995
-42.757275,145.05138,-86.54948
53.56621,73.46034,35.28169
190.8926,7.2597756,-148.47537
428.65002,-139.65079,29.332464
157.77225,10.064411,-178.77191
-19.748245,100.32938,613.12787
-744.0657,3038.4417,1969.8712
-1133.8319,1574.7888,420.7841
-1069.4656,305.33984,565.8273
-963.12286,1122.6439,545.15106
-886.4024,875.2283,831.13104
-543.3676,769.87305,619.11755
-465.04584,914.6983,827.0339
-186.52971,404.00906,373.53143
-108.831116,213.77866,516.5059
2.8461702,286.2271,192.29208
210.21173,-65.46298,137.4785
-36.10873,-98.69094,59.61029
-236.57135,168.09442,50.527702
-758.89996,112.56377,220.05107
-2079.5435,469.95944,566.819
-2581.7922,1317.9438,357.0201
-1439.865,298.53302,-111.62419
-1414.6698,294.42044,561.886
-1301.7477,946.24677,807.8345
-1336.73,565.5342,616.97363
-1650.2056,227.10864,691.2022
-1889.331,134.43924,370.3259
-1396.7155,266.9838,413.27222
-1399.3674,489.79126,662.366
-1627.1031,680.33655,381.38345
-1565.2148,313.73428,57.042847
-1150.6903,527.799,146.85538
-846.5348,563.54266,269.78226
-541.5571,437.57013,176.50078
-314.40005,171.33488,28.984102
-64.99818,124.79063,67.097084
39.926907,43.90363,21.835253
79.3285,146.83286,45.559956
156.06932,-42.16738,82.650444
270.29398,208.53395,-2.8312056
407.14728,-185.11906,-197.12717
281.5608,1687.0685,1536.074
523.427,1840.97,1333.1853
592.3235,97.69305,934.5541
-1217.2096,1098.9525,833.8636
-2378.6648,895.77325,512.11755
-2104.3528,829.2462,217.2722
-1194.0542,583.7038,349.3632
-438.51114,151.02315,174.29909
-281.9647,26.108053,397.1108
-392.5682,2789.7227,1392.3641
312.3266,1001.9672,667.18274
17.977692,727.86224,462.89325
-267.2433,1251.6804,553.2083
-321.39444,853.9019,446.55276
57.314117,-368.57605,98.78664
-371.7736,20.070797,353.68942
-278.12857,286.56107,264.11734
-272.47476,112.272,334.60336
-346.47726,283.29327,377.13464
-1087.2871,501.12112,398.1871
-2332.2136,1029.8055,682.09326
-2146.8064,953.4409,479.41052
-2079.2578,808.1064,373.6813
-1716.4855,312.44278,481.69916
-1444.6422,697.21936,476.43997
-1453.1237,583.27185,471.2359
-1503.1412,366.06873,292.8244
-1179.1588,420.0362,151.35353
-1064.6625,756.7115,194.69742
-892.48645,252.72658,206.50778
-729.8244,445.85864,122.88375
-602.4558,287.35367,104.82041
-444.09073,220.93329,32.246258
-217.64471,223.41469,-44.47688
-176.0748,171.79666,130.06099
166.40692,102.635185,111.443146
160.15585,372.38608,144.00316
613.13605,-183.8978,-113.40704
457.23856,1188.6493,1268.1534
403.13544,1244.4879,1085.8171
361.39694,389.79816,547.98773
-507.67218,787.573,575.06506
-1044.5901,706.2797,557.42706
-1766.8447,1209.3025,554.1015
-1627.0677,1041.773,304.6881
-1331.9951,850.1888,254.78444
-339.06104,362.95023,214.88042
-37.536995,796.01935,650.8901
-22.751934,459.39874,565.6785
-283.39865,1396.8357,905.7685
75.11497,357.02072,141.5246
-318.40778,570.8044,299.62424
-272.0544,812.5002,344.74362
-64.97758,417.26263,407.9193
-75.738396,574.3648,374.30243
