# PAMAP2 dataset (wrist-mounted sensor)

acc_x[mg],acc_y[mg],acc_z[mg]
-1629.3436,311.53705,266.98953
-1588.8385,287.0382,162.25272
-1385.6022,334.64023,177.69586
-1070.5215,210.516,203.73431
-867.56256,244.10178,112.43284
-729.45935,298.0354,-11.034021
-633.4973,275.02924,-52.62839
-585.4337,237.978,-73.01443
-591.7438,208.5849,-48.760914
-586.8308,199.20854,-24.472845
-605.218,223.26625,-10.536627
-623.14307,292.8332,24.757263
-622.63916,373.4792,122.48499
-770.3539,481.34634,264.09372
-995.98175,532.10266,375.76205
-1090.4805,497.58807,527.17035
-1299.193,371.38486,666.78107
-1562.2646,344.5198,726.28375
-1757.3405,293.90002,764.70667
-1494.729,273.06067,707.7579
-1117.5033,237.54239,507.72382
-881.0051,293.88873,297.5381
-792.54364,374.95862,259.22412
-725.8627,477.51736,174.83559
-669.3472,626.906,126.81705
-589.7604,742.40765,111.9245
-579.92737,759.1906,169.66391
-641.882,671.5248,246.9843
-952.96735,778.2374,391.02652
-1125.5862,751.7055,428.53427
-1196.6385,565.33386,355.12228
-1392.0676,522.27734,344.8332
-1566.7057,621.46,401.99652
-1555.4369,641.5684,458.98267
-1470.4841,651.78906,386.84985
-1644.2727,586.47955,272.17624
-1687.8145,333.95462,173.9875
-1472.3583,214.69867,117.44778
-1137.2963,166.47278,102.06221
-928.4984,179.06277,91.84121
-756.4024,275.27063,78.38405
-657.9076,299.0461,18.250925
-586.2757,319.62122,-21.19294
-551.87573,280.30627,-35.75911
-528.46173,241.02415,-52.56041
-557.56647,284.02325,-31.723457
-634.86444,352.2641,28.517431
-683.5296,384.49762,79.97784
-664.9023,440.78522,167.54959
-818.46857,513.19635,246.71811
-1006.36554,557.4183,425.11078
-1137.9929,479.8473,589.16406
-1317.8286,476.42917,704.6402
-1538.3794,353.69653,747.75305
-1463.5015,142.934,604.0069
-1201.8802,268.53574,572.0035
-903.5757,346.6535,610.42114
-708.0752,417.09152,533.9367
-551.307,561.2928,544.49475
-510.5913,667.14026,554.96814
-491.88812,656.1238,518.21075
-599.70844,632.0955,495.03192
-793.524,550.4687,548.96893
-1010.371,458.0552,516.2731
-1388.7137,358.8504,484.4772
-1364.2522,195.63678,373.34393
-1532.223,249.95625,319.5706
-1480.432,477.81964,427.35483
-1460.6835,636.2193,388.42358
-1439.9274,561.66675,267.03995
-1262.4004,502.3397,120.58036
-1188.3557,415.8672,66.275764
-1047.8301,273.28766,58.45209
-849.43207,289.3376,51.768524
-727.20935,350.4004,45.39659
-641.5902,305.70538,11.29575
-564.5261,296.2649,29.384825
-551.6359,323.8589,62.165077
-545.76587,339.295,71.461105
-602.6267,382.3661,83.82187
-672.9358,421.3436,86.3099
-789.7274,411.84872,127.57653
-876.6107,435.43927,247.59737
-1042.6738,432.63535,373.98743
-1111.7393,384.28625,357.4598
-1220.053,410.96384,604.6589
-1236.3566,274.42688,650.15656
-1218.6138,235.36171,468.62698
-1271.8423,253.87144,503.5754
-1202.9674,242.17278,581.4687
-1072.2709,329.4313,554.3156
-841.4534,413.63846,384.85425
-699.1128,364.9817,235.5799
-653.2899,427.91385,193.886
-630.86975,528.8191,170.77603
-635.8699,574.432,163.28104
-673.1014,577.0515,127.0465
-769.5318,660.0873,158.90167
-972.46,663.5846,254.34195
-1083.0867,643.1829,275.7908
-1138.0051,668.08026,295.1759
-1259.6873,730.99927,361.65875
-1496.0376,883.6365,578.1119
-1501.097,729.4642,614.6155
-1576.948,558.1582,564.97235
-1743.7065,312.30078,601.0627
-1917.2041,156.38887,481.35928
-1669.2496,220.55371,302.9854
-1173.9003,-130.31255,355.1528
-809.5633,96.12432,262.1462
-627.4381,363.7667,92.08672
-549.93805,245.6459,-25.916855
-480.4466,204.37544,-81.85083
-426.83026,164.63753,-73.62994
-381.9947,137.609,-33.21851
-344.08295,133.95676,-55.34737
-405.96548,230.77225,-25.22311
-528.0682,352.83258,51.213684
-780.9512,440.80853,216.60797
-1091.2317,463.2188,326.26447
-1440.8093,483.9355,435.14218
-1748.6761,511.46942,710.78394
-1984.456,419.46796,801.879
-1941.1073,161.99286,726.83344
-1411.2543,-15.33581,686.9454
-1084.2793,68.01667,443.3548
-842.95355,227.82187,318.36316
-733.31366,286.3047,219.98653
-637.29987,569.16376,129.74129
-521.74585,733.9061,107.54024
-419.70966,717.1384,93.31753
-363.17706,606.7977,140.36478
-457.09705,530.55865,230.23894
-706.4934,534.8869,317.40924
-1104.6393,680.09674,355.5706
-1256.1572,795.8992,421.60535
-1389.3033,617.54944,443.65128
-1535.2458,492.39526,522.12256
-1510.4604,511.0821,636.2904
-1575.4209,518.4571,618.898
-1446.8657,537.95013,504.59818
-1757.2522,428.00644,581.8745
-1673.3213,131.3477,466.82977
-1212.5583,55.849003,289.943
-832.9987,66.432144,183.63696
-639.51556,217.81038,127.48418
-541.92236,278.8216,81.41199
-456.57858,270.98364,43.358894
-400.45612,262.6214,26.92934
-366.49905,256.9502,-6.728307
-362.5023,244.37979,-3.57569
-410.7989,267.00412,4.497491
-462.21024,316.06265,60.37491
-614.6471,476.56174,216.18721
-855.9625,618.3313,446.50146
-1072.4246,478.27734,466.29376
-1304.6066,306.67813,411.9798
-1681.1445,338.93692,531.1227
-1916.7725,395.5431,743.3415
-1847.5348,397.28235,719.9626
-1402.7543,354.98056,634.88074
-988.70404,222.24611,357.78894
-778.775,240.64989,245.36269
-691.8947,342.17535,176.70108
-629.9187,478.75833,76.99366
-626.284,619.7095,40.54018
-623.59076,635.9156,32.813515
-765.10443,627.86694,81.94742
-926.85223,571.7002,166.60501
-966.775,549.6538,222.63039
-1023.02216,698.1534,317.03693
-1158.7001,814.1587,396.3701
-1351.4948,1094.7587,598.6352
-1466.6523,918.8685,651.1526
-1442.1006,445.48355,478.20987
-1536.2218,414.36813,451.73456
-1805.9644,231.49542,455.1492
-1693.9955,93.62316,549.6749
-1467.8456,133.48143,518.0539
-1110.0137,211.8123,369.52966
-880.3212,189.42456,226.36214
-787.4175,243.48773,141.00574
-694.77,209.02975,89.49091
-559.884,127.497925,47.21544
-450.88837,116.87662,62.536312
-395.69177,179.4857,78.95311
-334.14767,214.14032,61.01975
-340.77988,349.21478,123.75753
-438.75363,473.14474,267.1252
-690.6018,606.8924,293.82898
-993.70557,679.68066,359.08197
-1314.0483,581.0,449.63907
-1777.5295,531.1014,518.6592
-1915.1588,465.53546,572.9728
-1674.0686,390.8066,567.50903
-1221.0979,292.0227,490.50003
-873.744,266.6828,355.1703
-736.2062,372.13147,247.67973
-668.5469,439.1898,144.8023
-685.30426,497.51752,143.65889
-677.1903,540.0441,96.03138
-663.7638,574.64075,100.29618
-729.9592,626.2178,105.737
-807.4938,665.3476,130.07532
-1029.3213,825.6308,277.9701
-1153.4944,868.05176,346.8139
-1257.8923,818.13513,392.6525
-1267.8708,830.118,483.72336
-1301.4769,735.8954,527.1625
-1435.2709,678.40826,508.2893
-1533.2867,684.12885,451.5805
-1793.9337,445.59442,427.8837
-1701.2078,182.89818,390.19586
-1356.2495,149.39662,329.04767
-1055.5387,166.31787,258.0865
-862.0841,172.83034,178.65393
-761.3867,258.40366,76.56204
-688.5235,277.61154,37.52492
-623.78265,220.64206,9.017059
-508.3994,168.86021,12.965582
-460.4652,171.66376,16.344767
-423.10022,225.22935,18.92863
-411.84375,307.17578,59.624115
-442.99338,439.48666,178.1115
-597.2183,539.27203,312.6142
-887.4812,690.80945,441.0184
-1056.3734,532.2664,556.2733
-1420.506,377.81775,659.9709
-1832.2917,305.82886,689.3052
-1870.2478,255.42953,638.6753
-1458.6069,211.3974,619.7669
-1069.0095,260.80557,457.4905
-854.5605,393.35303,286.01254
-776.6836,452.37537,237.42252
-718.0751,561.0615,193.72949
-680.62787,611.57587,138.80927
-654.74164,664.73883,145.75128
-678.5295,635.8449,168.61684
-731.00037,625.8961,232.28833
-953.9488,759.40546,339.8993
-1028.829,787.0384,359.138
-1101.4175,702.67804,316.67105
-1367.8752,716.8133,426.77515
-1489.3013,659.79065,514.08844
-1485.9777,586.42664,533.9216
-1539.7795,540.491,479.00113
-1685.9583,476.7461,401.984
-1733.16,378.65262,344.19254
-1587.5586,285.76608,300.14136
-1240.9092,208.41025,244.23247
-975.4892,180.28772,198.59212
-797.221,250.40768,122.87235
-700.60425,244.88477,48.123623
-617.03827,219.439,16.15246
-555.0084,183.169,-3.3231452
-495.52036,183.26987,4.5035295
-512.01917,250.13483,15.951296
-510.9483,257.86407,39.13791
-519.84045,344.62338,63.750298
-558.44293,465.51025,211.22447
-743.5104,557.7477,398.97113
-877.5813,589.0107,546.3338
-1020.9411,423.05118,579.0944
-1476.9427,371.75934,645.7298
-1822.205,364.19287,692.79175
-1767.3127,342.87366,685.16815
-1398.7207,254.75981,639.76074
-1027.5497,254.63707,444.88556
-847.3953,332.1441,313.39883
-781.1835,433.03912,261.04773
-696.98486,519.3301,204.36427
-654.60547,608.47894,151.70735
-584.54144,710.49713,130.60696
-609.9136,709.4052,189.23941
-789.56635,743.1954,334.11295
-956.0526,749.9542,422.21252
-1013.98627,687.94324,394.16898
-1175.4553,582.89374,350.82367
-1371.3811,595.2749,415.80627
-1484.5453,607.5548,465.75095
-1538.2991,548.37244,415.134
-1599.8701,505.65466,328.86353
-1674.0809,465.35693,312.36032
-1701.3097,380.88446,302.1516
-1462.2048,278.00476,281.6175
-1155.7109,263.81223,192.78235
-978.6301,243.97466,153.56549
-828.6814,210.51451,95.93564
-728.6052,218.39948,52.451393
-642.6523,218.45135,30.996939
-519.2439,166.85365,31.210426
-411.9075,168.04794,10.67578
-365.7501,240.86993,13.738458
-363.06384,353.65054,39.639435
-402.2163,472.97052,119.12973
-522.17883,528.6918,233.23376
-788.48694,644.98224,388.2512
-1012.86084,596.4926,607.74426
-1251.2723,384.0319,630.5991
-1688.0175,325.1206,627.3973
-1871.436,289.28845,617.26886
-1630.2477,288.90518,641.5617
-1177.6271,282.5507,523.4912
-849.20526,301.85208,299.96777
-774.87177,337.6791,233.61288
-764.1528,439.17908,220.25165
-749.2378,515.2379,168.75137
-702.46826,579.45654,96.255196
-663.4346,670.915,77.64756
-749.22986,736.1755,202.883
-837.045,699.52686,326.99963
-986.0457,768.99396,401.94855
-1033.5891,746.4995,438.9525
-1173.746,678.641,421.5621
-1345.6368,746.2522,501.0303
-1445.9196,633.7739,457.3392
-1557.0428,470.4253,395.01416
-1548.3984,462.94727,382.28732
-1750.3541,449.2785,413.39737
-1654.9412,257.58582,364.45316
-1352.307,264.51892,267.31448
-1081.7639,244.61095,187.92209
-891.3168,218.0213,170.61766
-779.8182,271.1842,105.5314
-670.04694,244.72977,68.54055
-577.4568,206.49893,29.397425
-542.1678,195.28606,28.74019
-506.97864,182.87852,61.363293
-509.16638,212.16708,69.64888
-538.1534,275.0418,113.02389
-607.888,381.8814,243.72533
-795.6058,487.22815,326.75113
-1010.28546,578.3353,438.33832
-1076.6626,502.81143,521.82434
-1361.6648,442.46805,601.5103
-1682.25,350.0609,587.1363
-1704.7369,283.17703,552.4751
-1389.8511,218.17238,458.10452
-1081.0115,204.48552,339.24008
-937.0103,381.96848,258.53717
-854.92206,490.40182,228.18097
-782.27045,612.6574,172.51353
-689.2073,725.3016,147.10513
-643.3572,744.11755,185.84625
-697.02264,717.6175,254.64264
-862.2033,745.4842,375.54486
-1048.0317,816.73224,476.60333
-1141.3551,778.11444,433.92847
-1338.0927,736.4477,430.51376
-1419.5261,646.92346,433.4651
-1478.4711,585.18445,454.62796
-1549.7935,464.80527,433.13364
-1609.9437,356.0241,348.9952
-1674.9857,344.2684,292.1268
-1649.9283,250.49109,270.46188
-1360.0553,232.27179,217.26195
-1094.406,267.31494,148.98418
-891.69977,275.51227,98.94841
-772.3009,264.1374,71.13292
-667.7761,239.14955,49.39006
-610.9767,195.97794,52.348454
-558.72614,162.13362,53.258595
-533.04456,157.06331,77.40458
-531.66437,192.97382,104.55783
-576.4072,250.21678,136.86835
-600.90796,345.85587,223.91302
-748.69965,473.31116,327.17108
-900.2621,550.54974,420.91666
-1018.3948,549.5586,515.2694
-1154.1907,513.41925,604.5479
-1418.5376,432.75568,614.84674
-1648.1002,423.2757,609.6145
-1582.6273,432.13312,619.9727
-1182.4122,336.4416,482.9811
-879.1375,272.7406,307.53122
-767.2811,360.74643,259.3692
-676.8241,453.0627,199.66495
-627.3595,646.0574,161.72575
-582.6605,740.2175,156.8711
-649.82227,783.4557,204.17958
-752.63855,733.8862,328.05035
-993.7493,721.7676,488.4816
-1138.1488,663.5474,567.86053
-1233.638,651.4049,506.92303
-1346.5039,655.84143,406.2327
-1388.7456,688.52924,363.06625
-1365.4816,675.0456,405.4339
-1475.9996,562.1005,403.69174
-1508.776,501.09927,331.13773
-1606.7052,474.58636,300.15317
-1586.6266,369.4717,298.00122
-1296.8214,310.38464,233.44746
-1040.0128,286.76352,173.22969
-853.59265,244.23486,130.08257
-715.257,235.42613,93.25961
-601.3337,225.04526,66.15053
-527.32104,209.54117,85.332016
-469.3945,204.62679,91.33446
-465.41083,229.0764,118.874054
-502.9411,266.4941,142.82486
-516.14,339.39465,228.50491
-509.93137,432.33267,319.5434
-638.71625,524.56177,420.2709
-838.4745,574.09607,543.7577
-933.4622,622.05414,602.03815
-1047.003,507.51114,576.8474
-1392.2826,423.0423,539.4494
-1577.5172,364.82956,539.9001
-1530.95,394.70343,575.21826
-1248.8882,376.5801,467.27158
-1013.7469,398.29037,273.23572
-845.4575,479.28394,212.31635
-778.15125,571.1772,151.77385
-728.61884,724.98193,159.71016
-709.5091,765.5931,141.23686
-689.7065,802.3304,170.79755
-779.826,790.26733,297.41995
-955.0016,776.08997,390.83698
-1080.4407,706.7515,394.8333
-1245.7373,668.7383,368.01395
-1408.1068,709.64246,397.0717
-1509.7915,655.04816,442.89523
-1553.2769,506.51578,408.78403
-1484.2502,441.49594,339.73013
-1756.5767,486.83548,386.91476
-1724.0182,303.02286,346.77496
-1458.1494,292.6633,215.3511
-1228.8722,283.73373,195.838
-1032.6078,264.31387,205.23564
-849.2197,308.5858,134.60468
-721.4792,230.91154,59.20714
-594.99023,126.16431,-14.280035
-515.6643,95.110725,-26.665089
-470.2953,159.72185,-8.231963
-442.86612,237.74873,5.431513
-381.60968,330.53058,11.420931
-403.91296,517.7603,126.58669
-472.7878,577.90094,271.8699
-658.5842,761.43665,443.63315
-818.0984,834.1834,643.3125
-878.05005,427.0305,618.20667
-1385.9397,231.2863,540.6374
-1729.9044,219.38158,584.6449
-1694.4427,322.38763,652.55585
-1307.1953,432.67438,553.87994
-927.0057,430.42236,347.68842
-835.4668,432.2156,317.0206
-791.02466,429.8669,304.47433
-766.6441,507.22153,217.32928
-714.3266,635.06555,162.30505
-680.39984,696.44836,122.25808
-721.3104,725.3246,202.18454
-897.24176,676.9341,318.65536
-994.1391,658.6341,349.48343
-1149.035,657.0,352.40112
-1356.0331,738.895,389.73785
-1464.1814,732.93054,457.04028
-1461.8961,624.89374,414.09656
-1480.6342,556.26886,366.43234
-1595.7661,505.1657,346.25882
-1619.5054,380.51263,326.106
-1445.7565,330.64972,314.37872
-1208.0414,270.73825,286.2698
-981.4694,215.24307,201.23035
-811.09454,201.95416,105.70644
-708.13416,235.31972,60.92242
-635.9026,242.44598,44.648193
-571.3221,241.83044,35.748463
-517.24475,219.98471,10.922725
-490.49203,278.91052,10.861891
-517.3795,321.06854,-1.2275931
-508.30267,380.67017,21.505882
-587.52795,468.4992,119.22646
-758.4081,550.1729,293.53067
-912.40594,572.4408,541.05066
-1118.4912,496.5354,655.8305
-1503.0112,410.89105,707.91486
-1809.5966,292.68637,795.2137
-1636.131,86.24947,664.05835
-1249.8303,24.023577,541.4313
-948.40204,224.04428,403.32028
-819.09357,352.90125,325.2876
-744.4892,440.62506,216.89003
-672.20557,654.98706,146.20293
-588.51855,694.11694,139.87354
-540.9401,713.92645,99.637825
-619.79004,717.00336,181.1156
-846.5473,692.0424,305.4066
-1119.1041,728.0859,391.1218
-1101.6359,678.2341,325.00412
-1276.8677,632.5869,349.3467
-1444.3463,698.90326,429.67596
-1489.0615,694.25165,480.58438
-1530.6547,672.01984,498.96362
-1585.581,561.5692,430.92368
-1765.0665,462.2187,359.38544
-1733.8644,265.04657,257.04153
-1417.6969,228.33884,211.3554
-1049.7062,27.54737,264.06766
-827.2544,175.75586,187.0369
-714.22815,332.95605,81.96752
-622.3732,212.92226,-16.023396
-549.305,209.9306,-23.131754
-458.3271,158.34163,-9.879001
-432.36484,194.82715,-3.6037874
-441.5206,241.71861,-18.395008
-452.9149,305.38452,-4.812665
-484.71313,455.7814,85.940125
-628.9175,620.35895,257.37366
-804.50134,691.2143,430.29596
-983.7126,652.6041,626.6375
-1250.172,513.5781,694.6608
-1722.3373,386.86353,714.65906
-1917.2893,265.53735,662.62726
-1544.2148,190.44037,572.5474
-1096.213,159.03166,464.81262
-889.0998,272.3895,374.1284
-759.1562,294.51364,275.18414
-714.18896,506.22366,184.18346
-623.81866,681.8489,141.28812
-520.97687,731.45264,104.37987
-511.71667,733.25476,118.56442
-621.9679,651.0563,210.00716
-907.5485,668.46747,369.51263
-1078.5676,720.8223,390.3953
-1137.6028,715.0055,363.52808
-1294.2062,628.2148,362.86
-1446.3062,690.11664,440.7687
-1619.3907,699.93854,553.7097
-1582.7289,558.8403,522.7219
-1657.5043,509.36115,419.1508
-1741.6521,336.1814,376.0059
-1680.3455,209.6507,325.08728
-1325.9998,111.75993,326.1997
-904.9011,-60.02916,218.8704
-652.76,179.61917,91.46628
-562.8653,316.07712,65.97499
-497.97934,277.85297,29.965996
-445.6466,253.05489,14.983073
-410.98083,235.42847,21.55772
-386.69485,243.59535,36.219063
-366.80447,249.8553,-17.607756
-406.90094,335.23,-23.43683
-493.17743,463.89197,36.595726
-777.7571,631.5716,216.57127
-940.2162,596.4186,331.1261
-1186.8597,531.531,528.1442
-1587.7762,491.26572,655.98694
-1978.7941,393.5199,794.289
-1812.3665,239.615,753.93616
-1246.8492,53.960335,648.0684
-962.5849,-25.542833,482.8688
-803.68427,220.52641,325.55966
-682.5512,381.813,257.45615
-578.0422,597.2007,207.36136
-497.12845,748.282,166.45088
-409.88144,779.0382,188.88167
-455.43298,689.0677,267.78256
-626.2006,655.9117,357.2946
-953.73206,727.587,396.98062
-1224.1758,848.8709,401.97888
-1245.2432,595.8122,311.78848
-1333.3566,459.23584,328.32053
-1465.4116,620.7002,418.31696
-1681.0771,750.5881,585.1777
-1632.6688,680.4668,523.4775
-1609.7927,546.1757,383.65616
-1705.2142,541.9299,261.87943
-1582.6599,401.1324,126.51269
-1247.2977,115.88033,166.0806
-963.3696,243.69484,142.54951
-797.2692,258.6391,70.879265
-644.7238,200.75325,-1.5960804
-551.4336,228.39204,-54.64486
-475.6327,200.82196,-71.96472
-397.636,180.61469,-46.46869
-387.91016,195.54271,-44.42634
-397.8632,228.40154,-47.745018
-457.50647,319.92432,-57.04958
-528.3995,450.28403,24.200312
-748.0085,536.0325,202.4658
-1030.0148,607.79987,408.65286
-1225.4852,602.5622,605.25574
-1623.3372,623.32074,837.09467
-2018.5007,522.4793,866.98987
-1854.5665,126.51618,654.4351
-1339.3077,-90.74278,678.52515
-1018.23627,75.12526,538.0295
-750.32367,127.06429,420.02557
-642.47766,245.56238,275.31927
-611.5043,725.7862,292.26532
-508.93378,805.54877,224.5228
-376.4715,777.67523,184.15578
-370.20038,689.5975,253.55098
-558.1747,601.83936,368.4903
-942.29297,626.6024,452.21008
-1204.8993,605.5575,448.9185
-1267.7668,444.5802,347.96173
-1385.7242,308.59918,330.94717
-1474.4609,435.45905,402.02646
-1602.1006,670.0265,550.07587
-1584.0668,738.0167,500.45447
-1504.7615,593.3656,307.3803
-1681.9729,516.2373,242.33661
-1674.43,289.71356,170.46123
-1247.2499,149.31384,124.8287
-918.12616,172.05748,86.85594
-728.53284,218.93178,58.367977
-589.622,245.01546,41.792686
-509.82657,307.35526,5.1904564
-463.9255,302.75616,-9.156639
-436.6051,290.46234,-7.550276
-407.45776,238.5547,-25.760551
-434.31216,262.91562,-25.88377
-524.5504,332.04675,-22.831501
-622.7848,406.97897,69.06929
-760.5587,481.16138,244.97493
-1045.343,490.63815,502.16855
-1229.1433,404.03998,661.1303
-1343.2032,300.51785,807.81213
-1463.3347,149.1477,918.8161
-1811.2141,204.27174,873.36633
-1720.2054,502.23682,846.5446
-1162.3754,450.24594,577.18085
-804.7091,337.26843,393.77744
-688.1564,256.74323,376.11392
-608.34705,236.50186,250.1598
-585.4253,501.6562,160.29619
-544.2716,723.63824,94.1319
-513.01385,812.2643,108.83319
-553.7276,732.42554,194.89366
-673.1248,684.682,278.94315
-819.2637,695.3244,379.6074
-979.20245,596.2886,366.36743
-1043.7399,510.74887,286.17346
-1166.3772,552.73846,283.98584
-1365.8652,585.86523,374.23148
-1545.8728,661.47516,509.7415
-1704.1882,672.83875,566.28986
-1642.6041,479.13574,451.9267
-1710.5433,343.75067,419.06277
-1642.7992,281.1456,348.79208
-1322.1428,146.10881,304.17917
-990.3052,270.59137,251.39935
-764.806,237.03217,190.56218
-569.629,258.99634,114.15002
-491.10287,266.34943,43.162807
-380.06482,214.58113,-18.786963
-332.05545,184.5662,-16.426073
-291.88232,228.00163,-17.903866
-302.88428,284.3544,-41.99575
-339.3545,344.1826,-79.5817
-475.36627,453.55228,-48.057686
-661.95984,670.5883,137.83156
-825.7096,629.5881,359.33865
-1001.7813,458.62033,432.3546
-1332.3286,387.16248,553.89667
-1749.9852,432.73193,867.3375
-2002.0156,573.38086,973.1309
-1616.3353,572.90497,620.50214
-1145.9193,208.74573,429.5675
-904.82294,-104.14325,438.02298
-725.4517,18.868198,371.74814
-613.9224,229.97102,240.96465
-567.51385,584.69116,148.56795
-471.48273,852.92834,97.95791
-369.2877,886.47217,121.93773
-374.57272,713.418,200.10777
-590.3137,608.52386,396.49527
-854.731,505.0043,415.5408
-1206.7584,609.84674,459.6736
-1306.9255,603.2768,420.8488
-1399.0157,425.83673,382.57715
-1521.6838,408.7815,484.33267
-1665.2744,529.2434,679.6471
-1537.2191,626.21387,617.1142
-1507.3665,644.46356,439.49808
-1625.0879,691.65906,259.07486
-1431.0916,217.16019,224.69518
-1082.1722,184.6803,320.41516
-841.83856,433.35767,192.80821
-662.2915,219.36986,94.92777
-558.1318,259.36826,18.566507
-529.72626,257.2087,-7.9317884
-468.04858,196.17581,-18.666243
-403.53903,124.74512,-23.32383
-342.9638,139.38513,2.6398559
-361.18106,168.79774,-21.55
-444.89996,266.11642,-8.512845
-591.4769,399.5242,6.3124013
-725.26465,547.33325,155.5514
-1088.6139,654.43726,435.80444
-1396.5559,624.449,588.5326
-1706.8784,615.6415,781.82935
-1842.592,569.59644,953.74713
-1690.1631,159.88528,655.58795
-1433.9331,-191.32954,514.6986
-1153.1263,-97.27152,474.2311
-889.37354,179.20288,374.66925
-746.47473,400.5009,273.68573
-618.24884,685.66486,255.77013
-475.83847,723.0917,165.8439
-354.36798,758.71234,166.11446
-331.745,652.4973,197.93047
-412.5186,556.70966,331.46613
-679.9353,605.2018,397.66946
-963.6673,735.9774,431.04413
-1198.6349,806.38824,458.13043
-1295.8003,522.3207,423.15842
-1446.0322,454.6911,507.80197
-1650.3856,752.7439,694.7058
-1909.6255,765.0117,756.02545
-1839.7429,585.7115,616.5679
-1866.2936,413.86267,452.93295
-1835.4363,392.15726,241.67227
-1558.5408,38.91629,229.05606
-1156.1561,185.95226,219.94003
-922.71075,294.6613,110.184395
-729.8012,211.76491,28.10221
-625.3627,237.54968,-36.2143
-545.27856,211.02171,-52.27134
-473.64206,152.5664,-44.959282
-367.7241,108.79671,-30.203367
-320.4738,97.88776,-38.556206
-288.83362,113.24809,-33.488907
-304.3769,168.71489,-48.662548
-326.63263,326.3489,24.998392
-542.79065,555.9329,195.14406
-934.44653,745.62714,509.4009
-1170.5442,682.9352,642.892
-1660.1085,529.85486,832.8008
-2465.9749,479.2703,1140.7036
-2323.6455,267.12558,1049.4592
-1567.7367,-220.25085,580.6556
-1181.1042,-20.843624,396.95108
-846.9239,201.50089,327.305
-770.0698,307.70706,49.030228
-769.52075,921.2279,105.92869
-555.0199,919.8773,42.39866
-327.09134,784.4817,-28.730268
-213.10933,589.42426,12.380155
-273.55524,484.30002,126.39664
-526.94385,473.9134,283.0588
-932.7459,778.1572,345.41925
-1183.1869,925.5825,299.27155
-1192.3317,717.3536,263.35703
-1371.7406,539.16315,430.7668
-1493.0024,503.38745,599.4677
-1810.2045,703.4437,819.00555
-1755.0701,878.4553,671.18866
-1943.8956,740.9092,459.5417
-2236.182,613.7819,181.2634
-1991.6078,-245.3757,202.1656
-1170.9554,-384.6407,284.49072
-871.50616,190.81525,79.2186
-602.8451,222.43172,-15.257383
-508.87646,298.6815,-69.45551
-476.8263,365.98492,-69.57173
-482.42145,316.33157,-69.067696
-404.01315,173.34207,-31.571909
-343.7827,57.527847,-41.861526
-274.0009,81.369675,-58.410564
-325.2219,217.19382,-52.858246
-392.1823,470.08646,57.007874
-633.5664,642.6604,304.44977
-847.2563,735.2962,466.90958
-1098.9362,552.40344,430.93427
-1668.8132,467.9657,663.7532
-2242.1309,328.5312,1055.0927
-2170.8428,193.3694,1012.35016
-1594.0863,-406.84467,847.899
-1212.0366,205.71333,442.77185
-884.42914,617.4015,281.378
-784.30554,446.80298,215.585
-651.6773,636.57367,174.9287
-529.48956,562.5235,169.19919
-399.0108,717.74744,76.74032
-318.07352,752.9936,140.08119
-394.725,617.12756,210.01688
-608.0788,554.46704,294.355
-891.07684,637.53986,267.8373
-1079.987,678.1165,321.51886
-1042.9662,508.68768,294.4842
-1229.6947,530.4501,323.01917
-1512.5536,718.0094,414.60388
-1693.7651,714.65,530.11707
-1697.8467,637.5672,461.9132
-1719.4994,526.0498,338.75232
-1889.1344,380.63364,240.37454
-1844.4327,176.20203,248.38107
-1327.5906,97.74458,212.90208
-924.9573,86.55429,193.20537
-719.9127,210.52737,149.84012
-639.15765,338.73132,93.30659
-552.04895,334.36716,50.32765
-499.04373,252.42204,-0.0672389
-400.80917,172.54436,-12.331237
-398.84048,184.05699,-12.556375
-370.73154,218.58199,8.386914
-408.4886,294.14487,50.69937
-467.1836,454.96188,189.00961
-669.2844,635.3936,372.29065
-829.69165,771.3037,487.0825
-921.402,630.8852,716.2862
-1026.914,374.35934,827.0906
-1518.3499,220.21251,800.2529
-1883.1229,285.996,818.6226
-1530.176,415.65796,765.48834
-1036.4535,373.87326,531.854
-859.4236,321.23492,426.72214
-767.7854,357.889,425.84998
-705.9764,420.9272,320.58963
-625.59924,691.86346,277.99
-488.3387,903.5893,240.73805
-393.02225,869.9467,193.8076
-520.04926,776.12634,204.00412
-644.2011,739.746,207.54861
-819.0492,772.3279,144.08717
-1069.2566,830.5652,24.90413
-1693.5236,941.8058,-78.53164
-1912.3351,881.7025,-88.932365
-1762.2001,602.4052,-221.80086
-1743.3427,630.35724,-268.5701
-1594.9802,585.2105,-277.6167
-1274.5446,677.0693,-207.79944
-1132.4532,643.212,-230.08038
-1072.6003,507.71173,-247.30049
-875.4024,404.58093,-201.5934
-821.98785,452.43173,-207.57755
-809.0811,519.1885,-217.59418
-759.70404,552.68024,-195.58057
-735.3924,533.9389,-189.97652
-762.2798,495.15198,-173.81465
-750.9784,473.05286,-126.313576
-729.7397,499.39127,-68.38985
-730.8175,537.0463,11.158535
-758.222,635.0671,184.96895
-753.7945,724.0524,436.00403
-775.1881,754.1519,721.1274
-766.7431,451.97717,735.12134
-1046.8162,156.96098,642.19
-1289.6517,-99.34173,749.31104
-1270.0409,-145.25122,716.5818
-1128.3586,140.47049,638.2673
-993.9734,420.2959,674.7558
-954.7006,646.06476,655.5329
-832.9936,636.03973,531.9757
-767.9005,590.18286,390.0857
-735.95667,591.5218,324.548
-703.98627,512.9974,273.7847
-653.206,489.93622,225.71713
-620.5328,442.7797,182.66167
-695.8102,437.42474,175.77505
-883.7777,479.1443,212.7534
-996.74255,476.1271,192.67232
-1068.9421,464.28177,172.86992
-1233.5186,570.03864,201.28789
-1384.2036,767.525,296.10992
-1472.5668,896.9206,358.18256
-1442.6846,857.56757,241.81508
-1542.8065,594.66455,75.53472
-1679.3604,358.1524,-35.473854
-1642.3771,168.92183,67.20276
-1269.6582,66.35923,176.01743
-971.3989,197.75188,175.6347
-806.8101,364.41797,106.99736
-700.3944,439.6892,36.212437
-604.17786,399.7203,-23.638271
-567.4251,321.48953,-50.158916
-477.0297,237.68369,-41.152172
-437.4239,269.04758,-5.4084034
-458.2833,335.85635,35.901657
-529.217,384.1681,61.17251
-597.3264,462.74118,207.97543
-811.79425,559.101,354.0218
-958.9264,520.37427,509.48505
-1078.8292,399.06418,603.97833
-1301.1304,417.06805,760.10065
-1526.2373,319.03513,761.5899
-1614.1715,194.48293,538.856
-1471.0922,157.11086,473.41666
-1175.1232,187.73262,472.29993
-952.1741,351.31247,374.9506
-845.0895,431.83948,267.12146
-765.0746,555.7123,187.26874
-688.61664,654.70337,179.87004
-595.75104,617.00806,119.848236
-514.88135,608.9057,116.28646
-580.65125,595.14996,180.34244
-760.13696,662.0217,274.5378
-1023.34,757.2506,357.42795
-1124.6324,735.5904,352.70078
-1201.3602,605.1786,350.3823
-1293.6202,578.92285,416.70132
-1471.774,643.5612,534.34186
-1527.2585,538.5295,555.53375
-1498.3591,463.719,439.67136
-1557.5941,413.6857,353.37766
-1579.1764,335.78214,271.55402
-1469.3491,278.53415,257.0873
-1149.1631,227.72977,242.14288
-923.7793,220.88177,177.09259
-758.303,295.81625,112.83114
-622.7847,281.61835,33.5667
-545.71124,292.95853,-4.5569267
-488.44046,255.15602,-22.043842
-408.39386,211.1462,-11.307659
-416.87204,227.70314,-8.482917
-451.35587,319.011,-1.9829772
-511.41867,368.51035,62.763157
-614.76404,493.5482,209.45001
-781.4834,519.0209,347.2741
-984.6616,431.73648,424.32635
-1288.4758,356.2812,540.6715
-1621.0487,359.6283,730.0489
-1877.2667,370.67126,813.9637
-1752.0308,220.76471,619.2285
-1348.9667,83.24392,478.75943
-1007.04785,78.306496,437.03326
-824.5797,166.73112,324.27945
-708.7048,364.91986,170.53352
-619.8913,570.4595,110.73151
-516.62555,664.16864,48.74211
-447.59488,719.2622,98.031525
-434.67517,618.6018,140.15013
-553.1721,548.9103,204.03624
-809.7519,631.79926,317.06464
-1117.927,703.28424,416.15182
-1186.9097,669.31305,437.4583
-1290.0067,599.17664,419.42935
-1382.781,610.77966,529.46375
-1438.5447,579.2966,587.71924
-1471.0703,593.9352,562.6589
-1527.0632,523.3977,447.66882
-1629.5693,368.33664,367.6978
-1591.0768,282.51047,325.6058
-1396.2567,219.69992,309.9611
-1043.2994,169.63611,247.35774
-845.05084,248.5101,147.18616
-725.9927,273.32776,73.88307
-623.20215,266.59027,53.35772
-531.77014,206.54584,13.004658
-418.2105,156.89177,24.524128
-347.94022,161.91118,15.881716
-338.83957,201.19948,39.077766
-355.5136,260.0909,41.923393
-425.7813,355.24936,77.39683
-573.48145,509.6171,249.39563
-789.7997,592.9602,429.19467
-1037.6462,495.16644,479.98093
-1427.3252,375.82687,573.10236
-1790.5265,383.69324,791.5491
-1970.8994,297.81998,821.2727
-1683.4058,192.74173,608.1045
-1274.7451,132.09653,477.29944
-990.7839,189.76263,372.67752
-802.4398,296.54712,277.94894
-701.5609,481.6324,173.9306
-574.97034,638.0075,96.74569
-461.86853,688.57025,38.689075
-400.60007,686.7627,90.252655
-409.6134,520.6471,148.27318
-522.3816,523.6609,232.91066
-791.5542,639.4964,319.02844
-1135.7174,793.56256,428.2225
-1192.2993,732.5065,450.747
-1357.6227,550.20215,469.01038
-1477.3881,437.23114,544.60315
-1528.781,461.3804,629.7294
-1467.6973,535.93195,525.685
-1531.8948,553.7288,478.38074
-1628.1575,484.65836,395.81067
-1676.6068,428.0802,333.74716
-1329.5245,144.10497,309.26923
-1007.4941,269.00244,265.91162
-795.53766,317.30716,143.1272
-622.91406,281.03516,56.519722
-529.4789,287.17947,6.2308164
-413.1417,185.31296,-19.066315
-320.8841,146.39543,-19.994719
-286.17307,158.15701,2.7720048
-260.07095,212.78746,9.711638
-302.16608,253.61766,-15.512336
-409.8434,410.8676,28.674154
-596.93353,568.4497,186.32768
-808.56506,549.7853,339.1306
-1123.2183,467.253,454.09613
-1630.5482,483.62094,609.34656
-2063.5637,550.3043,938.3917
-2057.1367,372.05865,846.0937
-1519.3082,38.251595,557.46716
-1122.8113,-82.344124,477.39786
-891.1327,20.74187,383.13232
-744.04803,169.83011,185.48558
-684.6104,554.5322,89.62866
-567.2687,756.24695,31.279327
-442.4642,760.1437,-4.5050178
-340.39722,692.33014,53.4706
-399.37158,552.54486,123.57943
-598.9398,557.00024,282.78696
-1045.5114,678.9765,406.8946
-1205.902,779.7656,396.30496
-1253.0997,691.97144,379.9477
-1409.7305,588.2603,481.00064
-1424.9645,515.8206,573.1255
-1542.4492,619.6628,612.4555
-1517.6986,555.2154,597.67017
-1549.1998,351.10806,491.4754
-1484.9482,243.71036,408.85928
-1369.9105,256.89926,342.4491
-1107.4973,95.35107,320.2319
-840.43787,158.56041,241.5788
-681.80426,349.77487,141.96194
-578.18176,250.0788,66.530045
-513.3974,262.15686,34.26838
-469.8145,224.46788,57.783504
-395.61127,210.65479,66.483406
-367.72446,221.56511,71.32543
-371.966,248.33035,80.4378
-452.96194,331.0788,117.10494
-563.901,440.08072,222.87509
-793.68634,489.31766,347.32526
-1033.5521,463.1389,363.07593
-1410.5107,406.22,445.41635
-1716.1255,465.7159,640.27783
-1890.1,480.0237,726.8994
-1761.3081,302.69366,637.29877
-1388.8732,144.19005,535.36816
-1105.1013,161.47697,360.66104
-857.3805,253.773,238.10391
-749.5214,397.49753,143.1469
-649.9201,612.42084,91.77782
-551.2336,660.5649,39.298527
-469.95026,686.6444,81.44264
-422.59677,576.5252,126.1769
-481.20673,532.6807,258.51617
-659.2453,582.5315,333.79208
-908.7726,712.00696,373.10123
-1131.9034,798.54364,431.55838
-1382.7745,739.904,460.09106
-1586.0123,725.36334,526.42944
-1589.2673,633.7905,565.4244
-1455.0785,367.12625,475.89655
-1423.8713,266.4132,405.9924
-1507.7451,210.00331,402.58047
-1523.397,122.987045,410.1028
-1194.4159,213.61157,370.6116
-1047.6068,312.15186,350.8101
-879.14923,272.56155,286.2626
-756.84357,239.81177,199.52547
-615.67584,174.18825,120.17431
-514.7757,108.31932,100.70673
-429.75952,162.70975,152.39143
-378.75848,201.91615,186.62856
-339.16312,242.54886,182.45747
-378.07544,363.066,191.62094
-439.13113,438.38086,249.57738
-596.1356,567.35547,366.61612
-805.1549,658.7916,407.35712
-1003.2206,659.0562,401.86108
-1298.0021,619.2201,465.96695
-1568.6781,575.52747,592.0578
-1636.1195,444.2696,532.62067
-1598.0638,400.06787,488.93405
-1285.8855,304.40253,417.62372
-985.1812,320.4765,260.28067
-735.1598,581.6193,122.99561
-593.06085,467.25293,86.73985
-534.68805,475.4001,42.81305
-555.9592,547.3569,68.02216
-568.50867,591.72906,117.25636
-626.0677,583.4091,142.43265
-751.3028,560.6239,253.62506
-927.2012,569.3027,388.78387
-1031.2343,627.58685,472.20258
-1145.733,628.3918,506.08862
-1267.3492,644.70465,616.13165
-1263.8339,506.8203,657.39545
-1191.8799,342.09436,651.09814
-1105.9476,361.4504,615.4357
-1138.6932,410.25568,607.8634
-1181.3878,309.5081,602.64386
-943.90906,196.16351,502.1514
-821.93134,167.97446,472.03513
-686.8288,138.404,376.69772
-579.40405,173.90323,291.94525
-544.69836,227.11478,261.51688
-534.9914,239.79361,265.69223
-537.31396,234.71712,286.828
-585.5697,226.24088,292.42923
-653.2426,233.18466,307.58124
-770.1217,211.26881,309.29645
-816.4737,214.40471,358.7917
-861.0599,232.33372,354.08676
-1087.0068,303.3057,351.3518
-1205.3213,354.65778,396.55307
-1281.6782,425.0673,505.64557
-1461.7017,504.194,612.62836
-1487.2799,385.79123,639.81
-1226.592,137.12567,512.1108
-917.1428,43.73864,370.75867
-685.75793,117.31964,269.6222
-548.4714,254.74582,201.02786
-476.27292,451.6057,199.96442
-426.78818,556.33295,170.44827
-430.48807,635.76337,212.44159
-519.45886,641.74634,327.50452
-663.7848,554.06934,458.25235
-891.78265,541.98676,575.8337
-1169.0685,534.5162,639.7752
-1299.2054,424.78476,623.94855
-1516.1351,352.45438,551.09827
-1583.0228,380.5844,648.9873
-1484.3204,221.90198,581.0116
-1354.4661,171.772,407.53156
-1333.5934,227.73541,301.52765
-1427.6267,233.92667,265.8562
-1272.113,286.96268,271.36282
-1043.1714,328.97653,267.15182
-864.5724,353.6756,249.62296
-725.2042,316.541,184.97897
-667.07965,298.80026,136.28831
-594.2703,231.13582,162.77396
-547.811,180.29762,172.82182
-420.32727,109.34403,156.00957
-346.74203,153.93839,140.57504
-299.1205,270.58502,139.96648
-280.30914,453.08395,177.40569
-345.0918,634.5325,306.90457
-564.78,754.2945,362.93723
-720.49756,595.47723,317.9528
-1025.2147,379.27414,362.15005
-1594.1699,422.6522,644.7498
-2025.627,469.67865,798.44464
-1836.0381,386.52914,606.5532
-1283.3491,213.00989,480.38043
-985.7699,104.60395,360.0544
-785.9252,166.81966,249.94397
-710.71246,354.1979,192.63132
-606.9107,581.1182,133.26808
-532.71173,684.03595,94.826225
-451.04724,717.3804,137.51875
-413.8623,616.8864,164.96922
-539.872,583.7663,246.56587
-903.60284,683.5087,367.97882
-1127.9901,699.6742,368.78864
-1161.4288,611.31104,302.64883
-1386.3857,641.1749,364.9748
-1493.1982,647.5255,453.9508
-1552.7646,607.8717,533.85565
-1527.46,475.54437,504.6203
-1541.4756,442.30496,403.5817
-1517.8966,404.90857,302.9316
-1515.5227,385.83823,196.24248
-1217.978,281.92474,168.67851
-916.168,175.53798,127.28987
-688.99005,214.56302,86.41873
-591.33044,237.93213,40.30643
-500.64606,235.53851,-6.3414702
-419.41455,217.08241,-32.47613
-340.82507,217.47563,-36.050167
-315.4166,216.94731,-29.970774
-301.13864,268.85785,-35.79908
-370.17517,355.40778,-2.222461
-528.3452,516.4028,192.38211
-814.308,526.67194,392.3381
-1143.3949,469.40326,500.4958
-1667.8845,484.22406,658.1229
-2057.0222,496.44498,989.3396
-2031.3422,225.51703,831.4457
-1556.3484,-12.515696,574.38806
-1129.508,-40.90489,422.9336
-889.6697,191.09973,313.48776
-755.2157,325.20535,219.45651
-663.5314,569.62115,108.14604
-536.5072,699.1722,70.34541
-455.30353,696.2843,15.955486
-416.0865,616.8076,60.341705
-507.24445,506.49323,173.15388
-634.08344,474.37732,251.25743
-843.06024,581.64594,310.8717
-1073.6936,724.6661,426.27005
-1096.1664,630.8502,393.4981
-1282.6475,557.9952,357.50244
-1438.1407,604.52594,408.08978
-1539.4254,570.60583,488.434
-1443.0275,512.06976,454.45514
-1469.5815,518.3198,409.4002
-1608.1471,461.9152,374.64365
-1627.7526,356.04312,308.3799
-1380.3284,366.37106,278.1083
-1070.156,264.09543,242.57045
-870.9021,278.81937,176.41983
-739.7714,317.91385,101.68097
-615.72815,253.04115,56.68293
-527.03577,229.4001,23.068926
-450.02594,183.2806,1.8634063
-415.5564,179.75441,14.286346
-435.4484,232.32808,36.178238
-461.6647,289.76697,49.361214
-484.77042,335.91742,137.61905
-630.22687,456.52765,251.42534
-897.1652,493.39743,316.6637
-1133.1349,403.7844,351.34732
-1553.8616,421.43616,513.8392
-1894.5729,482.1963,674.3738
-1938.2999,400.35968,634.73206
-1667.3331,267.82443,543.87885
-1277.6675,131.93018,437.58713
-1078.675,281.90442,312.92184
-929.9234,429.5044,229.29396
-839.5996,634.8631,199.99341
-713.261,697.6039,148.72871
-592.04974,721.2559,68.4034
-522.97375,823.8239,126.40351
-659.81604,802.71423,268.64832
-844.4255,816.5424,338.48615
-1064.1246,808.3627,360.11465
-1208.4617,591.8199,343.23254
-1379.7406,436.6737,349.79642
-1620.3022,536.00494,551.4745
-1835.6583,528.62054,670.402
-1897.6543,429.8106,552.1532
-1978.9292,356.93533,353.0572
-2024.4415,206.93776,258.17722
-1712.0221,149.79994,236.23257
-1275.5531,105.045135,206.69958
-993.66156,248.9333,113.12987
-794.94855,313.91806,25.31542
-687.16425,242.86247,-36.666195
-623.7001,222.76666,-39.744267
-575.17523,125.40078,-45.24965
-482.04916,113.83041,-28.886114
-419.8198,116.07063,-68.43881
-381.3249,164.25427,-33.716595
-429.43555,233.63673,-31.299627
-484.6736,391.58414,84.92451
-661.4501,490.84158,280.6465
-1027.8848,595.9697,481.27454
-1319.8075,532.22894,563.96423
-1721.5717,469.17642,810.2407
-2134.7202,404.46533,967.4836
-1962.8074,82.02404,862.5233
-1545.0021,-158.4974,747.1495
-1251.7319,111.09858,383.31738
-944.0977,259.5709,221.1528
-887.19525,459.54663,124.55358
-768.39453,742.4278,93.8702
-627.52826,714.4016,-2.8958704
-475.78305,749.3413,-48.207325
-406.8452,620.4979,21.744537
-448.96753,492.34427,93.43258
-678.93866,568.1814,180.62254
-942.3427,815.24384,235.6968
-1080.0519,861.93353,275.05478
-1221.9038,745.3317,263.17056
-1447.471,777.2136,453.51624
-1584.8169,632.0504,598.98047
-1661.131,500.79407,638.8852
-1636.8846,538.0588,491.76706
-1812.5809,618.5828,479.3161
-2127.0547,590.8383,221.4239
-1787.3452,-167.2265,136.02986
-1104.077,-385.20416,347.0045
-860.0534,268.47357,206.55006
-695.57776,226.75911,50.283436
-568.73224,196.51924,-71.549545
-493.53662,264.7072,-76.04718
-460.3759,264.3084,-88.49239
-413.13083,165.98466,-58.374428
-403.92438,144.246,-53.339973
-404.4413,180.59848,-41.948284
-437.0637,322.98132,13.717792
-558.79016,501.9585,172.08559
-863.7607,649.85815,343.7874
-1144.3676,657.0822,455.95184
-1484.3035,600.4749,604.323
-1836.988,496.7367,755.7421
-1983.6897,127.67732,667.1529
-1742.8029,-64.10079,615.4414
-1281.4415,-35.138126,549.74817
-1016.9927,80.97073,386.3898
-840.38055,280.97424,227.67436
-749.28314,592.40576,162.12285
-600.1342,757.036,92.58074
-499.95407,781.2346,80.40265
-401.47626,760.19916,126.29915
-482.66113,651.7432,194.00262
-718.7845,735.54736,359.16324
-1023.5452,754.3496,387.43796
-1182.5979,809.29315,401.0129
-1291.5604,615.3278,367.5143
-1494.1412,595.54755,470.8863
-1693.271,747.6358,651.49677
-1918.5989,696.1811,654.41925
-2083.9617,516.1936,413.88907
-2219.7017,271.8238,243.69345
-2065.811,50.78462,71.72799
-1653.634,93.537094,121.52921
-1084.143,35.124317,183.52199
-789.32574,152.44713,75.54936
-603.98315,201.49615,-24.715593
-561.3012,161.2021,-63.704243
-517.60803,59.931377,-93.23776
-426.8633,23.577095,-76.55824
-312.82635,62.923553,-71.298645
-252.80858,157.58293,-48.34958
-204.70842,275.76416,-29.087563
-264.21844,499.93652,88.76848
-581.3022,855.9855,335.8989
-861.26825,990.1835,550.2265
-1041.2946,525.47687,558.659
-1663.5239,431.2194,636.3588
-2066.0825,287.2788,664.405
-2201.2656,366.30286,668.2702
-1723.007,365.06116,699.34796
-1188.846,333.8562,381.4998
-928.1665,552.57526,222.55673
-771.6673,686.59454,176.94843
-615.3269,712.1756,99.21963
-536.0617,701.5503,46.779613
-464.40845,652.26135,0.6438656
-511.63187,586.86206,6.935246
-710.55597,643.55634,84.06475
-1019.85156,810.2958,175.64508
-1083.8271,776.48773,152.25385
-1397.8771,774.8051,249.06737
-1550.7932,841.06067,467.62228
-1831.2028,829.9328,571.38776
-1743.9376,591.75964,374.54062
-2105.743,699.169,338.99808
-2348.0017,449.62582,368.27762
-1937.6887,115.33916,293.73837
-1467.7083,113.99863,262.13794
-1047.2678,25.632462,222.91669
-889.6755,310.40332,133.03351
-735.5664,245.68529,29.624266
-613.78796,193.80153,-10.327161
-503.63068,110.11362,-30.361494
-419.27832,54.3405,-49.07048
-369.9347,119.18833,-79.427635
-317.16656,232.22151,-65.484924
-313.88693,418.465,58.652042
-365.81653,584.9199,252.54349
-623.87616,836.2679,425.25714
-906.72845,1105.9238,560.4421
-1078.1776,565.50385,521.2644
-1611.2814,324.13474,499.78098
-1943.9524,380.09503,523.2822
-1958.0288,514.7344,571.3423
-1755.8823,471.19974,688.3071
-1241.9426,594.8684,316.26633
-958.03735,664.0388,98.66743
-842.55383,562.3041,110.73562
-800.516,727.7883,46.871037
-693.44025,719.84125,-63.878777
-722.2039,884.1123,-124.6018
-687.28125,929.1922,-8.709964
-869.8585,807.7364,97.11232
-1055.9672,861.3955,203.01378
-1167.5402,744.49567,167.11539
-1417.2122,965.45087,312.00095
-1689.2876,1008.2056,477.06207
-1752.6698,766.933,407.78583
-2128.6104,726.281,311.62396
-2509.576,428.88184,256.65933
-2145.5876,59.542236,226.44168
-1579.0464,112.04641,266.92236
-1072.4491,0.19939977,221.21964
-849.67163,253.26819,98.16984
-751.2276,301.04593,-32.4969
-669.3043,167.75885,-78.039764
-587.83014,109.88288,-82.198814
-531.37744,60.084995,-58.094395
-452.8839,79.064156,-67.95621
-437.80753,170.59111,-74.13691
-417.72827,366.77075,-21.03245
-437.44806,572.71954,156.58452
-659.821,750.7484,387.462
-922.7908,989.9057,574.7706
-1030.0287,683.0936,663.7345
-1477.3947,431.01373,507.09436
-1946.6927,471.11713,448.02158
-1994.8214,434.56375,680.7203
-1644.6245,287.55063,729.6323
-1116.5486,382.97726,360.45425
-905.71277,602.24164,135.77249
-798.8683,558.3587,167.03918
-822.5157,682.5589,88.57605
-749.92487,654.2732,-10.667755
-744.53705,808.26965,-21.37963
-745.55743,824.54224,104.6194
-923.5373,715.13257,188.11792
-1054.2122,813.86487,272.33188
-1060.6401,710.6325,251.9464
-1261.6852,741.16254,341.85373
-1337.8148,862.449,477.76355
-1501.3411,853.7665,547.7169
-1650.7739,675.59717,431.26242
-1846.7954,570.2026,354.2029
-1994.1482,393.3295,336.9891
-1908.62,260.52814,286.3323
-1393.8197,59.364643,222.57594
-976.8303,-139.01065,182.36618
-787.2177,197.05432,85.32898
-707.7423,191.5124,11.025564
-585.6167,129.35779,-17.762516
-576.7841,151.17255,-16.813913
-550.84375,165.17896,-69.8636
-507.7701,205.37308,-120.40346
-467.35562,321.46118,-104.535255
-460.7352,513.9085,53.712265
-668.7483,652.18506,278.9727
-952.6374,866.28033,481.7731
-1104.9384,776.22906,673.5547
-1402.4852,514.24036,672.1473
-1786.1399,249.95724,512.032
-1864.4713,144.00385,561.9827
-1585.5687,228.1035,706.8355
-1146.6342,476.8406,429.04404
-869.1454,495.48218,270.46536
-796.7566,358.16827,211.10301
-781.5092,527.2834,147.21727
-746.3594,631.587,91.61153
-702.8654,740.18933,-27.482761
-682.8348,868.0802,-11.104969
-844.25543,892.2779,199.74417
-1094.0844,869.56836,342.87967
-1110.5752,774.9839,262.82333
-1414.304,851.58405,385.7464
-1516.9624,772.9446,475.68405
-1512.2938,698.2101,404.64456
-1608.6843,677.8518,368.5034
-1983.6691,623.9862,402.2759
-2002.8816,243.93076,386.1201
-1588.1724,110.09093,264.12027
-1171.637,124.75071,194.49486
-902.912,25.428633,190.58585
-781.54987,293.92172,133.5659
-700.41565,224.2012,57.64552
-546.18445,147.00864,-5.3381634
-474.00452,102.88551,4.260216
-431.79565,137.4216,-23.862772
-463.96735,254.98439,-1.3673469
-536.11774,390.55325,24.005444
-588.3663,420.48474,63.930782
-784.04095,528.1467,139.59828
-1049.0591,600.8445,257.29285
-1194.2826,564.60315,402.62598
-1525.54,620.7589,725.91565
-1791.9592,534.87213,793.4493
-1786.6661,320.79196,592.1876
-1427.1685,230.58487,642.06476
-1031.2266,160.21841,520.3478
-806.12897,294.51712,321.88504
-708.7922,350.83038,260.94473
-680.3936,480.40323,214.11913
-650.57025,613.46454,165.62047
-639.0165,730.22595,83.22141
-706.4671,886.2705,124.503334
-874.6735,914.35175,269.1422
-1138.4053,845.186,369.9614
-1176.7614,691.4697,334.38068
-1332.4207,674.5188,403.03635
-1471.8265,814.629,503.8576
-1516.0149,789.95197,466.96655
-1542.2596,759.93243,392.6031
-1954.595,646.7689,354.71344
-1876.6755,262.4531,298.772
-1525.5847,180.91385,261.4524
-1258.3605,204.6869,263.27368
-988.162,76.54662,241.76758
-824.8966,220.44069,111.02756
-741.4746,272.8856,16.618587
-678.7719,211.89534,-25.066978
-605.81714,169.8655,-23.019876
-581.7827,149.19221,-18.542898
-528.4771,159.95107,-8.180534
-521.93695,311.33847,-22.308535
-522.8639,487.28214,59.649136
-589.5691,538.72034,207.1843
-831.9066,626.20044,396.9267
-1092.1775,679.96,627.1121
-1342.4678,515.5943,699.6952
-1744.1895,291.02084,604.4716
-1890.1061,196.37248,578.1036
-1609.694,136.4287,683.10175
-1204.2083,183.60576,579.7026
-894.34674,368.6259,281.02774
-771.18964,456.4339,218.05658
-708.41766,555.4455,151.66408
-663.84375,689.9654,116.55329
-622.0663,724.7205,106.63336
-662.41644,739.6647,97.38544
-788.05536,808.3622,182.57867
-1083.5446,895.3164,375.66818
-1084.3668,693.3709,332.38492
-1226.8827,687.23566,380.87222
-1421.8999,792.9623,506.37024
-1505.4545,718.9969,554.2955
-1544.7286,699.4791,469.22156
-1804.3379,598.6127,371.65262
-1920.7787,430.15308,339.10117
-1842.6617,226.10147,324.874
-1506.1418,206.86894,288.48334
-1078.7173,121.23323,198.14368
-858.20624,118.03248,132.80885
-745.0979,242.52779,69.18555
-674.02155,197.0671,17.013416
-586.36554,126.780815,-3.6416957
-540.4128,90.19678,-11.930993
-500.90384,102.19698,-26.761652
-496.52826,170.10901,-68.560356
-557.483,304.99005,-79.54823
-612.76276,488.70816,11.374237
-747.10175,582.66266,202.66045
-959.2144,775.0064,493.67563
-1115.8807,736.2194,774.0759
-1483.1792,579.18463,838.8724
-1782.3921,251.96698,667.6553
-1887.6927,-90.54506,622.8064
-1527.0293,68.82737,587.2603
-1033.0902,490.9419,323.59702
-820.2088,733.71594,230.13388
-687.26184,573.8201,225.09206
-661.392,587.092,152.76654
-552.6988,585.53,28.058138
-552.7679,725.496,14.63593
-598.8329,677.0761,97.028175
-813.1853,684.63165,236.09654
-1024.0408,753.02435,262.48578
-1083.1464,729.7328,283.98584
-1342.381,712.51294,398.33572
-1478.9462,758.3802,512.99963
-1532.631,709.5272,535.0886
-1571.4008,653.29553,503.46466
-1761.0873,528.64886,399.74973
-1875.2897,362.2344,399.93002
-1570.6958,182.48589,353.83862
-1222.3215,179.02657,263.9258
-910.7131,83.39594,187.3333
-759.04944,131.29718,152.61499
-693.42346,227.18373,97.33625
-615.49835,142.0357,60.084885
-520.0982,134.06642,23.13688
-493.66446,126.44646,28.091194
-484.5858,193.77,28.714184
-502.4266,258.30405,31.083254
-506.21814,362.11523,110.88866
-576.67633,472.93738,257.96405
-819.1955,601.9749,354.23434
-1077.1713,611.6202,511.66312
-1380.4203,515.0981,655.4828
-1803.2498,388.7503,708.0417
-1954.1039,247.66054,628.8882
-1647.8832,189.61739,698.47705
-1187.6134,240.51828,428.56512
-879.4422,378.24225,190.32315
-776.2126,357.2222,197.96185
-766.3044,483.75775,134.19884
-725.60333,606.1775,94.26449
-699.6469,674.11334,32.385044
-706.063,702.07336,1.6487515
-743.75525,686.0273,105.502106
-919.44885,708.4867,277.37466
-1048.0206,760.07227,326.67966
-1087.1589,852.7564,334.4067
-1335.6133,1003.18866,509.20618
-1356.9371,760.2242,537.4268
-1439.0903,538.01245,484.46436
-1500.2275,575.06445,446.19415
-1819.0807,553.1131,458.33484
-1935.6262,290.55002,446.226
-1512.1365,148.0024,323.82098
-1258.6993,247.3818,271.99936
-1033.7285,141.808,232.48355
-862.9953,227.56851,130.19609
-732.36,299.03888,61.16872
-652.0087,240.43883,16.822899
-589.52954,166.84698,34.964603
-577.60425,138.92226,70.10528
-503.91574,139.15181,91.68538
-490.24307,194.20628,101.75909
-493.75525,346.07916,210.01411
-589.95276,464.28836,352.629
-803.6243,563.9147,445.82498
-944.9614,656.0245,513.63715
-1032.8099,518.2944,545.6816
-1393.8976,338.70102,483.64114
-1709.3003,369.49548,521.5923
-1644.7451,430.90533,604.41223
-1372.3203,424.98727,452.75153
-1049.1759,509.39832,191.27588
-876.1348,641.0378,104.64346
-799.27924,592.28314,139.30592
-818.01294,647.89124,102.27785
-836.1643,726.4432,84.91726
-876.21844,826.4512,115.29525
-936.386,719.4635,234.07301
-1087.4633,714.9794,334.59497
-998.45056,617.7823,341.89066
-1169.4471,787.92596,458.44562
-1334.8872,1006.08514,669.86597
-1517.748,743.8592,640.22
-1646.0981,396.55002,494.41254
-1872.1497,231.15155,381.41028
-1865.2178,17.771692,303.28867
-1511.3098,17.575672,316.70908
-1222.2738,178.06662,328.5451
-942.9392,275.36523,236.49347
-788.8426,313.86972,116.77037
-701.7536,338.79565,18.25349
-657.97125,223.59619,-37.62734
-581.3479,144.40508,-15.728109
-535.9677,127.19203,25.691084
-507.24197,158.70232,42.864967
-509.24402,207.89345,42.82108
-566.2715,374.14795,157.23465
-715.12823,507.86807,318.3829
-939.8932,563.8833,422.63342
-1051.6396,513.8616,444.80682
-1368.7323,386.66183,674.3838
-1840.9928,354.52722,803.4963
-1938.6349,255.86313,656.02106
-1639.4702,171.0667,659.84125
-1235.3364,263.63687,434.71027
-972.6945,422.44363,226.39972
-849.68964,504.6902,144.6248
-756.14386,686.27985,80.8752
-676.9361,666.3604,43.630955
-647.64636,711.0184,17.462322
-654.15625,722.5944,45.898247
-739.0378,655.54364,148.77887
-1035.932,753.1659,283.54904
-1106.4246,775.86334,269.32877
-1248.9567,754.19183,270.18246
-1410.2877,787.9122,357.45926
-1527.2358,751.6211,387.99463
-1483.0812,691.1025,319.99335
-1683.8108,709.08203,249.18564
-1994.3049,463.62823,246.4309
-1768.7312,156.25563,242.85258
-1382.2507,182.10774,227.24971
-1110.1443,156.60721,139.61876
-941.382,199.16656,92.61651
-813.73517,265.3868,43.165005
-770.39075,346.50012,20.525879
-703.4192,310.89032,-1.045033
-602.46545,217.27707,-41.778988
-525.9902,233.60931,-69.21677
-535.551,310.50983,-87.59996
-550.60474,413.52814,-44.099335
-581.51196,516.7299,51.474346
-711.01196,612.55524,206.31006
-869.07,737.1184,436.3474
-1020.6851,817.3012,663.6256
-1097.4152,812.52124,620.109
-1254.8756,771.70526,427.23276
-1268.3843,449.83832,410.78424
-1252.3833,211.50728,566.096
-1162.1982,223.90201,608.4602
-977.22943,575.97107,392.61023
-753.0071,719.6701,249.43776
-683.59796,453.52945,202.04106
-679.77185,574.6915,200.88889
-725.8276,617.8376,255.72716
-720.9872,722.5121,247.42462
-807.7606,764.501,267.9922
-1065.9663,754.6519,370.71387
-1188.5934,644.35693,365.02225
-1375.835,681.7563,336.73544
-1507.8579,753.77435,400.6908
-1515.2577,783.11786,383.7245
-1454.1516,754.8216,322.13718
-1678.2433,716.75507,237.40417
-1843.5925,414.02554,142.38437
-1588.9078,252.95604,180.86852
-1226.0652,90.18032,241.60117
-896.6868,11.769058,108.58467
-748.364,182.73389,16.23449
-675.7123,199.20268,-67.58913
-607.0562,174.3385,-86.009415
-530.7247,147.46184,-74.31712
-490.29733,152.82962,-85.75797
-449.58762,213.1507,-74.174194
-460.7324,344.509,-48.16788
-470.77982,473.56158,59.03181
-680.95685,675.0011,289.396
-813.14825,742.23474,357.89264
-916.0815,583.59094,520.23016
-1264.3563,556.5304,744.63025
-1808.2794,598.7803,799.1763
-1884.8842,636.37445,718.0396
-1449.6804,381.35428,631.6032
-1024.3579,240.21657,427.6109
-794.3841,251.86781,383.22382
-657.22235,178.43185,314.87167
-585.4547,433.13135,244.44029
-517.4315,661.1412,201.61005
-432.39178,769.1702,182.22717
-369.78394,693.8014,187.75241
-494.14734,583.9086,247.52255
-818.8531,612.1085,383.29767
-1161.6438,593.8612,448.4723
-1227.4222,509.0001,386.92334
-1348.7682,401.22574,302.1717
-1562.3033,504.14105,377.79456
-1626.6606,655.32806,454.2249
-1542.1139,627.26544,396.32892
-1458.6292,586.3649,260.59662
-1638.1577,471.06857,224.10512
-1565.6881,266.44482,167.22235
-1152.9532,231.45995,102.99294
-875.90704,218.44398,85.80691
-715.27966,263.96927,78.666405
-597.7807,257.0327,53.993523
-531.1943,262.21518,13.565079
-508.69406,244.76332,-6.6641927
-491.6707,243.3361,-22.723604
-495.1645,235.68878,-20.878742
-538.93225,305.5247,-18.250103
-597.92804,350.17096,10.007524
-680.65015,427.446,73.10845
-907.55005,490.4253,262.80698
-1110.1167,479.45685,396.59998
-1285.0978,509.9634,604.0474
-1474.4016,491.91708,820.3529
-1653.0073,409.0899,802.91187
-1592.3088,227.5389,605.74884
-1250.8046,75.1709,541.13226
-945.9596,59.16382,501.36212
-742.183,214.55414,368.43192
-608.334,412.85666,306.199
-545.4041,576.9653,241.43713
-484.77863,711.9914,222.05435
-459.85776,748.43414,246.0834
-472.96835,679.13324,300.77606
-648.21045,626.2221,382.89926
-912.44684,612.64716,411.02435
-1160.253,646.4444,409.23865
-1260.1464,570.6808,297.75763
-1475.6346,477.41953,323.68442
-1574.1025,570.4981,435.51862
-1722.8077,645.3885,515.8078
-1665.7167,623.67474,471.45395
-1625.9207,556.33093,342.33243
-1639.3318,422.38843,154.47014
-1380.0742,139.64659,71.110725
-1019.14233,54.944378,111.0519
-763.1576,158.44348,71.39733
-593.622,169.71312,4.281247
-485.59113,194.43459,-65.2671
-399.94983,216.7779,-100.41748
-361.9294,180.30771,-116.173416
-344.64206,147.69958,-98.84788
-424.36252,229.11555,-64.744606
-549.6516,365.18628,-27.59932
-681.72974,397.26312,4.9666595
-843.99884,474.64536,166.20433
-1223.1975,519.5869,420.1013
-1526.6029,546.43555,642.9525
-1627.4149,528.23065,889.6779
-1670.3368,445.771,856.11957
-1490.3455,103.39003,669.98083
-1292.3436,-239.72551,541.02106
-998.6501,-21.598284,418.7878
-722.8419,273.58624,361.1524
-571.9558,494.46036,313.02905
-475.32657,715.5042,257.3774
-356.14874,783.6112,224.65517
-318.84134,725.7614,251.5151
-351.49442,563.68567,279.33167
-507.47873,504.887,304.29224
-810.0273,536.0197,338.5544
-1160.9043,633.1868,359.9578
-1296.7501,571.93933,322.6111
-1319.303,349.642,249.17441
-1489.1133,365.29214,341.0689
-1650.6326,513.15875,454.7648
-1717.8053,693.2583,488.16113
-1542.8452,678.0239,329.06088
-1521.7733,597.45905,221.15515
-1597.7311,420.9133,144.64711
-1329.5176,177.15538,105.823845
-926.0139,141.5917,100.95534
-698.92773,203.2857,57.19092
-538.2274,210.80399,22.573355
-446.4241,244.04616,-13.16114
-382.96185,266.7906,-32.935356
-345.27124,220.02298,-51.43756
-315.2839,226.97133,-33.551933
-367.98355,288.78436,-32.735832
-481.58728,386.09814,-1.9775779
-631.2417,446.41776,70.33913
-817.70715,499.1489,242.5635
-1124.8473,471.90237,432.4424
-1389.868,417.78195,458.69855
-1539.9471,386.22336,612.5672
-1707.515,472.75528,870.56555
-1611.2183,373.02264,772.69476
-1330.7944,155.68176,491.18262
-1091.0156,-0.063133255,446.62476
-846.8702,66.20896,397.59955
-670.07367,322.94244,312.70535
-568.8261,539.8424,272.84286
-468.3976,664.04346,228.71854
-400.0745,716.414,197.3725
-395.41388,698.2623,291.39682
-484.7184,531.88214,333.7564
-673.3869,493.59375,366.38525
-1034.8026,537.5525,427.02707
-1311.847,506.95288,473.1614
-1250.5007,321.83936,363.99246
-1402.8823,428.7097,364.32498
-1659.7042,671.55084,484.4295
-1712.5667,671.6101,467.06097
-1598.1615,580.1199,344.39023
-1525.3931,506.37772,239.64293
-1479.2993,421.35635,182.8077
-1245.7484,327.58987,123.95132
-951.86615,250.50163,105.80719
-713.4807,198.34845,66.8011
-584.13367,216.89201,32.49635
-499.4501,219.77737,-0.17513655
-446.1658,225.52357,-24.569448
-410.34213,201.37785,-65.01
-413.40225,245.83714,-27.259424
-439.19193,294.8983,3.2225735
-530.69354,384.2337,3.6633344
-718.11945,460.91544,92.036194
-889.3798,511.28564,371.7337
-1184.4916,458.88788,559.39355
-1291.0321,392.2346,558.201
-1444.9615,381.3113,715.71796
-1654.3903,436.79172,908.635
-1600.5623,244.14244,670.3079
-1339.2924,116.4993,485.90054
-994.55225,212.02487,499.84695
-747.56036,214.6795,412.83966
-603.3843,395.12567,343.28595
-526.571,630.99976,294.03232
-452.75638,728.1756,291.26437
-416.23016,716.3676,271.93384
-416.13406,624.606,319.4579
-562.4235,532.1524,349.71442
-822.68866,530.00964,394.82938
-1140.8363,594.6278,407.29834
-1252.1024,533.5565,353.14957
-1471.9514,392.6953,304.61185
-1669.4344,507.3274,420.01407
-1801.2933,696.2647,484.01508
-1767.3865,661.7563,370.4095
-1718.1075,539.76117,203.98596
-1729.2637,424.74646,152.80952
-1418.4633,171.61041,118.05446
-1055.1409,227.04858,133.33353
-728.6807,262.21237,102.99815
-515.68567,198.9936,20.463776
-403.97812,225.3636,-44.52332
-367.95343,213.27,-40.72341
-332.27893,173.05107,-41.96188
-368.21893,213.56691,-27.839521
-392.7054,260.0837,-33.77011
-496.1562,335.0685,-18.819132
-621.8423,431.733,12.281077
-793.76526,495.3779,158.43544
-1052.9408,528.19434,406.72162
-1311.5789,472.4771,539.82275
-1527.4293,400.9355,572.69574
-1758.9918,464.36044,910.99176
-1709.6647,261.01483,882.70087
-1494.008,47.033024,622.49493
-1195.9268,185.61307,577.9652
-879.82135,180.93037,488.77475
-644.3661,300.4657,352.78186
-539.14307,531.55286,284.1417
-436.84662,653.88525,255.25496
-368.38687,675.13354,208.51169
-356.50424,696.7846,214.03423
-479.0849,624.9877,251.68015
-679.9645,610.4584,325.34982
-1049.4241,690.96814,413.5136
-1264.1948,627.7513,405.50375
-1319.9678,425.1263,345.2155
-1615.2496,405.0724,427.3635
-1769.9883,531.4417,606.0902
-1828.8489,541.539,621.4981
-1705.6844,431.93008,379.98425
-1649.7739,497.94644,226.86845
-1661.9352,438.3059,167.9781
-1364.0641,207.68854,228.38464
-981.95624,236.1809,175.3778
-684.7746,228.30655,29.693434
-526.88214,188.18845,-36.60043
-449.29498,181.31923,-52.442856
-411.11603,174.81898,-57.456425
-393.9493,172.51411,-38.834145
-362.63712,208.73859,-19.40406
-332.1196,247.70828,-25.220484
-387.41818,360.86072,-9.595714
-480.51004,462.93933,86.637184
-755.5325,684.32166,267.8462
-995.66486,639.1009,418.7664
-1224.6158,425.15533,616.30615
-1597.6654,425.75427,796.1596
-1978.5435,537.12933,856.98584
-1935.8394,481.12595,879.0958
-1511.9838,332.19473,697.11505
-1024.8689,333.93942,384.73932
-789.288,343.45834,304.4785
-707.2535,375.71722,246.85493
-622.6744,495.7156,180.28258
-550.1936,608.9294,140.90459
-441.3339,645.1173,80.29666
-379.983,633.6882,89.30051
-513.9714,579.6159,194.52649
-787.114,641.2278,295.8146
-1137.9451,762.39386,386.034
-1176.8959,699.1157,390.67276
-1391.5546,605.3345,444.98105
-1508.3586,633.26587,528.2012
-1617.2131,601.5703,563.0469
-1650.8541,561.7562,487.26498
-1726.941,449.45844,377.3109
-1770.4989,323.27484,288.7578
-1576.8706,302.48648,212.5855
-1330.3687,298.88147,261.30676
-1035.2502,191.7549,201.31223
-790.76624,260.30954,65.45713
-616.6536,265.52478,-8.687782
-537.11115,219.50575,-25.560444
-471.42197,172.92146,-7.033421
-424.25784,174.23218,38.542755
-374.00366,177.31221,75.464134
-363.8615,235.66444,83.4949
-395.07916,340.45273,127.77969
-465.60324,436.70972,249.01392
-610.6752,561.01245,419.96786
-905.32434,585.81537,433.68295
-1123.0232,427.4572,437.05634
-1392.9204,433.67773,557.466
-1803.775,461.88882,683.6671
-1971.2692,464.30905,647.5722
-1643.8252,393.29752,573.9401
-1170.2784,315.23737,375.35947
-929.2168,348.8879,263.65958
-798.45667,439.95096,209.65337
-718.96063,555.1276,144.77443
-620.97485,659.55786,68.46151
-540.77216,738.6949,58.638523
-554.7815,763.6388,131.74261
-633.5615,665.46796,225.05539
-862.73016,778.0838,350.79666
-1083.9253,818.2194,437.04712
-1202.619,720.8011,388.43988
-1512.4916,765.63666,489.29083
-1786.8743,745.8646,593.9335
-1962.4434,400.7563,515.44073
-1881.9114,229.68535,399.54865
-1895.0931,158.64113,289.1114
-1700.494,130.47311,257.35242
-1438.6224,239.77849,227.43138
-1166.1581,266.3568,165.74352
-884.84503,342.75427,71.33675
-768.77423,421.34995,-1.0102161
-626.57477,245.76805,-40.779057
-535.267,162.06683,-81.92671
-451.1154,127.257614,-64.014786
-446.94226,221.88725,-17.22768
-392.21667,228.82518,-13.768447
-412.5895,305.05853,26.893642
-481.81442,447.4416,102.420494
-567.2096,550.9263,315.8862
-691.1835,603.925,456.97482
-820.66656,649.2512,513.2814
-1135.5837,472.51294,629.7719
-1634.3269,344.93015,795.9143
-1993.6749,328.58292,824.2839
-1913.7164,372.8719,768.71576
-1339.1769,169.25517,608.413
-919.0515,338.31537,343.44168
-771.13873,443.2532,252.97131
-697.51135,473.09302,188.47655
-679.28253,611.9904,137.87692
-577.59686,678.304,86.46683
-534.26483,762.12213,102.39862
-553.8583,705.9401,178.85089
-808.2402,699.3721,316.40207
-1119.9285,750.1357,442.33804
-1213.5907,556.767,398.66168
-1429.0668,544.94855,423.94644
-1584.618,614.4976,526.89923
-1721.3757,568.80286,559.6234
-1641.6224,461.96313,542.489
-1646.7198,494.93756,470.31534
-1819.1923,358.16275,463.5658
-1613.2919,326.08398,199.1632
-1153.1578,-231.97505,119.98353
-830.735,-273.68515,196.57936
-697.2738,290.3269,76.94438
-552.2428,321.7072,-21.113008
-517.24634,409.3088,-59.59522
-504.31644,289.028,-79.67274
-445.73532,207.0837,-80.494446
-422.5236,196.10059,-52.269146
-479.50256,321.5014,-57.306606
-500.6826,378.13275,2.9262981
-628.9872,521.4381,178.89195
-855.15845,578.71545,295.13736
-981.2587,561.7833,344.08636
-1308.0278,540.25684,497.41034
-1752.242,560.43494,801.01215
-1893.8599,415.15665,794.55115
-1631.9062,139.92146,598.2105
-1188.8214,-26.164165,543.2251
-904.0855,-3.751529,478.74002
-721.04504,132.07106,378.08
-616.867,364.09396,284.0082
-530.203,586.1012,222.47247
-421.12878,714.63837,190.03453
-346.46487,763.0923,206.3641
-494.95178,703.1225,287.3808
-717.4452,622.92535,418.46036
-1070.0396,535.63965,491.91498
-1249.6427,418.6582,484.93552
-1377.4149,362.0286,428.40396
-1462.1409,402.201,449.96835
-1537.6781,482.76056,522.3404
-1535.3431,459.4642,467.997
-1555.0516,469.5518,353.75095
-1580.5594,404.4414,308.8981
-1423.7028,308.74005,295.07535
-1169.4052,282.7469,277.3766
-906.68396,260.6742,216.50073
-738.1127,247.78108,123.68451
-628.9087,224.43185,55.255867
-551.6027,209.15656,35.48431
-500.31686,210.87117,19.015131
-448.35666,224.51805,31.294321
-413.95102,289.14938,35.283764
-455.5122,425.1164,54.458565
-528.258,487.648,55.396786
-573.76025,561.7279,157.83394
-729.3433,605.91547,324.18524
-883.29816,569.97473,441.75436
-1041.7472,490.84058,552.5013
-1305.087,529.69885,563.4487
-1564.1763,616.44135,582.52167
-1535.2411,518.739,630.3579
-1300.5771,383.31085,573.29645
-989.64307,320.4829,477.42407
-763.49274,433.27737,348.77887
-646.58936,512.85706,293.11118
-581.42255,444.114,196.66586
-546.70667,533.0167,123.9622
-599.71405,678.7162,187.28421
-643.12335,681.0014,186.82109
-697.4645,788.1414,216.28464
-901.08234,919.3915,341.90237
-1048.9316,844.3817,433.31363
-1172.5,752.49524,427.76758
-1442.5916,801.77563,512.73267
-1500.9824,699.04315,489.65726
-1491.5284,607.4688,439.03848
-1378.4092,565.876,351.75308
-1616.9531,619.0536,384.91718
-1667.3962,473.2863,361.23874
-1314.2272,347.0645,266.234
-993.292,246.28136,182.16612
-769.69824,207.26164,135.2679
-664.29236,244.60211,93.170746
-589.87225,233.45175,60.05503
-558.5673,230.09879,33.744884
-505.3803,207.71599,36.2355
-477.50717,185.1392,39.29454
-454.19952,201.23856,3.4692767
-473.776,286.30768,29.167744
-544.1319,476.46683,165.51988
-614.55005,611.4122,327.48233
-787.28625,700.3173,459.45496
-933.09656,750.46313,617.1928
-1099.6185,546.4961,625.9026
-1580.5253,582.37054,582.51
-1824.5206,491.66043,666.63007
-1669.8267,421.24448,619.79083
-1199.237,348.92496,395.85513
-853.14014,592.89056,192.92874
-662.979,576.88885,162.27449
-586.55585,481.7756,94.6068
-577.9905,582.6435,51.862377
-554.95197,604.2477,25.407394
-609.76434,682.18427,78.039444
-709.51575,609.26685,188.41269
-896.51746,632.22546,250.88942
-1082.6122,729.7658,305.4606
-1198.6538,742.82776,357.41995
-1390.8137,775.5834,434.58746
-1479.1747,740.98157,498.3692
-1516.1974,584.2117,550.2923
-1463.2117,397.0032,471.69772
-1666.6339,342.44293,375.81976
-1756.6544,269.48688,378.70987
-1465.4131,209.32317,325.76004
-1073.9094,107.26727,300.92706
-769.09814,37.76404,195.45334
-632.7464,258.64056,93.1383
-553.7196,215.06363,19.7782
-506.88068,222.76427,14.05666
-476.34625,203.07521,-1.5346233
-455.21872,178.12782,-5.0118785
-497.52097,223.20259,0.19234093
-554.1557,308.8043,35.58954
-585.8555,381.58466,121.34355
-717.5409,508.186,268.98404
-902.0909,554.7133,371.49887
-1131.2495,497.84735,516.5225
-1371.1687,443.49945,619.2367
-1656.6199,482.12686,764.11316
-1786.6318,374.44617,707.0361
-1494.5176,138.76761,580.3004
-1147.6522,90.028534,484.8719
-878.614,151.8899,380.4312
-714.52496,231.31287,261.44366
-611.74677,421.38083,143.28528
-519.50183,608.2491,102.04895
-453.0251,644.0671,93.522125
-412.78317,627.62463,102.60482
-533.091,593.2625,201.59367
-746.7993,552.6608,311.08752
-1054.3047,606.3634,369.50476
-1159.9977,682.38855,467.61792
-1215.922,631.2161,459.03317
-1391.5465,622.55444,467.63736
-1528.5726,605.32806,532.58026
-1492.3661,512.6299,497.2476
-1454.869,511.73273,442.0307
-1566.0658,516.434,399.3433
-1565.9369,321.8901,343.85123
-1291.3695,252.6966,275.6097
-967.7376,212.65459,206.02094
-766.73975,163.21779,184.94925
-661.2129,261.98706,128.27585
-603.03357,291.14075,70.01826
-553.3975,258.8507,11.089753
-454.9848,185.81053,-3.3293397
-426.62274,208.79114,-0.49367946
-476.96686,320.47937,17.347446
-522.9486,410.29193,53.953644
-573.15576,487.23547,161.68594
-698.323,549.33154,314.45978
-884.0352,519.17194,438.114
-1030.8319,443.10074,543.41956
-1310.4324,388.79102,661.21576
-1682.4147,391.0357,714.16486
-1776.1473,296.8311,682.05493
-1480.9614,230.27608,676.78033
-1051.0293,246.21901,445.92667
-768.50037,292.51144,275.3736
-658.28766,329.1634,199.94247
-612.22906,453.8915,166.8865
-570.0551,543.22424,109.01336
-552.5861,645.0876,96.77156
-591.0745,693.452,141.71951
-686.9328,618.8803,220.76736
-945.16473,599.885,329.54315
-1173.4222,626.0379,369.66107
-1314.1729,657.841,418.1361
-1386.1909,711.0704,443.84644
-1399.8673,643.4729,470.95816
-1407.601,493.57468,493.94647
-1499.7076,377.47104,466.02737
-1742.5518,267.43973,400.8147
-1474.7064,238.33319,318.82623
-1262.9952,315.31952,275.1774
-1108.6346,319.05762,278.321
-858.9939,243.62492,216.20871
-699.025,272.9679,119.6246
-607.09143,252.96738,52.60804
-554.89996,222.72404,6.3808103
-507.66867,198.38387,-2.8817916
-467.72043,197.08925,12.158118
-484.06326,268.14496,32.421135
-516.8467,340.3993,65.16916
-542.0839,380.16974,126.11154
-639.94666,459.30896,270.02814
-824.9904,446.66592,348.3991
-1009.9833,401.9152,453.68375
-1289.3069,389.9195,612.82104
-1654.3971,462.01868,774.9539
-1796.5874,417.84943,773.843
-1561.6018,279.39813,637.79443
-1087.2517,170.8661,458.09824
-769.18384,203.4671,316.2782
-630.07825,242.88583,263.07477
-555.5588,304.31894,149.62338
-511.5852,480.38004,82.65246
-500.18564,608.9545,70.84652
-513.0699,699.0058,116.05737
-615.20825,627.8972,201.4266
-778.5362,556.911,330.0277
-1077.3397,557.2287,467.94507
-1174.9081,543.46387,507.69162
-1268.3037,528.89044,469.3988
-1530.3885,634.7508,568.37616
-1562.5305,544.03827,606.4639
-1363.195,366.8081,484.4957
-1373.5155,371.5692,428.43933
-1436.4308,335.4782,389.1262
-1240.0298,316.26147,321.19916
-1115.3638,336.74597,325.44495
-904.6863,257.79947,287.58228
-742.6701,191.40875,216.92615
-637.55786,251.71051,131.2125
-585.4526,240.55685,59.456215
-501.54218,174.54485,3.7033298
-492.4087,217.17043,16.53493
-531.3548,271.0436,7.7543006
-597.9615,344.54773,38.785133
-655.29065,362.3812,97.96864
-712.43207,395.34045,215.93219
-878.4089,434.02347,324.58008
-1060.508,427.67294,395.33826
-1219.4471,394.41046,526.6006
-1569.5127,442.17255,650.396
-1783.1896,350.17642,651.5938
-1607.9069,248.06871,647.69
-1096.4077,211.32576,584.23065
-759.47955,178.07109,333.1506
-620.94495,207.61823,222.9837
-581.8684,283.1022,199.73012
-551.7907,446.63184,150.0844
-574.60034,599.8852,161.10432
-594.1457,684.1021,171.76141
-705.0054,645.8768,265.74002
-853.0777,556.8254,398.3063
-1083.2589,526.7459,467.87155
-1142.9187,472.4125,482.70496
-1263.4481,436.22922,418.9559
-1463.2081,537.2016,541.28925
-1482.6285,492.54404,578.0094
-1335.6726,398.35535,463.91425
-1432.8573,443.7731,432.60095
-1524.6785,364.59985,359.9724
-1437.0479,308.54083,268.29474
-1263.4197,265.8132,301.34555
-987.44775,215.08987,242.43822
-787.7432,225.30386,162.0854
-670.01984,262.2429,89.55094
-624.72784,278.22183,51.101086
-579.61566,252.33806,14.853624
-546.2205,230.5362,-3.765324
-555.43085,254.5994,8.359267
-584.5742,295.58914,39.58659
-646.6006,342.67722,113.29853
-636.5865,405.38684,232.41148
-772.9548,449.69968,336.7458
-980.4756,467.05508,388.1656
-1075.1171,420.08392,554.2882
-1299.9976,397.4926,626.8739
-1612.5701,435.09756,622.7841
-1744.8943,416.18954,746.17224
-1346.6451,293.45627,685.68604
-894.9937,95.207466,425.6872
-709.5537,91.30762,275.05362
-640.2522,245.79483,216.64642
-623.4519,404.9975,184.61235
-658.83453,590.5869,156.91037
-637.1931,761.5688,184.69041
-627.98224,775.5505,229.27742
-719.93756,684.84204,366.55618
-995.2595,636.7843,481.60104
-1077.1661,581.9013,478.20032
-1191.3534,552.0364,371.45056
-1387.8766,675.6178,407.28268
-1459.536,667.5414,433.96802
-1462.9928,489.918,407.8301
-1386.7555,422.7847,372.81168
-1552.838,387.6237,330.32098
-1494.6869,320.55423,283.6895
-1314.9822,343.61032,283.9934
-1147.9283,300.28558,280.984
-969.86487,216.19075,229.49104
-781.31116,199.12717,129.3453
-671.0227,194.47842,60.48384
-574.6265,170.29385,36.535736
-536.21985,179.45166,40.59486
-524.4268,208.36444,57.36772
-559.3122,276.74677,59.162273
-578.71075,326.66974,99.86105
-607.6748,374.95883,152.84062
-653.067,400.1598,243.35355
-917.28235,531.9879,329.72998
-1088.4888,564.33636,472.88428
-1326.474,469.69717,592.3214
-1657.8153,465.12518,689.20905
-1693.1235,292.5219,614.3793
-1399.8732,210.82756,537.0826
-984.3108,163.72298,421.25574
-768.197,138.8353,309.03363
-711.8934,294.94693,256.588
-683.07733,469.30054,219.3507
-647.4664,592.8171,187.1235
-594.36426,680.3809,177.39374
-631.66,717.1083,201.11267
-789.3055,688.6183,351.8997
-1002.3145,648.1289,469.94794
-1149.7638,596.22974,492.7744
-1247.7031,487.33423,451.1368
-1430.1389,503.99536,470.71228
-1508.4403,504.36984,544.8396
-1454.5249,437.14035,526.01166
-1408.6069,425.54266,473.0229
-1436.3334,403.81827,371.6545
-1506.8689,371.82983,310.13904
-1350.9734,336.83868,287.20786
-1078.8788,272.70007,252.46654
-866.35754,193.19833,203.07092
-725.1608,272.8712,136.89844
-601.3237,239.84927,63.092617
-535.9313,238.87685,30.827696
-471.3702,216.2301,35.26467
-411.23438,207.60532,22.958841
-449.96426,272.99234,33.132107
-493.3739,368.59055,75.20395
-539.37476,391.3487,123.87564
-633.6451,470.9391,229.63481
-854.2829,566.1226,333.61545
-1009.3192,489.3167,399.71176
-1218.2749,404.0734,496.50806
-1553.4934,438.51743,690.9119
-1754.091,383.26294,741.3471
-1624.4977,283.63626,657.1378
-1183.5793,158.9317,539.50244
-883.3909,123.54345,414.4355
-709.8221,192.20694,337.98788
-629.98816,238.263,250.98409
-569.9636,476.9826,200.93822
-565.6383,623.67834,201.49171
-540.4938,651.05206,246.56377
-572.63293,576.6597,299.609
-742.30493,513.1175,396.25397
-951.77277,505.0864,470.63776
-1123.6531,507.8642,510.2928
-1096.6555,455.6289,439.34482
-1186.2312,513.3729,440.89584
-1208.8374,599.5496,481.8826
-1290.879,634.4319,475.42487
-1334.8235,608.314,457.19904
-1317.4159,547.86993,337.2742
-1457.4568,566.7035,332.121
-1477.8245,396.33936,331.0329
-1327.7378,263.7167,355.83575
-1085.4312,159.68071,318.44943
-857.7139,164.10532,221.40681
-710.59906,213.58675,157.72981
-608.0668,258.21866,145.93416
-572.3582,251.46873,139.02794
-541.3765,240.82614,116.01395
-503.07327,211.44121,114.62811
-505.1881,214.86217,127.61558
-530.34937,273.79675,183.21864
-559.6761,350.26007,279.97498
-718.20087,453.43375,369.60306
-939.58813,528.9676,426.80466
-1002.4928,382.12906,471.90515
-1309.3953,378.59033,555.05206
-1719.4905,397.92014,544.5159
-1712.1212,351.11246,527.53345
-1449.2643,293.29852,497.6029
-1135.2867,293.56454,370.57248
-965.21497,456.94308,232.74338
-859.1754,537.47217,217.61182
-785.56055,602.4381,151.60652
-721.95746,661.89246,92.673836
-691.9307,739.2641,112.0512
-774.2143,735.0675,199.38167
-937.85504,701.72156,304.44803
-1073.1,771.7661,366.91324
-1085.104,678.7465,366.0826
-1240.9315,676.7533,400.52783
-1387.109,729.1334,489.0312
-1485.4076,603.6835,533.0971
-1593.7239,443.13516,482.4437
-1724.3269,392.74597,379.57938
-1874.4912,312.59088,332.29684
-1742.8746,266.45306,313.69418
-1429.482,269.2959,270.9441
-1080.1858,238.12791,196.80002
-894.63824,253.41582,92.59813
-777.84894,276.9439,32.63019
-660.7563,254.90828,-14.294154
-573.36346,198.65054,-18.822605
-506.29315,199.66248,5.5537095
-484.48886,233.42175,17.034487
-461.10126,255.91035,7.084749
-446.72003,315.3193,57.606983
-467.38858,457.72614,214.43591
-569.702,559.0925,390.46274
-761.8729,682.2202,560.67676
-874.74286,515.40814,580.3294
-1178.1298,296.662,631.60815
-1694.8367,281.76978,707.21356
-1772.6455,268.03137,689.0664
-1516.3928,301.2889,647.97675
-1129.3607,313.71823,467.11087
-960.04956,443.4862,301.4042
-844.6513,553.1957,226.63431
-776.96704,548.5337,132.44391
-729.4467,619.0401,98.391396
-718.83563,670.89545,133.99489
-722.3796,654.00806,105.352295
-786.6428,682.7224,166.00273
-980.48737,740.3864,280.8934
-1067.3966,748.18634,318.94864
-1242.2128,765.0185,375.00528
-1275.6819,752.9274,475.49588
-1277.0847,685.2493,533.32196
-1330.6846,667.4755,544.4108
-1436.6078,625.6437,447.47098
-1694.7632,490.41403,371.2013
-1619.7244,282.11334,349.7042
-1383.4176,222.45546,339.90958
-1172.274,216.53806,334.60403
-938.72406,173.38745,219.9557
-784.0191,240.44374,101.900406
-698.02576,276.57562,54.041416
-610.40076,218.90901,30.242239
-532.9387,178.28021,24.159628
-476.7251,200.0653,19.515375
-455.73938,258.58243,23.636469
-461.33667,380.45776,75.6632
-491.3465,448.4863,177.2586
-645.9026,577.63104,297.687
-880.52014,685.3119,457.84964
-967.10846,482.38922,639.985
-1180.7616,340.4882,620.7931
-1578.0879,345.87347,604.8769
-1718.3274,294.8579,579.4957
-1467.1289,243.49191,584.4753
-1078.2499,276.52658,452.11993
-843.6706,375.55908,302.71307
-748.1667,395.6408,201.49364
-708.534,496.33316,146.42131
-696.12854,588.6908,109.18665
-660.56586,652.38635,96.18914
-683.89624,687.4249,138.15645
-780.6568,641.1405,230.24379
-973.6211,656.88715,329.09036
-1033.2249,696.5396,336.33817
-1131.4388,769.959,353.59558
-1332.7806,828.96356,429.06537
-1400.187,803.9436,506.7013
-1465.5035,666.48267,523.96747
-1390.8431,534.22955,502.23938
-1623.8644,479.5468,483.46704
-1724.943,382.6274,465.1409
-1517.349,362.89954,304.9709
-1329.7323,289.30957,255.50633
-1084.5061,-74.32946,283.27545
-883.9234,223.79451,141.80829
-706.965,307.20105,37.905926
-578.0881,210.98355,-16.990234
-479.68585,227.16325,-34.396935
-422.94183,199.02875,-20.327675
-388.3034,252.00029,-21.018084
-400.6949,310.33875,-16.380192
-375.5285,376.6484,36.520496
-445.76385,455.2341,184.16193
-631.765,636.00806,326.01724
-799.3805,667.0321,475.44238
-969.9812,452.84103,567.82983
-1406.9384,344.89676,658.5153
-1820.4285,326.36557,724.05304
-1916.2102,288.40213,741.1892
-1481.102,235.41187,707.08905
-1016.87305,174.48,482.2604
-815.2589,323.21304,314.25864
-731.3952,347.08575,258.37177
-676.09155,415.80164,122.247696
-640.7487,647.1473,80.92869
-592.6586,716.8605,83.35957
-618.4247,704.3661,108.51675
-678.97363,658.9477,202.29405
-953.66644,665.55255,350.45795
-1078.2998,682.22534,408.00934
-1172.5327,725.10583,423.4298
-1304.8232,744.9282,481.60397
-1397.4937,688.6022,531.0989
-1365.012,607.1217,501.7648
-1422.3284,642.05927,435.3429
-1543.0931,571.8058,396.94168
-1568.0673,407.17313,379.22635
-1528.9641,353.50223,386.63016
-1206.2795,172.78424,337.2807
-914.07587,146.10857,213.51273
-784.1662,302.07626,115.414085
-686.5657,259.03867,57.16623
-587.37335,245.8713,53.466507
-550.2359,263.6269,45.424744
-485.6989,222.19432,30.71653
-400.67953,230.68243,22.730108
-396.87628,355.66284,61.955208
-409.05405,460.16135,175.4661
-459.5654,551.61365,359.87872
-605.7424,650.2149,511.66788
-794.36285,706.5173,699.77435
-886.23535,484.1179,683.2904
-1177.7487,288.0304,565.3247
-1572.5096,203.97498,483.44177
-1682.5635,195.42879,550.31525
-1503.091,252.28848,607.44293
-1154.7483,363.82248,375.08893
-864.6006,732.57367,176.9564
-724.981,630.16284,183.36797
-698.6723,452.02664,159.07013
-695.48376,537.6423,116.97389
-699.7583,607.6361,136.40518
-714.946,646.2948,144.49026
-782.4437,624.9284,233.74483
-969.3356,685.69586,360.8022
-952.84314,651.9511,361.79755
-1051.5161,648.09015,324.6414
-1322.3069,752.9081,457.3469
-1280.6035,672.96234,497.9248
-1287.058,550.10736,429.24298
-1352.8516,481.6969,393.48688
-1531.8647,490.44992,439.62833
-1520.4785,420.09598,384.94992
-1419.1555,325.7919,348.48788
-1254.1953,241.95952,307.6362
-988.8046,153.85097,236.04518
-810.1685,174.81142,168.26274
-720.41797,224.52327,131.53035
-625.90894,220.7057,105.90708
-598.3964,248.09428,103.87848
-556.077,236.39528,108.81025
-531.8223,275.39456,104.9183
-505.24548,315.94162,98.99793
-484.2461,396.80258,188.50977
-510.76282,523.41925,273.05185
-621.1867,649.973,328.16077
-861.02106,786.6796,493.7495
-964.804,656.80273,612.528
-1168.323,477.787,593.4203
-1426.4297,353.53802,545.9637
-1406.1953,150.59445,602.15027
-1231.2526,178.70555,514.04694
-1020.4992,281.78094,311.10324
-862.4198,533.64966,190.95279
-721.1079,701.0371,102.33671
-708.9912,538.49457,147.05827
-721.1205,479.96786,131.40697
-785.82367,528.5193,131.76732
-813.5679,647.3554,179.36417
-878.9678,632.59216,236.18565
-985.7821,687.9366,289.92047
-1035.8878,718.8781,383.34976
-1206.1459,685.5573,470.56693
-1305.8247,768.79254,588.2488
-1363.2264,697.26416,613.63104
-1251.4562,571.4157,538.45245
-1308.6653,634.1782,473.87415
-1557.3137,552.6502,446.8308
-1540.7814,277.173,375.87595
-1376.1339,212.10252,334.78958
-1140.3057,155.35979,297.09277
-932.2268,199.08214,213.88701
-798.64233,291.17847,124.44564
-707.14795,269.89383,61.610683
-615.58105,256.1802,29.356464
-535.8012,209.20305,14.490291
-475.55823,219.62039,43.623306
-465.96768,274.3338,72.05686
-454.04184,330.50793,108.152824
-481.6648,436.4218,222.9646
-563.1076,531.47235,354.34775
-710.7153,626.7363,462.66342
-895.31104,625.57526,581.3486
-1019.4327,352.692,569.09503
-1435.7687,319.9311,610.8968
-1725.0756,300.44348,665.6612
-1618.5669,309.47607,752.8449
-1182.4325,198.93336,554.6829
-887.35,229.01628,301.73767
-740.0203,604.85236,188.75894
-658.94104,539.86865,140.1001
-635.4931,494.74713,159.83803
-638.8205,519.0875,167.22754
-643.62915,583.8292,166.73265
-702.9248,654.1199,208.25143
-850.5625,627.959,306.01727
-996.70557,690.97644,358.4664
-997.15875,661.2828,379.8587
-1166.4656,643.1604,410.45737
-1327.2921,732.41925,526.73047
-1396.61,714.05225,558.2727
-1332.3693,702.728,532.16736
-1267.653,650.3503,453.05276
-1456.3431,527.6789,449.20673
-1517.2236,333.81635,386.23416
-1331.3109,315.97748,286.70966
-1124.7144,217.41066,271.32285
-912.3689,154.72046,225.4209
-797.6102,360.2509,137.32193
-691.8062,286.01282,75.86701
-589.2631,250.56331,38.462852
-534.0188,240.60669,27.278646
-474.3412,231.52849,24.661785
-447.79926,245.40645,27.559969
-461.3531,356.7869,77.80359
-488.96964,440.75534,160.3767
-511.6347,503.64832,302.92545
-675.8956,585.35114,417.35202
-847.3959,608.2735,538.39954
-959.9085,488.32806,587.63416
-1141.299,453.6608,642.21436
-1387.4243,433.336,730.3467
-1488.5503,372.65378,662.67004
-1325.8738,335.10046,547.3087
-1070.23,314.34122,463.33276
-880.9115,460.39255,393.65622
-753.29,481.14075,302.2279
-712.7543,543.23615,283.15347
-656.40295,673.6397,301.43448
-619.2248,755.6114,329.1913
-651.65894,761.8707,385.91525
-685.09076,711.5985,416.40384
-737.893,722.0487,430.4588
-819.57056,693.43427,404.81274
-905.08527,626.0512,366.2135
-1080.9039,713.3515,357.8658
-1375.5232,822.18085,381.71686
-1563.1841,805.86316,256.9033
-1570.3466,595.1202,126.48253
-1507.8417,590.6053,21.308355
-1403.8816,353.70496,-143.61252
-1178.2285,21.58129,-153.14917
-941.4937,496.37183,-220.73503
-808.74005,756.5553,-229.63841
-743.2297,936.6442,-167.63924
-744.3113,721.1486,-130.30653
-668.4066,523.9553,-75.47404
-579.51385,578.71716,-51.091824
-514.0554,689.6089,-21.40573
-457.93707,766.1252,71.76008
-415.89484,865.7739,141.0663
-338.23343,793.91895,180.89355
-462.0001,851.2313,309.3862
