# PAMAP2 dataset (wrist-mounted sensor)

acc_x[mg],acc_y[mg],acc_z[mg]
-659.75745,634.0859,124.71004
-638.6989,686.81384,187.34807
-594.96216,655.49054,202.73442
-605.6779,717.2931,224.2614
-631.5113,700.33563,240.86697
-705.1597,688.68396,331.1901
-722.16516,594.7235,348.92258
-831.5919,536.31006,364.06046
-984.9077,489.1973,376.86908
-1205.4026,421.51624,494.79306
-1396.2124,260.54422,503.28754
-1431.0792,196.13115,315.06302
-1449.8928,249.7743,195.88782
-1334.7483,193.45135,158.86548
-1172.7386,110.32293,131.0683
-1093.5447,71.018074,107.837746
-1096.0377,183.58125,137.5829
-965.22296,265.31958,144.79427
-707.82367,329.9219,165.42792
-553.575,337.4773,217.51752
-432.75223,318.28424,241.68181
-321.59616,315.83154,196.29463
-348.45773,383.51758,199.35382
-430.293,415.58328,214.72548
-512.666,457.8807,251.15195
-766.3057,541.3039,349.297
-1034.3009,604.17596,455.00342
-1241.209,609.95496,456.60675
-1431.7616,637.1898,482.17242
-1635.351,640.37274,552.0471
-1697.7389,640.40076,527.2576
-1531.9902,587.0325,378.32455
-1482.1935,555.9512,316.6584
-1356.3398,533.5873,226.66913
-1148.3744,441.137,122.950096
-923.999,366.381,63.193085
-703.31024,273.5485,26.78847
-534.5349,195.1754,-13.124425
-415.78262,146.5912,-37.249035
-336.2915,191.26015,-40.116386
-335.12567,294.85834,-36.38645
-368.19543,389.84488,-24.981222
-456.87357,457.9256,19.891735
-607.3665,532.9646,91.8672
-847.4472,473.10162,265.53674
-1144.5879,284.9339,334.45682
-1559.5361,249.59282,310.4006
-1829.6183,363.08002,391.7927
-1911.9268,509.444,579.0204
-1791.7092,510.48962,535.6581
-1451.8782,327.81628,442.51355
-1110.047,206.1677,353.17633
-910.3863,296.77634,257.7707
-783.5318,419.6784,143.14552
-699.1882,546.74054,105.7182
-584.24097,584.6758,48.349606
-559.786,687.77124,27.360683
-519.79706,697.57336,83.78748
-596.0657,678.66705,162.82054
-737.6964,760.99646,318.06888
-937.0891,735.9468,381.5547
-1187.3525,719.617,387.02002
-1629.1519,813.73254,453.87692
-1745.7938,696.4833,468.6224
-1627.0165,557.1631,365.93423
-1719.9221,430.70303,266.30597
-1750.114,322.416,205.82335
-1511.0623,263.0287,173.08362
-1167.0485,222.23724,83.86519
-848.4695,224.34143,36.632298
-647.5401,219.87985,-9.443732
-551.84375,227.09059,-44.253204
-457.9923,197.72182,-52.369915
-435.28894,222.69095,-52.34603
-430.36273,238.4362,-47.034283
-477.94382,272.80164,-25.316463
-634.049,375.33157,30.92353
-921.4468,449.1664,170.50584
-1250.2784,453.00705,287.65506
-1600.9908,408.35248,349.68616
-1796.693,416.4065,413.2513
-1859.2462,346.8742,485.3923
-1785.4009,203.85246,533.6196
-1529.8811,240.84727,496.19675
-1237.1727,476.68015,422.81644
-962.0305,612.201,279.6361
-756.4119,600.833,193.32503
-618.1043,540.07495,169.2321
-531.424,498.74442,138.96004
-491.4736,515.2543,134.39952
-562.9544,562.89343,190.51166
-633.4503,623.32745,291.443
-834.30707,667.6439,393.2174
-1060.4359,646.62854,423.92746
-1470.7697,673.7274,455.13193
-1549.9996,562.55426,408.00134
-1542.2996,552.3536,404.1733
-1595.2697,495.83502,318.41507
-1776.386,378.10687,245.94948
-1797.0992,311.1138,193.34184
-1405.7084,267.60284,168.82222
-1071.2767,261.89548,138.24619
-881.77264,317.8706,57.232403
-785.2199,340.44775,11.441175
-667.2993,232.18466,-60.75307
-572.6333,180.39827,-93.07027
-475.66525,164.67989,-71.71867
-454.37454,229.2428,-37.122444
-508.56482,364.45764,-29.082235
-651.11664,519.7201,60.367775
-930.2326,618.43695,173.43759
-1200.6095,528.5705,304.86542
-1451.8374,454.1117,394.20798
-1578.1107,372.32977,401.2595
-1788.0233,298.46182,415.64032
-1762.2427,280.52353,467.0694
-1522.3164,291.93375,471.00378
-1282.1333,456.74863,402.59778
-1044.5073,568.95233,268.8979
-884.14886,636.184,200.94548
-798.6727,601.54694,166.91205
-649.6598,562.52905,104.93245
-615.2808,582.5129,112.22062
-642.96857,638.4388,174.6021
-689.1779,652.94867,214.4255
-755.23694,691.1134,303.77313
-907.5675,694.6739,340.7448
-1190.7819,722.2443,381.85922
-1431.3638,719.5176,439.0109
-1506.5477,558.9536,381.3427
-1499.3699,466.365,266.47717
-1590.1422,399.38052,96.93899
-1660.6763,283.69547,-10.969365
-1577.0906,240.40971,40.098385
-1280.9377,226.2028,51.0784
-1052.8281,268.70236,-24.014612
-891.4571,284.28763,-89.12604
-763.3154,316.44635,-88.76587
-768.82477,216.41632,-164.00732
-726.6246,138.15515,-188.40443
-518.58246,125.72024,-130.64786
-377.3016,229.69807,-52.26273
-310.98108,356.43005,0.12430545
-364.2633,578.0779,51.55665
-491.1109,805.6789,93.94048
-770.9763,997.7684,332.5319
-1039.424,673.91016,512.7001
-1270.2406,432.89166,467.32025
-1651.9966,470.90823,522.9689
-1922.1998,470.4725,630.9408
-1714.5358,489.9116,572.76715
-1261.4854,291.08533,374.96246
-1079.1587,178.08026,363.5189
-1010.82306,272.83063,355.6102
-873.0736,393.9818,227.76517
-776.3393,559.3975,160.15808
-583.5406,595.5243,89.90828
-427.59216,577.52905,20.854044
-404.3122,561.8822,97.757774
-427.17758,469.4636,90.9144
-502.82147,482.98273,94.622086
-629.3487,522.9084,79.937706
-751.92334,550.29816,78.98064
-809.99286,548.8052,71.88072
-803.4416,515.6246,51.572956
-816.4185,499.44644,9.896929
-964.28784,498.48712,23.81275
-1105.3448,676.5969,13.570528
-1415.1101,750.05493,-69.46881
-1564.1057,654.17285,-73.29804
-1652.7917,698.903,73.24289
-1469.5958,600.2531,36.941742
-1273.3649,457.25745,-109.448326
-1244.6858,468.76373,-137.0386
-1144.6302,451.241,-87.67306
-969.6752,471.84686,-33.87513
-881.29895,480.67712,-107.27879
-740.16504,386.49432,-133.27985
-671.0898,400.16586,-119.73605
-670.97253,437.2069,-111.8943
-649.9983,462.9752,-19.684652
-614.816,440.47128,-21.585632
-623.92053,445.6906,-5.6540413
-716.75305,487.2214,69.94314
-865.2803,497.23233,211.84671
-1011.8914,488.26123,316.2248
-1205.3989,483.26364,469.184
-1256.6,293.25046,535.9914
-1137.2987,116.57261,547.1231
-966.38824,113.44397,661.9465
-959.3458,137.23563,649.2993
-1056.4712,252.07832,689.36304
-977.3356,342.76935,724.0021
-802.8003,452.01962,627.0578
-685.075,499.46606,490.82962
-658.54236,491.9222,457.28513
-697.6332,510.96695,419.19617
-732.7755,570.5582,349.75
-727.5449,572.33746,275.68225
-721.9076,528.23157,219.4879
-822.87177,536.77014,190.96227
-884.4018,516.4896,181.0823
-1073.8541,530.72766,127.41373
-1325.8612,686.5365,97.48214
-1700.7649,763.39557,68.198845
-1857.85,736.72675,147.86739
-1582.9358,486.79297,83.53178
-1477.1954,388.51584,-80.97744
-1544.3884,407.15207,-123.19431
-1420.24,293.03207,-37.04377
-1078.4058,261.53116,-21.098383
-921.3612,337.5194,-15.217375
-762.3432,324.60962,-37.648853
-693.2224,319.0469,-65.55212
-581.5651,304.66943,-61.03484
-571.4059,315.2686,-48.75111
-612.0207,408.72943,-32.969456
-727.41235,448.4917,6.201308
-821.9068,470.6054,108.100685
-1025.141,537.2107,263.85663
-1237.9921,496.24777,349.73657
-1330.5693,346.19174,355.1205
-1305.2224,243.00172,375.13608
-1365.9084,190.75545,372.4957
-1410.7998,228.69377,366.95532
-1328.8463,349.55853,369.98978
-1149.8441,458.55563,377.8902
-967.68677,515.5769,327.02518
-805.78784,535.5893,166.25548
-769.5559,571.84467,147.22545
-706.964,595.6407,128.37361
-671.34906,665.05634,121.589195
-706.3807,709.10034,166.38739
-783.9592,704.0291,225.39362
-819.93616,711.78815,288.18753
-968.2077,706.33276,313.6557
-1262.6041,737.9744,405.59207
-1512.1309,787.8842,423.50198
-1629.4772,687.1666,340.81723
-1603.6144,521.2356,227.93922
-1785.0891,369.54483,183.09375
-1673.6746,192.28383,169.97444
-1462.3054,222.60922,161.86053
-1216.1205,270.85284,132.68166
-892.2633,282.29956,53.251163
-741.4305,294.75275,3.527388
-659.113,283.6381,-33.140217
-607.2415,258.52823,-30.24055
-542.1486,239.7521,-44.175743
-534.384,292.81482,-3.2151523
-575.6463,407.5259,16.957771
-707.8034,450.67102,90.44521
-1003.6409,520.2785,165.45901
-1222.8601,363.4834,282.30014
-1332.6208,299.73483,373.99374
-1446.9283,293.97763,393.7234
-1625.346,324.75232,409.54755
-1669.1951,391.5697,492.18735
-1465.7173,426.14072,493.12262
-1181.6691,478.2548,330.6338
-991.1087,584.3986,184.85461
-854.6803,603.8143,112.340614
-778.296,574.9221,67.258995
-745.8572,586.35223,76.85348
-701.61444,606.6717,59.129234
-695.83154,679.75354,77.57295
-754.4509,728.57416,158.47026
-917.09125,747.2018,247.60078
-1241.8662,909.03284,344.92545
-1468.2382,959.0578,411.25952
-1529.8856,828.76904,390.8922
-1618.3679,773.21906,292.54074
-1773.3462,647.9772,162.76376
-1923.4905,543.10583,209.49004
-1818.3215,518.76294,253.00316
-1479.9371,409.31003,111.497185
-1158.4639,320.09268,9.193436
-899.24347,238.2945,-11.448326
-697.37115,160.42912,6.087495
-568.32214,114.22105,-6.978182
-449.37692,107.72364,5.302897
-452.86383,180.58565,-2.7952476
-487.70218,289.61935,0.9981293
-550.50244,372.293,76.01611
-745.8112,456.0665,210.11787
-1026.7233,693.522,299.3916
-1218.0192,822.3304,346.45428
-1320.7405,582.8262,306.48376
-1660.6747,600.9161,386.60898
-1890.5848,701.9364,424.91733
-1885.4203,658.1022,374.7819
-1670.2249,728.7974,355.40134
-1339.1188,855.85913,269.20773
-1029.6686,716.3405,126.9453
-805.7039,676.22864,50.40582
-676.71826,716.4043,51.29195
-600.1947,703.36536,51.97323
-541.02655,725.313,74.03766
-584.3499,778.2902,136.71156
-694.99774,744.08496,203.03355
-914.5939,779.49475,261.37094
-1308.7335,817.2006,299.18872
-1677.7612,956.8739,255.8874
-1844.1338,880.92786,259.0124
-1841.7748,696.87665,155.1317
-2198.53,575.574,61.27888
-2126.5361,295.5629,49.299553
-1791.0447,400.76587,45.02568
-1452.4961,335.67572,42.403946
-1071.2522,265.71674,-74.69152
-814.72345,240.69965,-88.82998
-655.801,217.44753,-77.70514
-517.94855,189.7388,-59.123146
-409.07974,183.34286,-54.803585
-321.43207,192.19641,-39.21177
-298.54678,286.87097,-4.7897005
-362.40872,423.8575,76.484886
-621.93634,681.17175,259.36627
-820.88696,784.3396,368.5917
-1004.4571,642.3947,279.72003
-1336.1774,666.45984,316.64438
-1564.1561,775.64075,400.1536
-1581.9952,573.1573,365.88843
-1708.5426,583.8989,296.06506
-1744.5825,696.3061,336.65515
-1530.7493,861.50616,350.96927
-1139.2823,829.22626,236.84071
-936.7259,570.7565,130.66219
-775.55475,472.51416,135.74835
-656.43,520.9344,77.01677
-526.67694,656.50525,104.672226
-488.64865,677.834,164.00548
-466.06433,632.174,200.99597
-593.6712,683.392,292.78925
-810.53925,669.6547,388.8207
-1002.8954,640.91614,470.8421
-1060.2386,633.05347,440.42935
-1256.1387,644.32697,334.7524
-1363.2411,678.5032,307.47968
-1734.1271,670.75684,278.02133
-1931.5334,418.5145,181.78198
-2020.1835,239.53197,79.03661
-2192.3708,248.4071,109.20521
-1914.962,251.43227,92.88631
-1734.5879,342.71317,31.776642
-1472.2711,415.63815,11.969175
-1143.9858,346.54163,-17.549007
-823.10297,255.50179,-1.0842718
-613.5481,181.60808,17.149387
-470.02158,120.98521,29.576916
-355.93585,88.733475,58.719604
-252.38554,84.43843,84.53475
-174.3326,127.262924,126.00794
-49.76893,103.639496,201.52219
0.109571785,55.088455,189.57336
-164.02844,305.06592,212.71289
-450.06772,660.754,275.98047
-573.92426,563.60675,305.51367
-1029.0564,310.63394,337.0248
-1760.5525,238.0356,445.13544
-2414.982,374.57352,559.0405
-2712.0525,703.9711,731.2427
-2165.9214,763.1939,754.00244
-1443.3601,457.03516,431.66705
-1264.9818,217.3673,331.0938
-1077.5576,271.2347,233.23215
-907.8233,507.83362,18.016762
-705.6211,733.5116,-48.534218
-456.46945,707.81964,-109.55
-282.1877,671.62775,-74.15414
-285.9744,576.0533,55.186718
-312.4918,479.57788,97.17323
-434.58502,565.83374,133.54514
-554.9808,658.8352,212.76048
-656.8178,716.2182,227.94984
-744.8034,694.34155,199.13333
-902.265,737.06366,211.94414
-1030.7881,632.14734,238.69106
-1141.1512,537.42413,282.39944
-1116.3037,639.8939,311.73758
-1489.3667,760.8023,361.92514
-1837.6912,727.18427,400.84055
-1776.5732,883.97675,174.46407
-1741.7753,852.16327,68.27765
-1568.3129,433.96414,-13.597134
-1277.5715,252.82603,-73.60004
-1016.4464,380.19788,-137.3633
-841.36523,499.062,-211.55675
-627.506,383.6884,-212.47345
-493.96036,411.54382,-194.96048
-465.04724,473.9179,-171.56747
-418.69434,454.23575,-136.53448
-347.43427,392.87988,-121.37814
-353.7383,448.63794,-56.17051
-398.00214,515.7395,47.49163
-464.60663,609.0752,175.1562
-545.3197,626.32513,253.30586
-674.19073,529.3301,433.3919
-795.77484,429.3451,609.00653
-970.0262,295.428,672.6452
-1350.6371,261.61053,704.9233
-1516.3876,298.5299,923.1315
-1276.8324,192.92564,975.5601
-1163.9445,260.51962,693.57574
-1130.3032,275.11026,535.8383
-1050.7977,294.3363,466.05154
-1020.8841,413.99112,452.00586
-922.1507,541.2619,337.7973
-827.1668,700.0459,304.6128
-735.9512,729.81006,272.69852
-683.0982,718.64886,224.96036
-699.67145,689.2177,208.05533
-774.1169,607.3961,175.44469
-737.4981,491.51114,99.79544
-779.7978,468.68912,110.45754
-834.2654,460.51492,85.9623
-851.6402,436.28812,24.037235
-1111.2721,502.7783,-11.083715
-1297.5411,478.73666,-50.61474
-1574.1144,557.0386,-113.58627
-1922.0554,703.03064,-80.09542
-1988.3467,640.898,-139.28076
-2031.6046,546.85974,-236.75662
-1965.4996,457.753,-255.71663
-1683.5403,341.12955,-143.7229
-1293.6251,314.54898,-0.006482442
-963.8521,341.94046,-8.365387
-776.7499,349.22598,-44.739384
-669.4247,385.48065,-31.155422
-580.77673,331.74756,-68.91824
-501.25256,241.06126,-57.995934
-568.6657,301.74844,-41.07714
-710.0827,375.38138,42.882713
-808.871,372.93195,94.346176
-928.4306,412.64154,187.1272
-1136.9025,453.06454,355.83926
-1266.6254,388.79962,402.80664
-1434.9734,364.63562,453.7934
-1542.3629,314.0427,614.6093
-1462.008,118.79142,465.46954
-1490.3724,184.97125,363.65988
-1459.4944,347.3735,399.46225
-1243.9773,499.7301,408.54407
-945.43634,596.2792,264.8421
-770.6602,605.2199,127.599846
-635.48834,566.30524,82.608795
-609.89294,560.90393,79.49166
-609.7753,584.4114,72.19852
-655.9847,641.8835,79.13166
-653.8218,682.524,86.961975
-739.89484,723.9169,140.44838
-883.20795,853.74744,250.12227
-1170.134,884.5978,315.3936
-1423.2251,807.22473,319.23312
-1526.7855,693.67084,306.44962
-1642.8828,606.03656,253.80858
-1882.369,497.6992,188.53726
-1800.2635,287.92072,156.31377
-1675.0333,227.14354,224.9557
-1417.8885,187.4464,190.4742
-1075.482,221.88106,107.69903
-941.6387,330.9103,49.979866
-780.27374,260.6603,41.674324
-633.32556,219.18356,-0.8698696
-606.43695,228.30984,30.609274
-508.2586,243.70015,27.714771
-545.15674,326.1318,53.323204
-637.86035,534.70984,95.46741
-814.2782,672.7447,211.5189
-983.75464,681.9583,261.9819
-1145.4142,511.79523,305.95758
-1328.493,322.68726,441.22537
-1433.0374,214.86433,413.50793
-1534.7971,308.99655,403.9144
-1562.1896,438.80286,499.52237
-1458.997,503.73953,482.71558
-1239.3453,596.735,338.18997
-978.53204,632.8854,247.18399
-859.68823,555.6013,206.50847
-753.28613,485.75568,96.85157
-685.41315,635.6596,82.08864
-603.97577,715.95703,71.64213
-631.8421,735.1629,80.02396
-693.5767,740.0966,121.54439
-940.0491,768.0046,224.13387
-1214.6205,802.5164,283.07803
-1454.5415,876.6079,306.73145
-1555.1143,786.7356,262.81097
-1625.4674,725.6015,213.79811
-1937.9768,555.07947,179.1269
-1864.2317,231.49934,158.8407
-1779.7291,179.74309,236.74315
-1377.3763,175.21538,202.15738
-1057.1366,270.83884,125.3754
-839.5359,322.299,67.91859
-813.9077,382.57077,30.629295
-688.19025,263.9481,-4.9855814
-587.0134,208.33308,7.6124334
-542.14703,205.82317,11.490665
-560.9702,246.21495,52.247757
-693.2201,475.6943,148.66965
-794.20953,612.0514,239.17444
-924.437,577.53107,275.187
-1020.56433,561.08246,262.9708
-1074.0276,402.78003,332.73453
-1259.4553,329.84607,375.6014
-1581.7897,525.974,367.51584
-1708.4729,641.137,413.56042
-1567.8912,670.3943,458.9664
-1275.0962,706.36804,349.542
-974.402,636.8354,146.29323
-854.0846,553.19055,101.149345
-739.67,546.1296,95.84221
-726.20215,612.3008,131.30478
-657.90753,674.66205,113.20525
-661.8708,774.85913,145.6929
-708.4382,769.3286,262.0873
-1009.23285,789.3645,383.3272
-1292.8796,787.533,375.0718
-1551.6093,790.0375,319.28867
-1561.3059,618.3368,304.5029
-1578.7732,498.8511,256.92715
-1824.7131,418.2313,211.73611
-1789.6744,303.06393,233.34901
-1511.786,284.2411,206.10457
-1175.229,259.36023,113.00875
-1031.9551,332.91827,87.542076
-807.44904,311.3521,42.39933
-658.3467,255.85596,13.613892
-549.088,208.12154,-10.770244
-480.87518,164.13446,-1.7148699
-467.66772,274.05948,14.740147
-535.19366,391.50385,55.479744
-626.26013,513.68335,121.611435
-823.188,686.0926,213.05168
-1032.6302,686.8685,330.0838
-1170.0813,443.60315,362.14365
-1277.8949,389.72147,365.88596
-1425.1239,634.18445,420.38162
-1400.4658,561.32684,432.29602
-1317.1372,397.7779,438.19675
-1231.3057,470.94086,393.4789
-1123.2208,600.4284,306.01727
-925.84814,672.24365,211.03368
-799.27246,562.12,143.53833
-696.45544,473.7267,111.196686
-701.6692,587.38245,139.21413
-715.0077,686.08435,212.77274
-687.48254,715.55334,243.05325
-721.7291,788.59534,314.0769
-860.0357,738.3075,345.8149
-1196.4974,807.7169,398.13962
-1694.935,868.7195,439.31213
-1762.0531,681.1822,386.22675
-1610.5555,565.24713,318.55908
-1690.3284,614.969,240.07312
-1956.9102,569.82043,203.91241
-1801.7207,472.87198,176.79637
-1389.7855,405.6142,121.207054
-1079.0719,493.34988,51.96108
-824.84155,426.94904,-39.24111
-624.30237,242.20883,-54.833992
-457.83914,173.80325,-41.742104
-394.17432,167.21071,-35.958923
-346.32285,139.66733,-22.096422
-320.23325,161.88557,7.324692
-373.49472,346.65393,33.748066
-480.27963,485.81186,144.54907
-768.80176,718.8747,310.8672
-983.1974,919.78015,349.73523
-1118.4622,487.84122,331.15622
-1519.1155,450.97025,397.2841
-1751.8113,520.8777,448.5624
-1952.9789,387.67377,359.50485
-2036.2192,623.08466,394.3927
-1686.2709,762.383,378.77448
-1180.9319,801.57367,182.41992
-935.69006,643.71106,88.231384
-756.4987,599.6364,57.093605
-585.6033,657.092,17.280718
-565.6688,714.53503,32.99738
-517.20197,691.9667,49.79483
-569.3376,628.97064,103.90983
-705.64166,578.6841,175.27164
-878.05743,732.9825,174.85236
-1288.3367,895.35236,223.04875
-1660.7375,838.19104,305.28726
-1755.9203,820.4728,378.08533
-1838.4756,630.817,278.51538
-1989.508,507.58273,161.91623
-2193.8472,442.2983,204.59941
-2003.1901,332.15546,207.629
-1464.0831,300.9032,145.41432
-1083.4648,343.22177,35.644745
-791.30884,248.86307,-0.040598605
-599.4728,178.49348,-11.397911
-477.4026,125.78572,3.9574382
-380.23544,116.43796,-16.389854
-333.42163,184.8796,-23.133602
-319.18857,306.5095,-7.954053
-358.08493,423.1341,14.172267
-595.1312,674.79865,115.27733
-768.07587,675.32574,193.89975
-1064.8383,631.49475,286.07803
-1341.4514,588.7077,312.27054
-1543.7256,360.93747,281.69965
-1961.1182,552.70935,449.38486
-2010.5791,767.27594,501.8304
-1790.0222,579.12445,466.4811
-1459.4491,579.13116,380.7695
-1130.5963,644.9343,269.0644
-857.43304,505.01608,87.544304
-733.08124,598.7222,92.4803
-571.65674,564.20636,52.739513
-528.1163,641.07355,76.851616
-499.06613,627.04395,114.5546
-552.23926,639.92957,159.24608
-705.0904,693.7962,240.93884
-987.49475,806.24194,340.21802
-1260.7072,799.945,280.8282
-1601.324,791.9244,240.80342
-1702.9204,676.60126,217.90141
-1678.6315,631.8399,175.93188
-2138.2085,633.1953,127.90305
-2108.8438,333.24902,91.89056
-1904.7465,342.73688,57.22255
-1595.8114,301.67886,25.47531
-1146.075,285.8021,24.02254
-876.5307,316.77097,-36.662735
-732.9415,190.33359,-75.20198
-561.94495,113.98053,-68.666046
-356.78378,98.44382,-46.09729
-269.8144,142.02538,-30.551285
-233.75037,221.12646,-25.160479
-307.54095,451.59045,41.634247
-395.2118,628.5903,106.15008
-521.3259,669.8891,201.9218
-784.16754,658.1428,354.3257
-1034.0212,499.27737,404.7655
-1441.8397,543.69,452.8005
-1816.0999,506.06345,589.7831
-2033.336,443.50482,643.2783
-1969.0107,389.3602,546.69037
-1666.9458,341.855,509.74823
-1391.7684,437.43008,350.36545
-1126.24,610.6877,272.50278
-861.1416,639.4788,116.401146
-632.50323,695.6474,10.863628
-435.26965,750.81323,7.761409
-337.30264,650.9903,5.578451
-250.4876,582.78925,8.757214
-339.4259,587.8174,156.69449
-486.69388,570.4689,230.08237
-647.21497,652.9795,278.29974
-902.9923,693.9965,391.12018
-1075.3265,558.83923,426.01147
-1285.1056,539.8701,484.09662
-1345.0011,492.22052,409.00723
-1708.8881,498.34195,186.37312
-1989.039,606.4208,131.42621
-1872.0135,432.59573,-48.68176
-1850.2056,252.36122,-268.62378
-1850.2838,218.87712,-333.2353
-1710.2948,175.97812,-271.1136
-1534.949,301.16766,-282.44406
-1309.0945,373.25012,-320.94406
-1084.108,361.11273,-354.3947
-865.128,322.65298,-331.3181
-665.3428,298.19138,-252.13669
-569.17365,313.20258,-196.0186
-447.40134,378.09616,-148.99638
-304.5492,359.8344,-131.96056
-201.83057,426.166,-116.65162
-164.86609,506.14075,-73.06612
-138.08057,560.95233,33.30685
-151.32838,647.08167,97.46175
-258.922,827.2636,146.06664
-309.22418,770.52423,209.86812
-441.93112,661.8474,333.49237
-638.0623,341.6086,483.38446
-958.1346,191.27652,627.68427
-1323.7827,375.3614,705.36597
-1548.3772,528.47955,838.50214
-1479.8326,524.79956,854.87695
-1294.5651,355.9037,756.5928
-1250.2689,214.04083,636.13184
-1221.2909,153.90775,565.1935
-1007.32465,230.99313,414.00006
-798.4541,317.94318,271.12747
-734.16095,467.549,239.23994
-671.06885,549.7905,229.32942
-636.96277,617.5215,191.6022
-597.90173,624.482,162.49979
-653.1728,582.41595,218.82
-594.5313,470.97873,217.53181
-614.3779,482.59308,124.640396
-737.7319,529.73584,88.28878
-748.75,531.05695,75.96961
-909.3898,494.45892,99.37918
-975.9707,434.00793,77.984566
-1124.758,463.37152,108.949196
-1510.6329,574.7589,123.97133
-1724.3679,571.79706,80.125244
-2091.7122,679.37024,121.658424
-1835.2946,558.4288,102.953804
-1692.6519,457.43677,-22.840086
-1689.4948,444.98553,-111.30859
-1518.1508,391.6955,-108.31305
-1371.206,391.3762,-76.691635
-1097.966,378.27173,-73.93211
-779.95325,339.67877,-69.57397
-583.5931,345.10583,-53.993176
-479.0125,315.314,-46.842888
-396.16293,276.72034,-16.296942
-341.85947,244.23586,20.149973
-332.09985,302.51306,87.16431
-345.4008,358.12512,136.66113
-462.38928,450.53146,219.8188
-748.431,688.21545,348.6759
-906.07886,531.4813,348.64096
-1216.9526,279.09058,251.76721
-1709.5587,280.3164,278.16183
-2067.7407,397.77515,435.73276
-2009.9606,597.2779,538.09717
-1624.7584,439.90662,240.15256
-1247.4335,233.76111,147.43854
-1145.2542,332.6222,338.91064
-943.62006,382.10468,224.94473
-761.1502,552.5682,76.548836
-566.77844,621.7538,-2.8110182
-425.23886,619.2815,0.8218671
-369.75833,573.0047,96.508514
-346.11435,456.31293,96.89146
-431.39792,502.7127,138.40288
-603.18365,577.00806,257.9731
-857.8695,665.44794,345.5934
-1114.182,721.291,401.52777
-1403.8049,638.5121,390.4452
-1874.6937,596.797,419.4106
-1687.2854,467.99765,382.0297
-1605.4064,411.72827,312.4454
-1581.1749,331.74768,232.7343
-1660.5636,299.34756,173.99133
-1562.162,268.0542,191.32095
-1136.0792,223.4952,154.52455
-824.1592,232.73164,81.36433
-605.58777,241.24846,39.195415
-518.54297,238.94637,29.320879
-443.48434,222.62129,27.580578
-392.38617,180.14798,25.408316
-372.68326,186.03629,24.408115
-405.08716,247.27739,50.358795
-536.53656,380.5111,104.18792
-767.8348,553.8281,193.04047
-938.73126,550.759,230.76682
-1146.5214,341.31583,190.59995
-1482.2095,347.923,248.51918
-1829.7563,446.88043,443.8143
-1948.0919,624.4666,648.4803
-1709.8783,582.32806,533.66266
-1311.0367,279.14844,355.08368
-1093.4667,101.902214,344.5776
-922.36835,163.91537,303.60355
-764.2826,332.8084,174.60327
-600.6753,543.97125,81.10014
-488.35944,614.39734,55.886715
-379.99454,621.3241,64.90162
-388.19824,578.4163,157.3269
-468.43198,470.13782,244.37025
-557.185,451.30322,278.3413
-767.4722,607.31396,374.98087
-951.39514,703.15985,467.01672
-1149.8751,731.4581,493.6386
-1439.4767,822.6889,484.76935
-1675.492,715.355,370.5161
-1518.7334,482.17462,298.15833
-1548.7274,483.20148,255.25891
-1750.1427,455.96527,203.15729
-1673.4313,381.26132,120.041534
-1344.1198,370.35355,69.20412
-979.1714,319.70743,35.265926
-787.4437,378.894,7.891465
-637.43805,344.26923,-50.109642
-414.2878,202.3921,-115.95414
-345.17297,204.95535,-68.778625
-290.5128,183.65845,-37.368378
-286.81116,257.32285,15.63125
-289.07892,381.85486,84.92636
-282.8042,443.22397,166.44612
-189.24524,530.2915,284.03574
-308.63116,896.9192,345.17197
-436.60562,1184.2175,387.63007
-823.11926,1438.3339,586.0205
-1099.4259,1292.3453,522.6647
-1311.0565,944.1933,396.25925
-1561.9143,824.6004,403.1147
-1554.6912,588.8235,291.41544
-1528.5648,473.67322,-0.4021707
-1389.6995,304.09955,-145.83064
-1300.1764,157.99373,-149.17209
-1192.9976,147.43617,-70.309715
-1058.5233,309.05676,2.5677693
-874.9009,514.8267,34.47535
-669.7821,587.7169,-11.52417
-448.23404,556.6281,-21.829908
-312.49603,503.76468,1.1259631
-248.02216,447.4836,82.55807
-271.65372,406.22647,116.13538
-231.48682,383.98984,95.750244
-275.53586,449.4362,126.31789
-358.193,459.96738,257.71484
-509.3371,428.55405,352.1051
-709.22107,401.51166,477.48294
-1152.4344,414.81387,582.4286
-1583.7528,295.14566,655.95123
-1911.0427,115.23703,720.8734
-1825.7745,112.25205,753.59326
-1547.2764,229.72585,644.3955
-1413.7341,459.02295,534.17065
-1264.945,528.9483,423.42197
-1058.2522,581.1175,283.96906
-1141.1252,672.31244,10.7640085
-1233.2963,429.63516,-110.98816
-1157.7653,746.4837,30.275314
-1067.8508,698.51434,-60.24833
-980.56915,645.9936,-100.73594
-840.57446,728.4851,-176.938
-720.57166,616.36725,-172.00188
-603.8894,487.4959,-165.2668
-460.84964,389.14066,-125.76765
-343.0957,287.75452,-75.60535
-315.43265,289.00476,-33.466198
-278.39774,303.32306,-8.926007
-243.90561,259.98972,19.654022
-228.89798,255.24397,64.347534
-279.1941,314.6628,163.4931
-285.34317,354.00195,223.99318
-356.83453,523.58093,333.7552
-408.88196,596.1197,429.926
-508.92233,486.14972,459.58386
-776.0399,591.64185,486.63544
-959.61993,489.94925,506.36133
-1243.0225,346.6067,541.4088
-1661.0541,450.5489,583.63025
-1893.3892,782.4377,720.9659
-1536.5259,1031.9254,795.72437
-1057.573,765.10846,450.40784
-946.9682,538.2718,338.34344
-986.6855,351.76398,374.78302
-866.67816,243.92311,244.53989
-724.45276,463.02243,193.46146
-665.5979,567.6468,167.17563
-577.217,548.42706,75.0431
-624.8835,623.2993,89.438805
-769.28577,607.44745,152.11719
-886.0345,496.87592,241.499
-958.44696,441.90793,217.88911
-921.6367,468.22046,214.07974
-925.9883,433.69922,199.91258
-923.67096,353.0421,175.27841
-835.1674,331.068,152.46527
-849.29083,329.6034,162.38316
-788.6586,355.34866,147.98122
-850.10614,459.9244,107.054855
-952.6995,508.53348,38.395267
-1065.2853,529.6764,-35.04987
-1310.6301,647.9975,-11.72103
-1386.6321,730.89746,81.16889
-1118.6703,671.4474,49.45241
-1041.8961,542.45123,-125.99213
-1211.445,507.6893,-200.55019
-1258.8049,502.9459,-163.66786
-1189.5773,425.32242,-100.12587
-1087.4263,429.33508,-81.3821
-1043.4155,437.5554,-107.70777
-956.0891,427.49155,-114.668816
-866.41077,455.03177,-100.95614
-741.5442,483.74374,-80.223434
-728.1134,566.0526,-67.85798
-712.1534,618.2594,-30.481903
-650.0102,571.6139,44.87761
-599.8339,602.7891,105.07798
-563.21436,571.6328,139.11584
-564.3295,548.4011,201.92809
-580.20184,554.33093,253.75734
-655.478,576.4753,326.48553
-884.60583,601.12976,472.69662
-1074.1443,500.79016,552.5282
-1271.2633,446.5323,529.33246
-1395.525,385.30554,544.4271
-1445.8029,348.3386,506.9615
-1420.8253,251.67404,379.10764
-1424.2423,175.24713,245.17752
-1382.364,93.17534,178.49655
-1245.2878,61.890778,136.10043
-1061.9011,202.04901,228.84053
-861.47955,328.63394,211.26138
-652.23663,431.75974,158.40471
-527.19244,457.3338,142.52167
-485.68378,401.81427,138.04974
-409.84824,374.7133,113.14972
-405.57535,363.86746,151.4342
-434.24954,380.53848,151.84906
-366.1586,416.91562,100.333954
-421.23785,444.19855,120.34583
-598.9931,450.7541,271.157
-739.2818,394.8275,311.46973
-1025.0619,434.2278,398.34222
-1369.7087,422.2284,481.7168
-1633.072,392.3191,554.0409
-2089.6714,436.0214,718.87683
-1715.7128,313.16324,640.2605
-1528.6295,457.1179,381.93207
-1592.4198,433.0813,376.8532
-1244.8315,378.93723,251.34909
-1279.8417,422.5639,44.976254
-1596.8015,546.21796,42.44823
-1502.6896,432.13864,91.598625
-1176.3027,364.15518,103.34231
-943.567,476.63922,61.655632
-643.23535,454.99097,26.218792
-538.93036,516.0495,-0.45574343
-442.8122,478.87866,-17.345741
-443.22934,465.58447,6.792608
-401.08725,440.71082,58.062054
-309.8649,335.83582,65.513725
-215.1026,321.4194,59.203262
-221.66725,432.02533,67.87407
-185.30693,408.0106,98.6634
-246.35522,532.22766,139.52426
-258.73862,566.35315,170.81479
-387.7306,536.48895,152.21272
-400.6532,501.03043,132.47202
-366.79303,595.58954,153.71854
-417.385,836.39404,211.91496
-455.22168,955.9175,346.5868
-795.0603,1448.2113,565.1462
-1148.1484,1561.5681,736.5705
-1526.262,1351.2496,858.032
-1838.8461,1173.2764,808.0111
-1843.824,873.4636,546.9026
-1459.0337,667.239,316.7245
-1058.9463,375.93405,76.82418
-847.0539,-47.700546,-177.44203
-808.51337,-139.64218,-247.35468
-816.4497,36.713474,-164.38416
-810.2713,186.08037,5.5570736
-773.06525,229.47696,138.12172
-719.38965,188.36497,195.53163
-664.0292,196.0446,183.17897
-597.4528,288.70712,244.83702
-504.36337,319.76666,245.12877
-348.44955,347.01813,178.25995
-304.90594,427.93182,179.13228
-290.7724,325.3261,170.20776
-323.8533,307.8104,161.72931
-333.7815,359.4079,223.41374
-538.9209,369.64655,308.55945
-646.8376,404.9739,374.16348
-1153.6853,623.5221,512.06494
-1704.2228,604.43494,598.667
-1939.2268,384.95712,613.7102
-1951.2966,320.71558,637.15625
-1544.1667,356.6491,563.1175
-1504.1807,694.9299,465.06586
-1308.6605,581.5813,306.73093
-995.67645,362.10852,177.67857
-961.7205,402.62955,103.30736
-1122.2548,500.9187,97.846016
-1113.525,539.4591,94.41317
-1124.3013,681.5419,43.13649
-1106.6493,717.5173,-14.393206
-973.6527,635.44446,-30.05866
-845.56964,626.2907,-33.804546
-736.54114,593.65765,-4.4880447
-579.40283,534.94196,37.890026
-406.17377,421.95306,42.88435
-261.95593,316.7856,53.22287
-210.76263,307.76718,117.87661
-197.49767,285.16342,180.95047
-133.86055,218.29822,174.17708
-147.37369,279.37436,116.36995
-182.28682,420.84805,135.90576
-216.43936,496.3932,207.35052
-229.57834,450.0113,203.89104
-287.42242,607.9973,153.75624
-352.37115,991.6752,178.02385
-643.97144,1543.9998,339.8258
-1049.4686,1830.8721,472.97058
-1213.4604,1614.2148,508.5144
-1450.5541,1594.3105,508.91333
-1504.5206,1292.9122,569.56573
-1205.2206,792.4704,469.47653
-850.90894,491.33176,271.9692
-716.43274,335.5211,51.38264
-793.319,305.4129,-73.84431
-839.2934,348.04816,-68.50573
-820.72656,331.78976,-28.490957
-788.907,381.26398,25.922098
-731.3145,456.17206,141.08896
-774.3631,426.4301,212.4396
-696.91473,322.74274,133.64944
-658.6936,349.8147,101.326324
-613.4731,365.32907,144.08337
-595.06665,352.28058,175.16396
-572.309,359.65768,154.55762
-547.6484,364.3658,130.30136
-579.33435,358.68546,162.34875
-621.719,342.22424,206.28703
-622.59546,319.51065,226.81963
-687.74695,368.76593,231.3254
-731.1207,395.9043,281.0269
-752.11993,420.41162,303.6424
-746.5057,465.40015,327.41302
-867.1848,513.84485,377.14517
-1038.1956,557.8949,395.464
-1224.0095,593.9456,362.23224
-1386.2285,648.97876,377.4873
-1383.0487,660.0377,374.4226
-1108.6774,491.1156,250.93929
-949.0378,575.5916,132.33403
-977.4215,626.90765,44.992256
-981.2086,525.3794,-3.3533206
-990.4039,542.1679,-46.688576
-934.0993,547.60724,-85.74009
-866.8616,541.0572,-169.97786
-816.42615,556.6753,-226.52266
-774.01874,532.64246,-242.67654
-793.6054,517.7489,-235.01848
-726.93506,505.68826,-201.51515
-653.9645,514.7039,-135.99438
-601.6005,527.4294,-105.32149
-576.1833,509.74442,-51.790485
-575.8906,519.36615,28.098978
-597.8767,532.18866,103.72244
-684.01764,538.8409,190.18813
-766.80884,501.35913,335.32538
-799.29724,401.16064,503.10052
-833.9773,288.05798,563.72845
-1034.2266,290.22842,536.5238
-1285.4767,424.4434,700.10846
-1259.8878,481.46872,856.9679
-1073.9202,442.29092,715.28217
-914.1582,313.22375,528.9269
-906.3964,279.24524,475.7642
-989.3578,430.8335,451.8078
-1027.9788,352.46332,466.09485
-935.2765,282.4888,412.99466
-773.3767,365.1983,316.23514
-692.8406,450.5907,292.6099
-675.934,499.56088,296.5203
-700.07513,518.9655,255.8293
-735.7594,500.53848,202.78859
-773.27295,444.46042,149.03503
-855.55023,437.53732,180.28035
-959.8705,398.09793,216.85878
-883.2541,318.18408,194.52112
-860.15674,320.3319,193.38899
-836.5586,330.1761,225.78384
-798.2282,341.83646,263.1063
-835.0615,384.19037,258.96524
-860.8453,414.57974,194.49048
-1162.3533,483.22485,156.24796
-1269.8885,548.586,150.36249
-1498.2283,775.5749,236.45024
-1509.7906,848.1531,284.10446
-1508.3932,453.3992,74.74569
-1505.3187,343.77158,-37.500698
-1369.1824,309.0889,19.399055
-1173.7736,316.31995,104.81992
-939.42395,419.1897,117.638275
-827.84265,526.42554,50.199078
-759.27765,512.6131,-27.664766
-714.6873,470.95117,-48.809597
-623.177,403.42477,-29.148762
-618.3106,407.07608,12.152151
-594.64874,397.87183,54.050304
-597.0035,454.22797,92.19297
-610.8276,495.59204,128.92667
-644.8628,476.96164,190.68048
-761.09644,503.74292,270.80508
-910.22034,449.85504,356.09616
-1039.8967,407.2498,365.54095
-1166.3918,351.03006,374.41525
-1245.2877,320.57614,450.0889
-1233.1841,314.58096,511.2315
-1261.8553,331.80353,429.36392
-1343.6575,273.025,363.10382
-1259.8154,164.34497,317.37546
-1183.1943,200.78824,325.55804
-1005.31177,610.03217,277.4785
-784.99756,635.49927,271.84955
-623.3637,484.68826,205.39929
-497.95584,487.5382,104.55496
-502.16415,553.54895,162.55069
-562.2537,512.2636,218.30959
-598.6267,499.9173,209.18983
-682.5207,575.74677,283.9839
-822.1215,564.95905,373.475
-956.89026,574.9347,431.11618
-1290.4532,640.18945,524.88885
-1630.5778,636.5408,522.3015
-1725.3657,545.30896,406.83337
-1571.2184,466.90475,348.95065
-1324.5664,317.97214,243.43001
-1302.5677,303.6348,179.72168
-1342.3474,279.9203,169.60544
-1110.1476,244.53181,128.0189
-852.9939,263.63382,68.5426
-701.32806,288.35947,66.99063
-615.0283,279.10208,37.651485
-568.9889,267.1877,22.83718
-535.90063,234.29044,33.493073
-508.2302,228.74281,41.42336
-582.61005,303.96225,89.01488
-736.1235,383.14508,130.33305
-918.0266,404.82883,195.78294
-1132.4949,424.46225,276.75317
-1324.034,333.5216,243.81682
-1578.3967,300.39133,209.84367
-1534.318,316.84204,288.36496
-1487.8744,304.65662,239.37238
-1640.3365,339.64993,155.3545
-1529.8951,453.3952,190.85594
-1361.88,539.01886,274.8996
-1107.8422,546.37396,211.40715
-894.5297,522.4514,204.11841
-774.60443,476.07645,219.50682
-693.58734,476.49716,179.69997
-594.63727,495.049,78.73552
-537.98627,604.38293,75.30379
-558.885,674.9746,151.41455
-653.97345,683.44226,255.14215
-737.39575,687.11206,272.18036
-828.2636,701.6743,314.51367
-1103.0493,716.28406,335.66895
-1612.9071,731.648,328.63422
-1560.7805,501.84213,263.72208
-1645.1913,345.29938,186.05067
-1813.9094,167.17079,151.85222
-1617.7539,110.9397,103.088844
-1522.8763,262.1455,82.094055
-1228.2068,273.2966,67.83341
-975.00134,312.21875,45.586002
-866.92365,323.58188,-35.516716
-697.23956,287.55536,-30.018557
-553.74036,262.4665,-20.386225
-497.94373,244.85643,2.4666433
-477.2166,255.61,26.009964
-522.9185,330.3997,71.6162
-649.28766,374.71933,106.61955
-819.6739,412.24762,180.55026
-1069.3314,348.24005,227.52232
-1330.7772,325.7967,237.92128
-1641.8405,372.31784,309.22214
-1797.2062,381.3242,436.96042
-1618.3657,366.68512,515.5779
-1422.0831,255.81688,454.6364
-1344.5083,148.02197,371.76855
-1230.8367,169.337,401.37717
-1061.908,330.7023,362.48434
-859.9071,448.23868,233.33362
-647.9333,545.38214,119.09514
-498.31738,630.63007,169.27147
-389.0622,572.6082,190.26175
-337.90656,513.76196,229.88972
-388.8238,492.67508,263.8787
-525.5604,489.73566,280.50034
-705.87463,515.78375,307.0693
-961.11993,527.2825,382.9751
-1141.4869,550.19226,457.77856
-1478.4258,572.79944,485.56232
-1735.874,560.3438,456.9566
-1635.8535,447.58517,368.71255
-1421.9039,417.81668,277.63828
-1489.3473,417.7035,216.24019
-1465.4016,317.74783,151.37064
-1238.8209,319.25974,104.39829
-1123.6882,312.95267,65.91992
-950.3664,331.6659,22.610155
-717.3371,307.93976,-54.31437
-610.0677,321.08847,-101.96631
-494.7709,276.72528,-96.22299
-396.0792,227.72551,-62.638943
-362.64243,281.51068,-41.098476
-351.31104,368.41345,9.695936
-345.06693,405.3614,61.72981
-467.2503,599.5004,149.09862
-556.3099,680.52795,267.77228
-731.6345,522.7523,392.2532
-983.59155,336.39862,431.5846
-1408.7319,339.26898,488.79614
-1829.008,404.4744,627.5225
-1967.754,516.97266,821.24414
-1693.057,375.203,684.5159
-1307.4652,129.08609,359.15778
-1165.8612,178.45306,373.7277
-1165.3699,176.0756,422.5519
-1020.07404,348.37955,258.80902
-790.6233,685.3513,141.37587
-524.5573,787.27856,109.49887
-352.89737,690.3942,102.44477
-258.24646,504.04785,114.66
-274.80652,409.15598,151.95625
-301.81107,330.71503,154.69945
-410.20566,403.79047,160.92189
-570.86273,500.44675,245.55447
-763.6057,503.47394,325.62216
-825.8371,421.85718,328.86142
-959.69086,380.77805,360.34894
-1269.8284,368.215,441.49075
-1412.7568,346.72305,495.8595
-1321.5073,373.72656,458.05847
-1420.8193,424.2262,373.50723
-1617.0498,476.64383,384.35214
-1464.4913,457.909,245.66
-1314.6481,359.04813,-11.45603
-1293.8839,280.25903,-79.87606
-1328.695,162.14795,-15.057935
-1219.6987,140.87257,12.48911
-1066.8145,254.85524,-8.6590605
-913.0948,332.81412,-64.77478
-752.8645,406.8319,-106.44808
-664.92413,440.17484,-146.70232
-601.1185,410.37054,-127.2505
-574.50464,395.95435,-91.51867
-544.70795,407.6327,-62.49709
-526.83167,448.29895,-46.119854
-499.82446,510.75647,-26.326609
-492.0803,572.72015,-4.3557563
-513.7933,617.09186,30.55762
-523.08105,615.6526,123.928375
-529.9968,606.434,209.51898
-509.7809,596.7559,230.29903
-531.2953,563.3835,288.29337
-628.20386,493.56033,344.3833
-778.79755,394.30682,456.61557
-893.62585,356.39084,601.484
-1068.0509,453.36557,736.57666
-1335.0182,615.0062,869.8464
-1424.9698,690.9438,862.3358
-1129.4382,514.0958,676.9483
-881.458,224.7343,460.56113
-875.2394,41.239407,351.92566
-874.4661,99.5695,348.8167
-861.3782,224.99991,341.51334
-817.6242,398.37622,334.27823
-749.4,510.12646,266.3483
-704.8804,571.34906,268.73697
-712.563,501.6143,252.16565
-769.83374,414.67142,243.42076
-807.26044,407.54147,241.44814
-772.0347,402.1222,173.76154
-782.6323,445.84262,190.792
-834.1617,429.08408,229.9815
-796.7924,364.77234,229.50717
-780.73584,319.87482,227.23819
-818.8288,306.6963,240.13058
-787.5221,323.6974,260.6699
-843.1708,373.31995,286.2296
-979.66425,435.60757,276.78278
-1115.5438,482.7005,292.50278
-1320.3749,524.6027,284.0182
-1507.9928,647.0603,283.57166
-1516.9557,675.91895,300.62326
-1270.6917,462.23087,146.68289
-1230.7745,378.5068,15.368017
-1377.05,360.1213,21.244972
-1196.7122,264.65723,20.518627
-1049.2474,308.561,25.57564
-996.2548,416.23163,26.478355
-870.6779,424.3464,13.091497
-744.852,435.1081,3.3518438
-654.378,444.34793,-0.089703105
-610.85895,402.12497,26.514084
-584.5223,391.1628,92.380035
-533.3805,391.84024,162.67018
-533.39954,376.4574,232.75641
-633.38556,376.15295,301.10568
-828.5274,361.50092,319.37125
-1032.7112,332.32175,348.69513
-1307.6565,298.08505,335.3764
-1486.0939,286.04858,319.09158
-1510.1561,359.89856,370.95883
-1505.4562,383.86093,388.86093
-1342.1359,314.50687,275.36047
-1247.4673,206.446,169.95407
-1192.9052,260.11765,164.95123
-1093.1991,356.56668,198.92033
-933.6035,510.05984,132.93398
-746.87225,631.9825,108.911674
-574.6627,580.25433,102.84529
-457.70935,486.47662,95.42493
-440.43103,461.38568,167.93587
-438.1227,445.8304,180.75989
-478.4996,472.1139,198.97826
-629.04987,568.6827,307.90445
-738.769,576.14764,357.62076
-978.6638,591.7329,416.13464
-1324.5316,622.99097,488.67786
-1648.205,655.1148,498.85934
-1663.3424,587.9374,399.67615
-1415.4153,387.96198,258.8814
-1388.8187,307.65836,162.54115
-1367.5281,238.91916,160.01154
-1302.4114,284.161,155.20195
-1136.2948,326.56262,124.69037
-922.45703,321.63428,72.07338
-755.3147,342.88583,14.143257
-659.0361,345.9225,-13.906717
-556.89197,290.9403,-27.407652
-487.909,229.63237,-11.149624
-455.40063,228.01817,-0.65635645
-533.6884,288.0277,25.637094
-593.5853,351.75513,60.983463
-741.1394,386.89813,111.87744
-971.0999,434.4481,181.91473
-1154.0886,375.43143,248.68933
-1458.6249,318.55902,256.44858
-1685.1337,333.5412,330.08643
-1678.9855,362.74756,461.81192
-1527.5892,323.28595,503.9894
-1337.42,173.70035,429.38324
-1180.4719,129.69579,394.21088
-1041.8716,215.662,335.9016
-863.2678,336.7321,247.86417
-691.64996,476.30905,188.04112
-565.37396,562.37585,154.45743
-452.6165,529.5721,122.611916
-410.62622,540.76764,178.62595
-475.3525,485.09778,282.55002
-514.4684,414.53235,253.22032
-590.35095,474.03146,261.1195
-836.51013,568.7972,393.7678
-1000.37714,563.4059,459.23587
-1239.0488,588.6955,509.57822
-1506.2819,591.91187,537.73175
-1807.7437,500.49872,514.8281
-1629.9795,277.33005,410.18518
-1296.7126,274.75943,327.0888
-1318.6292,295.1675,275.20444
-1266.1493,285.09357,240.13535
-1140.2402,349.4808,195.6226
-990.37573,339.91135,185.12613
-802.64496,289.53427,156.50885
-624.85846,266.54892,89.337975
-524.3146,241.20496,55.59076
-441.0491,209.15063,23.20505
-384.9188,198.80145,47.793343
-393.18158,226.40251,83.56022
-490.66562,304.0349,114.78525
-621.645,384.91962,136.2961
-853.10394,486.76083,217.14989
-1123.7153,451.38773,274.70547
-1453.4194,328.78122,272.24457
-1792.187,377.4536,349.40488
-1956.6685,500.5403,560.94385
-1662.5281,481.9619,536.7366
-1258.773,160.57532,254.90332
-1119.0554,102.8152,265.81387
-1029.693,225.88365,257.04126
-879.5008,366.8976,130.0447
-711.37665,539.9858,38.781822
-543.7863,647.3086,9.2257185
-441.6638,627.4181,67.909744
-400.1237,504.2346,141.02185
-436.72397,427.81726,203.81071
-483.57547,437.52527,228.97377
-594.58215,478.3905,261.25653
-828.4386,598.191,361.93567
-1021.7914,662.6078,451.22073
-1257.494,633.1598,516.58234
-1529.0819,573.7863,515.0069
-1788.1819,408.0264,497.13754
-1523.1152,186.55972,373.49896
-1253.4297,201.74883,298.1104
-1208.7183,232.3063,226.07327
-1207.1274,320.53055,182.83246
-1090.8195,387.20847,131.70404
-935.81805,325.2529,83.96406
-768.18506,292.98663,51.84026
-622.1405,327.42923,-2.441783
-572.19617,327.07108,-38.0629
-506.92206,301.3072,-50.433617
-455.93533,268.08688,-34.621212
-408.239,311.55225,2.0724738
-422.28894,365.0163,33.26104
-520.48883,441.94324,69.14134
-731.6555,532.3333,142.73228
-943.7216,500.97922,237.60396
-1227.7467,397.92566,288.4562
-1478.1727,338.83823,361.1461
-1699.2783,317.77942,487.93475
-1636.307,317.3588,636.58234
-1324.0182,246.63179,540.59174
-1129.2047,135.82182,361.15674
-1079.3972,36.234924,361.54977
-1029.1754,95.59872,355.9472
-907.7194,312.5623,270.646
-729.2812,538.32904,231.3286
-521.46936,636.99335,231.69128
-406.90872,557.1164,221.15498
-342.64337,430.73105,152.03853
-380.08588,389.1186,188.70041
-418.60214,312.7115,160.66539
-525.81415,406.79068,235.20412
-590.07446,430.40814,245.2099
-654.7193,464.50967,501.69568
-698.099,361.37802,552.5687
-928.0004,362.26694,509.11203
-1328.6345,424.77365,665.40094
-1540.8158,376.15482,686.0636
-1493.447,471.81128,525.69434
-1519.6613,567.4353,354.17712
-1498.5233,573.44196,345.76874
-1298.6211,387.55585,263.1544
-1173.3567,312.57236,54.368496
-1226.5269,244.60684,-63.388317
-1267.4958,212.92383,-51.079723
-1161.7397,257.04666,-57.611755
-1033.1879,346.5555,-33.992943
-910.11536,409.1781,-90.87299
-796.0877,461.74017,-166.49055
-682.3819,473.0377,-191.46269
-648.19116,494.37964,-150.68123
-649.91394,516.60284,-157.46407
-578.1694,504.23932,-155.07225
-551.48145,550.89386,-145.55089
-499.5525,552.6458,-98.244415
-468.56683,522.084,-29.140615
-449.92426,539.28723,87.0237
-439.7297,544.3232,215.24048
-424.7673,543.0025,287.79404
-480.93524,599.7385,374.9263
-568.738,532.1115,462.57397
-699.6254,371.42297,528.1258
-838.416,173.3544,682.42535
-1005.55035,68.72373,728.4132
-1284.328,219.16364,688.9517
-1496.0277,497.10834,748.43085
-1336.3121,669.2921,816.5473
-1029.2289,505.31876,653.0445
-1010.1942,352.16376,413.36887
-1037.2115,246.98918,361.2144
-933.1834,212.5037,298.1331
-865.0547,297.48978,221.45517
-816.4724,403.20013,149.15877
-745.36456,512.739,127.61179
-721.58795,569.2613,162.56424
-677.3299,552.2733,206.33742
-675.0815,507.82773,236.65509
-682.65906,465.7853,271.1929
-714.7244,472.65283,272.41238
-786.53186,451.88498,242.20107
-849.5442,410.7232,210.87714
-827.1389,333.86435,175.47253
-922.4482,367.5313,216.15855
-980.8653,347.4018,242.2661
-1145.5005,351.89487,212.54282
-1204.4756,451.87323,219.67058
-1629.2616,681.3399,198.82607
-1740.3734,716.9682,139.28944
-1328.5568,497.20233,77.12105
-1322.0796,315.48392,-20.109941
-1427.8884,269.56116,-52.232384
-1354.0009,285.8504,-69.56086
-1112.7823,339.2825,-70.26341
-972.7228,366.1166,-88.47123
-842.14404,373.70087,-86.83293
-723.5288,404.77563,-75.40858
-647.50366,423.22626,-33.854145
-585.80536,389.8401,-17.879087
-557.52106,363.89682,26.174957
-567.19104,365.45755,77.90441
-621.90826,432.3313,149.70238
-831.7538,468.3011,230.13365
-984.3095,476.69348,359.92847
-1127.2427,411.41742,388.70508
-1233.3958,276.51688,325.1218
-1486.3583,276.15118,365.9851
-1550.7623,283.1424,485.0102
-1480.9907,301.57394,490.29172
-1377.3018,248.04082,350.24277
-1181.9077,212.08049,299.256
-1015.45514,237.82619,331.91333
-822.01416,375.63068,213.32982
-673.728,539.9554,126.72823
-549.75946,571.10077,138.42819
-463.6564,515.6853,105.40641
-445.70544,502.25848,150.3934
-510.77213,452.85175,222.19293
-587.4529,426.62762,215.70331
-674.95465,477.68182,224.76295
-792.6632,510.9352,283.58505
-1090.9099,608.95135,345.88882
-1453.0571,666.7505,374.07916
-1528.5779,658.6063,399.27588
-1396.8634,451.42636,307.786
-1346.3517,302.35416,234.73085
-1466.358,217.51556,220.128
-1401.9879,171.17686,239.87692
-1286.0729,231.53416,212.7648
-1150.2234,288.03113,174.69688
-959.2319,281.2511,126.03093
-765.2428,325.69882,91.39735
-644.5743,319.1017,77.10103
-540.5663,233.88127,43.89828
-465.26996,198.8385,39.017467
-479.7834,188.31964,55.48516
-551.11945,256.92154,88.38033
-726.6415,449.58368,146.33348
-879.35077,577.07135,209.18555
-1103.8776,548.0718,229.48668
-1293.3562,377.32867,202.02235
-1491.502,319.49823,272.0166
-1531.3872,359.79175,406.80536
-1508.9896,421.89102,466.68668
-1421.1747,386.47238,378.2165
-1244.6472,294.60904,330.7526
-1113.1016,218.49542,316.07828
-907.8221,311.58975,229.9335
-723.25446,449.26575,146.34872
-586.31964,550.8876,151.79936
-525.43243,530.8054,104.51206
-438.5296,572.09186,78.768684
-436.76193,559.52814,172.34523
-472.89035,481.4847,253.01093
-580.95355,526.9754,318.81787
-739.6449,558.3425,368.90363
-956.36847,574.44867,395.6601
-1333.5101,645.8368,434.52045
-1769.0981,582.0922,448.33633
-1753.4852,594.07324,459.7283
-1451.1353,476.75137,346.0116
-1346.0487,385.87015,276.42407
-1515.0254,360.82373,262.36438
-1354.9021,264.9253,215.26965
-1086.2538,279.6922,137.5282
-886.78577,311.0484,85.01233
-755.9564,340.09616,67.540375
-604.0388,304.9193,30.949038
-505.3311,309.72946,18.202066
-452.80292,258.78067,17.077234
-401.47214,215.21837,8.762335
-434.36166,237.89146,26.380182
-575.92694,361.16095,66.61486
-737.2678,465.20993,141.41417
-1006.04456,549.162,220.00452
-1179.8997,450.5738,233.18864
-1496.4774,393.7534,289.57907
-1703.3109,366.14148,439.04248
-1683.4384,348.14075,519.9888
-1560.6256,265.37793,435.92075
-1335.9395,217.00684,388.33563
-1195.2996,130.91441,407.7342
-992.14954,357.28363,312.9531
-747.083,477.569,158.21355
-627.50964,516.7574,161.13031
-520.16473,503.42072,126.56345
-463.2996,518.3814,134.02277
-479.5328,534.65094,205.81984
-498.16663,436.2711,196.37494
-545.34674,475.72824,186.3352
-743.695,554.2911,269.22595
-883.9638,635.54755,318.38412
-1236.2085,726.19495,348.78427
-1625.7904,829.833,392.58282
-1691.6382,681.5218,304.2544
-1544.5696,461.9614,201.52
-1616.0695,425.11597,222.99503
-1709.2731,169.8364,210.01666
-1569.2814,173.42778,173.7844
-1412.7874,299.42242,153.94476
-1109.9395,227.0132,80.64822
-862.4831,228.88261,19.608553
-641.26416,250.08432,7.3369384
-529.1641,216.19131,-10.077345
-411.4835,163.85204,-11.503111
-333.59906,134.9959,-2.7324603
-263.50977,159.39375,9.206132
-313.2455,304.88022,24.093561
-345.83804,385.0555,59.32958
-575.2641,543.06793,114.20887
-778.42883,575.16943,206.47728
-1064.4849,407.4585,252.22589
-1551.2681,367.3714,306.98776
-2080.5066,417.21515,489.19736
-2162.7686,549.1846,756.6311
-1621.3619,455.67892,636.3131
-1275.0121,255.37883,414.27454
-1213.3073,36.942677,394.96216
-1116.0366,59.684322,349.6818
-934.8106,220.26949,229.88753
-731.77454,436.13315,159.802
-560.78925,607.6794,165.47466
-425.04034,618.25037,173.19691
-360.14453,524.93396,178.78459
-340.35864,412.96854,201.64
-393.50992,323.53427,227.92952
-443.54697,322.12332,214.6262
-550.9951,398.2824,233.7122
-703.67096,415.6826,287.17303
-794.13635,358.11053,332.09445
-927.4597,286.4247,346.11743
-1033.3862,211.73134,374.01102
-1116.652,170.81345,444.41916
-1262.7852,175.6354,506.6416
-1253.792,236.95175,541.85864
-1198.4116,324.42764,491.6834
-1470.9327,433.5952,415.14874
-1579.0579,450.33844,356.35553
-1362.7314,304.3227,196.8429
-1161.2985,192.81116,-0.4558453
-1096.0491,118.35932,-83.64339
-956.902,74.79384,-45.867092
-825.80585,170.12822,-0.1409468
-856.2694,322.0992,12.821121
-866.97736,456.62952,-28.526337
-821.7185,499.11755,-88.63342
-817.08844,444.65198,-131.95474
-820.14307,378.50757,-85.88908
-830.16516,373.6242,-48.986385
-838.57446,395.34244,-44.16454
-812.43976,424.44345,-57.62075
-770.47375,413.76215,-33.912304
-737.9569,403.55008,7.2395816
-735.36194,403.96094,43.289253
-716.036,410.18573,65.28216
-686.04504,408.15067,79.51738
-668.428,409.92865,97.9493
-719.0928,417.48923,142.91098
-820.3495,441.0623,206.12793
-1001.39294,447.7677,310.48157
-1023.98157,423.2023,384.25378
-1109.0695,424.27213,517.2042
-1163.2129,361.3479,578.15906
-1067.789,337.1153,619.6687
-918.68805,307.171,609.29706
-688.8444,294.9369,515.7346
-681.85944,297.9582,407.3845
-737.9758,277.38763,362.4112
-807.59015,289.91138,348.58215
-849.2356,302.38342,335.43478
-813.67566,349.9348,298.27457
-850.73157,419.83444,297.51593
-837.16705,447.68942,300.83548
-835.721,451.54388,269.1759
-839.2948,460.2218,217.78667
-847.3204,435.68146,247.01457
-816.225,404.03693,240.64209
-778.20374,399.97766,231.10507
-787.22644,395.33496,281.9482
-830.6989,336.11322,298.95978
-799.1674,296.57642,265.34833
-829.5589,311.92792,261.41568
-975.3417,399.07117,285.58118
-1115.594,466.9387,303.6103
-1317.5441,543.34204,318.17328
-1693.1417,722.1153,384.80844
-1455.0764,643.67944,343.48694
-1089.5133,363.73764,136.29295
-1241.3386,325.84442,52.205414
-1404.2305,304.34622,44.24979
-1241.1764,247.51324,54.450092
-1099.6177,349.25595,49.73342
-1021.5676,405.6062,16.58485
-919.2336,401.53958,-16.89593
-803.7702,397.2222,-42.885475
-703.2069,380.12695,-64.644394
-609.9953,334.12393,-32.94512
-555.07385,338.17108,14.943436
-540.73083,371.47046,99.73403
-560.9883,387.97375,188.71275
-594.75433,393.22928,271.02246
-799.565,381.44565,315.5473
-1021.0551,330.08383,333.83197
-1234.628,276.6371,333.58563
-1428.7024,279.6237,358.70276
-1542.8582,358.7617,441.02695
-1489.2156,421.44565,519.72644
-1316.062,289.64505,415.32956
-1196.5222,124.55898,261.73407
-1059.7523,118.25391,278.78046
-1054.7062,215.99327,330.5629
-913.07306,481.56384,240.3922
-712.7305,569.0279,164.22777
-550.06537,592.6056,181.19922
-466.68646,486.5795,163.07811
-456.92938,428.10944,203.63464
-504.3727,407.0899,208.2542
-578.7394,445.68124,213.94362
-712.41113,559.17615,303.8374
-841.4488,539.72076,333.23193
-1126.1401,583.4261,427.12015
-1298.072,556.48236,445.5196
-1623.3572,590.5428,446.5576
-1577.2183,532.4515,391.95065
-1369.1726,390.2784,261.37177
-1381.7893,323.96695,182.46385
-1311.0695,216.20903,163.80916
-1356.6243,233.04158,193.1609
-1139.2217,229.39162,161.81604
-864.30585,250.02504,99.71304
-651.07983,265.80206,46.50227
-572.83057,316.10486,28.459984
-524.67645,328.41647,27.919123
-477.47083,286.77707,20.271816
-428.9858,259.3248,12.951252
-486.70715,293.61646,43.575207
-637.476,384.50616,104.956764
-877.88605,483.81866,214.07605
-1105.8329,446.37885,268.2031
-1377.747,368.67377,275.84753
-1638.184,327.26157,335.1358
-1729.3226,302.24988,517.1917
-1560.5021,289.82593,557.79895
-1320.8185,180.8632,382.52628
-1181.3185,200.53854,352.15
-1021.24744,224.52632,352.62994
-864.20294,301.01645,276.41693
-767.6785,464.99457,224.00566
-615.2192,516.20294,156.33755
-525.792,502.17407,157.84604
-430.66348,480.77936,134.58856
-450.64105,463.2347,198.11357
-531.2787,474.05777,240.28352
-614.76807,527.6461,256.43707
-789.25146,637.1727,398.85583
-925.5298,668.8052,492.12918
-1056.4076,631.2695,488.1436
-1224.7142,530.6686,509.37796
-1499.4674,472.77078,576.8253
-1788.9067,475.45905,605.83
-1505.2601,430.63528,551.2537
-1255.2374,361.46097,353.99475
-1339.7021,406.91925,279.07315
-1312.3531,367.04507,220.61278
-1066.1554,315.94733,142.13542
-834.1068,296.07248,69.094894
-674.21576,317.51385,36.857403
-562.44257,335.52316,12.040737
-457.42834,326.35165,1.779296
-400.38525,292.9732,-11.779574
-372.23898,250.21286,-11.636524
-401.73776,270.55243,15.694621
-510.88486,338.37186,60.027393
-684.4367,418.145,122.9483
-940.2606,453.36722,225.97795
-1161.133,393.90454,295.66617
-1438.7041,368.02213,316.3013
-1666.6656,351.26968,379.8164
-1785.5381,419.42935,549.7981
-1576.505,404.4655,576.56995
-1234.1438,162.04663,401.3508
-1085.8364,-1.7827085,309.0631
-1017.4403,49.220257,305.8453
-886.7371,233.53363,210.80023
-774.97687,461.7453,127.54452
-611.6587,622.8483,108.82874
-495.6577,621.07214,143.48918
-401.45984,547.3742,176.62488
-415.4739,456.206,225.94427
-474.4028,429.44843,276.22125
-549.21967,493.1103,297.57333
-699.23755,599.89386,373.48044
-903.8795,647.2942,442.63928
-1147.8542,726.04083,463.68982
-1440.1448,744.8952,436.24316
-1716.477,671.4387,418.6938
-1374.4773,336.99823,300.48526
-1189.1353,318.04675,221.94118
-1390.4019,295.20294,188.9174
-1387.549,227.98651,170.34831
-1178.7303,320.72763,137.41164
-1071.3566,342.22592,70.84627
-887.3945,331.77966,72.40633
-750.52747,371.32098,52.270817
-640.7848,345.77072,-0.40774098
-566.80804,248.89409,-23.169678
-497.0253,228.79378,-13.307194
-455.46448,233.984,26.9779
-403.28583,275.8997,80.80136
-470.47537,377.40445,110.57742
-647.1202,492.85327,177.30045
-835.92816,546.19135,249.22043
-1078.3285,480.81226,300.39767
-1358.6245,350.2168,377.37512
-1562.5544,305.4754,495.99625
-1736.9886,351.55093,662.5922
-1516.2557,349.67404,627.6803
-1231.3624,215.75919,442.97824
-1108.3293,92.26307,385.9063
-1096.674,105.02278,418.3782
-1052.072,220.13428,381.01556
-863.1028,351.68597,265.78683
-620.114,542.42004,198.00366
-488.84738,614.5571,218.29019
-395.56754,515.9079,215.60425
-383.884,464.15323,169.96388
-396.80508,418.63174,186.35368
-457.1641,373.1655,173.3622
-546.3527,405.48264,217.95499
-624.9608,419.6964,233.3199
-726.34283,387.40536,280.23218
-843.7482,362.02744,352.49252
-926.6893,330.0555,429.42465
-1002.78204,297.79532,491.0011
-1180.2118,306.38376,517.4921
-1326.0029,307.97336,520.88245
-1423.9327,338.5034,471.1278
-1670.3833,356.5426,402.8619
-1607.747,233.85637,222.37393
-1397.3167,137.26486,76.24587
-1261.2853,60.599697,-52.377693
-1192.7109,25.315798,-68.47141
-1142.8258,73.168465,-79.3127
-1005.50726,222.5873,-93.06486
-909.35114,343.28864,-118.19608
-790.82465,412.85635,-127.60399
-703.2872,387.51114,-180.76157
-660.2306,376.2378,-193.00629
-610.85034,416.4062,-147.75066
-654.69464,423.91983,-104.66189
-656.6561,469.377,-60.318787
-642.8089,500.71533,-27.4434
-673.65704,542.2263,-24.561508
-680.47186,545.6415,10.726718
-679.5082,550.26715,59.828888
-668.1781,538.007,104.77384
-688.2985,514.7705,144.68591
-689.8717,482.9571,190.95834
-702.773,458.20944,216.78639
-760.3476,441.67404,279.7565
-886.11206,420.39822,356.09402
-976.7949,381.65012,403.08926
-1015.4474,342.42767,468.3074
-1053.1356,306.99637,504.3063
-1117.0698,343.0933,505.87164
-1267.5963,442.09973,549.4487
-1208.6594,517.1554,575.9207
-859.41565,466.34436,477.32834
-743.3383,400.5124,350.00067
-925.98505,334.74008,320.45148
-934.41174,239.95612,270.77618
-912.7934,238.71857,221.4583
-848.26953,281.3122,177.02849
-779.4846,330.7875,178.49623
-780.654,362.49734,176.4606
-863.382,382.7567,203.5614
-862.63116,371.40448,190.28566
-869.8173,384.4147,199.82544
-823.73114,366.87292,230.31026
-820.9631,363.0435,220.56534
-828.6216,353.18475,181.23874
-793.27924,314.77747,182.69687
-734.5702,270.95648,192.05428
-716.9733,301.33398,212.95297
-774.79974,348.30197,264.53394
-846.7874,358.6922,304.41898
-859.94104,360.9101,315.24768
-1051.8048,389.79865,347.58505
-1215.4672,409.31256,375.28522
-1519.0768,597.0472,395.25922
-1655.6555,702.4334,376.0184
-1253.5585,428.47598,149.07661
-1265.4927,244.97235,-15.706354
-1393.0254,171.52994,-14.670558
-1254.6951,119.6621,-19.873213
-1041.6417,279.85458,30.803425
-987.78955,428.50845,8.919173
-897.70624,466.77084,-1.4035227
-778.38043,453.46777,-5.2346644
-691.77386,408.38174,-12.89541
-666.20905,373.51456,-12.201946
-624.5647,324.25113,17.459045
-576.90826,306.65598,71.3148
-607.44086,347.72513,151.9182
-636.3813,349.7064,221.37231
-744.391,346.6452,242.37599
-964.00757,359.1938,294.63046
-1223.5548,313.16647,331.0684
-1394.0402,244.88683,325.2172
-1593.4742,311.3411,396.26605
-1565.5822,335.5697,520.0378
-1310.8048,274.9237,465.01312
-1182.34,188.387,311.94763
-1122.759,155.85397,295.17047
-1040.2625,217.2257,248.50021
-870.06976,371.51486,176.28017
-694.5723,500.74448,111.969574
-563.2998,534.17957,76.7758
-467.19907,539.72534,117.16388
-449.27954,481.78857,152.7614
-445.60812,416.7711,155.55107
-494.74902,433.79868,164.86044
-636.01886,500.0565,240.60428
-779.21967,535.38513,311.25958
-907.28314,574.26996,384.96988
-1175.8671,620.0088,478.85443
-1523.8906,657.8239,530.4394
-1766.9656,595.0771,446.85507
-1492.3209,318.82736,315.73642
-1269.16,240.03227,248.74109
-1249.1354,198.75378,209.4556
-1264.3225,195.51817,203.37744
-1244.6356,298.73624,181.82356
-1025.0083,308.59433,131.47041
-866.28107,276.45013,47.788715
-682.9537,284.0921,28.552174
-595.48895,292.2146,29.1458
-519.17255,245.30394,10.144392
-477.2893,212.94202,10.713883
-426.72025,188.32237,17.709854
-473.79532,192.91113,36.65226
-664.5454,236.5641,86.15813
-906.7558,288.50143,124.71718
-1190.4315,382.56094,204.51643
-1491.2634,424.26907,260.8192
-1677.5133,374.1615,315.57776
-1858.2411,377.68124,474.67734
-1652.8302,302.95493,615.11176
-1164.0251,179.62167,469.33224
-1041.16,31.574453,318.5845
-1042.8486,38.773247,278.37335
-923.28986,196.87979,206.2372
-781.2863,362.28485,147.78302
-590.00806,548.48364,145.54291
-455.48682,613.36414,197.10999
-327.42758,525.2699,173.03246
-301.51465,452.06287,162.60487
-371.50705,384.74884,210.42792
-471.4845,365.49493,208.65892
-582.80133,455.9463,260.88663
-705.1987,529.033,357.71286
-834.5441,516.5468,410.6266
-1182.2461,591.40375,480.8362
-1775.956,617.68207,680.69366
-2036.4158,487.61868,696.6309
-1738.7701,292.96082,469.24826
-1315.696,126.93032,364.9482
-1177.3234,294.27307,377.4106
-1184.1049,368.4363,312.4188
-1117.2959,414.55298,229.07094
-1016.2775,384.44415,136.30898
-847.59906,286.1612,78.74806
-692.5954,233.34981,43.701157
-545.8554,244.59378,34.944733
-462.18124,257.63437,13.431054
-378.87494,262.43958,-5.935639
-351.97037,253.33606,2.4869146
-358.4405,260.4594,8.876963
-408.56,279.07037,51.758038
-582.91266,372.25146,111.320435
-788.48,427.30853,202.24896
-1076.8695,434.87943,293.63388
-1473.3748,431.73624,353.471
-1792.5544,405.0942,425.89883
-2017.9769,394.48648,592.40247
-1675.4806,332.56824,617.727
-1129.2389,105.17802,404.701
-1052.0631,91.197975,378.34967
-982.1621,164.66042,359.97235
-870.1648,270.61533,263.45718
-732.51544,469.41977,158.23111
-584.62805,597.9733,171.66882
-455.1979,574.6363,214.34201
-377.36807,452.64117,256.42355
-372.9499,387.81583,290.69424
-381.0911,341.5061,272.94275
-523.98315,379.25793,296.64572
-722.9905,426.2435,351.99283
-879.0871,417.39337,412.32596
-960.5706,388.89804,460.09656
-1100.0546,397.46457,475.22003
-1292.3418,427.41397,464.66165
-1417.7295,558.9366,470.30762
-1388.6482,564.9716,425.84668
-1292.4253,389.05386,296.4834
-1209.8715,219.01814,173.63762
-1105.2178,204.56029,152.96669
-1132.4579,200.47322,179.39354
-1049.4661,256.88898,187.791
-864.93225,335.32245,170.55252
-719.67535,370.6515,120.317024
-607.601,341.058,79.55696
-553.2153,293.93292,59.918983
-511.76874,268.99637,45.662415
-494.40308,224.89894,68.58472
-535.08325,220.3666,73.21436
-632.2208,241.74355,101.69487
-820.83826,294.34866,142.10829
-1032.5991,305.5745,196.43826
-1321.3368,329.67337,265.0943
-1548.5612,312.69583,287.88742
-1725.0416,315.54242,365.11267
-1726.2898,332.82123,487.8978
-1280.5327,247.07019,446.29465
-1005.44086,211.99066,373.51016
-1041.5643,180.27646,360.82065
-954.4982,186.62334,297.9417
-832.0796,279.56314,252.85068
-749.45026,360.45032,194.45369
-667.66583,423.69247,188.13371
-579.4116,456.99146,198.59265
-508.8068,456.49875,174.12444
-491.13492,455.89343,197.82973
-516.1734,412.29916,226.35112
-575.2108,396.05545,296.55362
-679.35,401.2099,345.89658
-805.7558,410.05298,432.76962
-845.8606,368.89114,534.22046
-902.6343,291.57297,610.66846
-987.24695,267.25037,658.4301
-1040.7614,178.15913,635.12726
-1239.4453,282.07022,602.81274
-1427.1825,461.1845,591.73193
-1230.4152,384.02405,510.20987
-1082.5449,369.63998,387.04242
-1107.4443,358.33646,298.70572
-1037.5822,409.46896,239.01727
-945.89154,442.82498,171.60867
-880.2852,476.17172,107.54005
-846.238,476.39032,82.54534
-771.03613,514.54254,96.75431
-692.06104,476.05243,96.08501
