# PAMAP2 dataset (wrist-mounted sensor)

acc_x[mg],acc_y[mg],acc_z[mg]
-920.6908,703.5423,490.04718
-1119.6566,510.7294,619.5862
-1256.6427,493.86966,621.70294
-1151.1309,215.09789,506.5075
-1079.7383,138.95802,377.8323
-1043.6218,-4.192618,353.11163
-903.775,106.49731,252.18272
-939.81915,249.7339,190.41954
-990.90625,430.62387,119.58369
-901.7201,466.34293,101.89475
-904.46466,400.47195,82.24956
-814.0237,303.41995,70.39136
-754.8672,286.97375,62.31672
-666.0488,321.46805,107.27096
-605.7778,383.075,138.37946
-561.4272,418.72736,169.21112
-599.49646,433.3072,217.16553
-550.3507,380.19357,225.17354
-507.98154,298.56958,177.85988
-520.0013,269.61426,178.51755
-658.387,331.23483,178.89656
-691.2078,246.30457,225.43112
-906.34937,542.0428,338.46936
-915.4576,686.1033,325.6652
-815.40234,669.0134,305.959
-919.3425,636.52045,328.87112
-1453.8583,568.28253,383.83426
-1826.4277,559.2283,586.1215
-1356.5038,554.9669,681.51184
-1175.4697,558.0147,508.84155
-1073.132,359.81253,450.41962
-855.2305,224.31343,359.34787
-604.1902,291.97958,295.81528
-453.11026,413.00174,230.90732
-419.48663,470.6751,247.94615
-425.8691,466.80716,301.83206
-443.49026,421.51636,328.50677
-592.6966,443.11035,369.2139
-786.1175,463.02774,382.80035
-858.15515,377.4302,321.34784
-822.5349,288.45184,300.89438
-852.5481,296.57596,333.24573
-1180.3119,376.98636,318.5152
-1552.3167,446.91452,345.51642
-1451.1974,392.24768,351.91165
-1488.2661,311.98938,282.5434
-1404.054,247.06004,229.95508
-1105.6428,309.3483,240.63129
-824.52893,389.2871,252.85683
-610.6224,456.63477,236.06323
-465.2701,463.01624,251.51154
-412.2932,415.8124,235.42136
-371.40662,323.46512,208.66815
-373.3969,238.82126,141.17421
-533.82904,252.81183,148.37514
-628.89276,354.5651,161.91267
-779.6025,377.27512,226.12352
-936.4843,363.70682,291.5212
-1161.7803,424.5452,314.32538
-1482.0721,589.32635,426.04974
-1687.0057,801.92633,668.97144
-1399.9005,784.39734,783.63544
-1084.3562,558.5479,583.11914
-1158.741,484.62338,490.95395
-1008.2221,290.88297,403.98788
-722.9923,207.58058,285.43097
-520.42456,286.54736,252.0698
-518.82135,370.94647,265.6445
-513.7573,409.93768,295.10742
-497.2476,405.97797,279.04962
-502.2671,377.9643,259.03558
-560.7845,336.54456,246.10559
-630.9969,277.38223,232.57501
-711.5693,247.5808,220.12775
-784.69806,218.99934,238.7647
-1078.2456,222.67801,238.26831
-1402.2716,281.7294,287.94727
-1597.772,395.58716,349.23975
-1610.2883,430.14215,361.92166
-1476.062,351.80746,313.62326
-1296.5756,334.29742,338.33716
-1037.0735,325.46976,352.27667
-813.6434,322.62897,297.69537
-684.18005,304.2206,232.5774
-573.1607,313.12222,203.9346
-488.19672,349.34155,200.6773
-441.61307,369.8942,201.6751
-510.80194,364.81815,158.64992
-538.82556,359.07233,124.23247
-641.5661,375.2646,167.18024
-729.18774,377.4379,243.07674
-898.3357,406.12778,209.45485
-1309.081,672.2211,338.97437
-1686.8455,831.3452,489.46225
-1666.6967,1006.3032,833.1741
-1286.5236,648.8115,822.09186
-1243.5212,501.30258,614.4705
-1221.8824,304.5501,471.07867
-884.2986,123.92654,311.21497
-609.839,176.20651,293.84518
-508.67343,159.58858,270.6252
-413.2719,201.21121,213.7421
-325.36008,237.59015,145.89255
-394.82388,311.30493,121.59215
-502.46823,295.21024,95.88111
-675.78357,250.50159,96.97973
-879.27325,250.40445,153.96626
-1173.1353,306.1199,225.97237
-1441.9943,449.28018,293.1209
-1370.5616,510.5555,364.45676
-1265.2344,371.37488,363.1334
-1333.7145,291.76544,323.93463
-1307.4343,331.45444,426.1475
-1121.9088,481.9903,477.6618
-894.1401,544.99567,354.65717
-660.3299,399.3218,263.53445
-644.197,243.5708,191.33522
-807.541,284.44946,138.52379
-715.79395,327.8439,109.463356
-515.757,367.98358,82.729225
-520.7039,437.023,20.538519
-820.3228,531.7175,-27.399044
-1519.5648,868.55566,163.50966
-1852.8644,1069.4094,537.64136
-1219.3746,942.3894,814.0061
-725.07007,673.396,796.29987
-669.1581,499.32062,603.2794
-720.40326,345.35776,374.01617
-748.0939,177.74323,423.64865
-623.4629,167.27467,422.73007
-547.5364,78.92865,398.89066
-679.9697,259.08096,410.98584
-984.30707,266.277,375.90442
-1505.9032,230.23523,231.78307
-1664.4678,314.80737,126.848816
-1363.6049,415.50607,159.08855
-1166.527,367.82376,176.5504
-1093.2556,347.72406,241.95654
-1024.4639,329.56467,247.90475
-810.7644,425.8292,271.30026
-704.01514,375.8374,261.61905
-644.3567,386.40802,199.54723
-588.60364,368.44577,166.43195
-569.295,315.49203,117.49848
-666.7968,334.30295,128.46239
-737.00134,373.21533,138.12411
-812.12805,410.7437,138.09595
-882.3674,476.45276,204.89473
-910.54456,432.85532,151.9911
-1511.0789,526.82605,238.96817
-2000.9374,534.744,399.31323
-1503.4089,457.49942,521.1447
-1303.4049,475.25525,747.351
-1233.6345,388.28113,757.2429
-1048.4099,143.08539,551.3864
-649.435,-2.9257977,399.92664
-515.97107,73.489235,410.73102
-498.57834,201.44374,439.85062
-497.3296,210.41632,403.57977
-557.25134,151.02116,377.1669
-591.72504,147.38904,357.0453
-697.8629,244.31577,358.3319
-923.8817,343.66656,364.37308
-1073.2644,372.53134,384.03384
-1209.8192,365.69238,373.17282
-1513.4592,411.97812,395.12415
-1509.2461,447.95306,448.94528
-1035.7295,339.04187,382.33298
-806.32916,229.77487,227.20952
-839.35706,223.24944,216.59718
-974.2469,192.88016,165.18695
-1035.8531,183.66145,91.832115
-966.34717,251.31584,59.199135
-881.3895,373.8689,111.65089
-794.29016,400.31128,164.84035
-714.1332,394.1429,151.65266
-739.58167,369.8745,163.16977
-767.8625,377.74716,191.24074
-778.7858,346.433,206.85847
-780.9726,366.08777,207.13805
-747.16864,376.00327,192.50865
-767.24805,413.2322,209.82416
-788.4871,440.26022,228.04837
-913.6876,449.92163,244.31192
-992.82874,402.3583,252.91145
-1024.9113,379.8908,277.99854
-1184.4587,382.47348,285.538
-1340.4801,409.79297,307.96338
-1175.767,371.49033,273.4512
-866.1334,359.34653,250.83965
-833.2975,457.32446,365.5646
-844.7205,456.8452,408.93954
-833.15717,397.44022,340.28482
-735.37317,367.12662,288.15466
-641.4001,324.58075,334.91083
-636.46356,335.6066,434.56818
-661.00745,358.33646,474.72406
-636.0877,377.6285,462.35355
-668.99066,380.41797,481.3082
-678.63513,268.8531,515.9045
-639.4214,148.69864,464.91745
-634.7964,260.3163,419.13095
-575.4294,289.53076,382.64667
-522.8395,293.60638,309.8758
-550.25824,309.52972,269.68088
-649.02936,277.70822,281.05173
-784.97205,260.21368,294.3969
-972.74744,283.8155,282.56714
-1320.3776,310.35715,266.2862
-1413.4132,322.41315,254.93431
-1664.5845,294.0428,169.17964
-1665.108,325.7531,162.2007
-1302.1418,329.82474,251.76428
-995.2185,363.72232,286.90445
-740.23584,362.74295,277.7384
-537.5065,327.722,295.36206
-451.48297,248.30505,221.09346
-388.41696,211.53508,160.83315
-382.11176,206.96913,142.3138
-490.00815,253.80322,135.47298
-636.16736,285.9352,177.42809
-662.3373,314.76645,248.38179
-789.4027,331.525,313.91208
-1050.605,399.35953,363.16595
-1718.6542,497.3549,411.43024
-1964.2582,635.24554,647.09375
-1407.8201,535.4187,831.40173
-1096.814,438.2481,630.05035
-992.6666,265.1647,461.70874
-804.1114,213.17673,345.55957
-547.6099,192.64838,255.06752
-363.04,260.6922,195.43112
-282.6007,382.15225,212.29112
-260.53424,314.31863,279.43198
-315.1732,285.18817,326.44992
-438.72577,343.0511,293.71255
-616.5751,372.1815,253.83498
-720.3982,323.79645,223.35243
-1218.7511,305.37872,231.22758
-1695.0619,334.23718,287.90436
-1918.0685,366.7149,338.4721
-1792.8185,312.724,296.43204
-1532.0785,211.33278,251.13603
-1312.8422,280.19693,312.98734
-926.48413,325.9384,334.52197
-686.53284,346.7393,269.29398
-435.7703,307.78842,226.34116
-314.8827,267.8243,171.13022
-195.78052,245.71902,142.54634
-258.87103,242.73239,104.70666
-378.5301,235.3544,119.801186
-533.7653,321.8985,180.77048
-607.9904,327.9597,223.77373
-799.5423,359.08368,223.01265
-1341.6567,433.67245,306.25815
-2162.7236,630.48114,516.2092
-1904.2834,687.59625,920.375
-1327.8419,586.9857,929.1064
-1235.6333,490.18704,642.4437
-1006.8153,151.6627,411.74615
-674.1524,73.05343,266.42447
-405.82257,179.42659,185.34196
-273.69196,360.8465,207.66423
-318.34766,407.92737,224.94731
-329.92957,44.81992,278.15234
-467.4982,143.18794,290.01004
-643.6511,373.69464,287.83975
-778.6021,429.11475,244.71437
-797.1921,398.66415,181.21735
-911.14856,257.4085,136.96527
-1159.0167,200.93254,193.38878
-1653.4862,240.03825,298.018
-1873.8744,337.3589,311.83444
-1552.8949,348.98914,303.98425
-1265.2655,307.73978,293.72452
-1074.0767,351.09006,338.6272
-950.1198,364.52945,336.2416
-749.3322,377.63977,289.69937
-530.0224,278.79358,233.97295
-453.9207,303.0367,196.15274
-404.92032,297.21747,151.03885
-514.0854,334.2611,139.62515
-617.4689,362.4796,162.07756
-610.9427,372.4812,148.47995
-494.58524,356.7766,176.59572
-523.01385,308.53055,153.88348
-731.0848,404.10382,177.29501
-1922.626,768.6528,389.37637
-2320.3042,952.319,1007.845
-1104.7633,513.8099,851.30176
-1009.2545,414.42587,674.62415
-1156.9044,153.13474,556.1883
-877.1044,-43.89088,345.4834
-394.64017,276.50134,276.25803
-264.90152,-109.32741,291.55167
-242.859,-378.777,289.33438
-271.61325,127.68587,271.66544
-461.90253,359.20572,255.59926
-975.9532,526.90094,146.18149
-1813.337,535.14185,36.806885
-1739.4674,450.2021,88.60101
-1324.5051,218.31047,129.06128
-1115.9469,106.43379,113.61661
-960.0792,160.77148,275.44348
-915.0081,415.16156,250.02092
-663.1237,512.38086,161.23589
-465.68802,444.0499,109.77761
-349.63113,350.97263,171.20876
-408.2897,225.57343,128.77434
-719.9487,158.17657,62.104424
-1334.4265,257.39212,141.05505
-1836.7888,529.57263,427.33002
-1571.4155,891.14734,767.819
-880.09076,889.8693,686.127
-768.88257,764.835,577.21497
-766.9787,553.4838,435.08133
-704.6488,254.57812,299.4858
-558.0533,194.86879,304.3429
-546.8155,342.2705,366.1234
-556.9469,326.98663,463.66537
-852.8713,428.44608,474.56305
-1337.4535,453.99066,459.42938
-2105.9717,255.04317,352.95114
-2291.9204,314.5678,489.99207
-1788.1582,257.64484,389.33902
-1359.3873,223.45645,266.3818
-1082.704,243.75903,261.85797
-1002.5575,252.34618,334.0155
-792.05695,192.93413,260.5327
-629.4448,161.15385,179.50038
-547.254,156.07764,243.54095
-496.7607,101.25661,252.88858
-516.67847,203.74385,260.9918
-553.42474,365.0616,242.816
-592.45013,479.3117,214.72748
-622.2824,512.49994,205.34021
-716.0542,537.01294,160.34714
-842.1696,582.6696,177.4313
-899.4688,564.39844,179.66832
-1075.2434,558.3942,116.4932
-1355.3019,574.0199,48.58495
-1317.823,605.2477,78.38985
-1177.7354,592.6549,149.07507
-1124.8674,459.70142,149.33199
-1071.2319,378.07327,153.05127
-1000.3243,349.50372,143.8047
-818.5523,324.6617,53.742146
-676.3787,418.17117,24.136738
-595.1277,537.8695,72.162865
-587.071,554.34656,110.81112
-650.4056,548.4823,172.9783
-687.3882,520.5919,293.97482
-657.4944,473.45645,323.9247
-744.7048,477.67517,406.74976
-900.1555,515.7956,452.19266
-988.97003,515.06036,484.78687
-1043.9867,472.60742,521.2623
-1073.3292,459.69775,533.1081
-1163.4567,551.48065,548.8816
-1225.6714,551.6523,570.98334
-1034.7772,403.24405,502.39957
-946.146,330.52045,438.77307
-1039.5409,205.22363,379.57324
-1175.3081,148.65036,315.32547
-1150.7479,131.49748,242.84622
-978.8013,140.54097,194.65811
-845.76465,186.44618,183.02577
-775.4969,230.19798,210.40688
-668.5627,204.03258,172.04555
-595.9672,237.43413,120.36806
-566.12317,262.46158,133.35452
-541.8884,235.31203,144.90108
-517.43616,248.25119,126.76074
-496.1063,258.0899,130.2123
-533.98755,281.0511,135.43382
-569.2567,331.14648,137.05823
-678.62445,376.15775,184.53233
-825.01843,427.94147,251.67273
-867.0847,432.42615,293.55853
-981.3595,418.34094,293.14917
-1331.9548,462.68256,358.83893
-1686.5505,455.3533,431.492
-1779.5117,561.92957,597.5718
-1355.9811,574.11993,676.35236
-1099.537,523.75653,582.72125
-920.4213,496.83664,530.72974
-686.3223,369.9372,432.66782
-458.55154,322.97595,323.01764
-324.4404,304.39752,254.7729
-246.07053,312.8113,239.3813
-305.96634,336.13913,254.84106
-418.11862,308.58414,302.35312
-642.69446,303.34253,273.3375
-831.1821,289.79752,259.45535
-1129.507,247.17805,203.35243
-1453.6644,304.20505,206.72565
-1889.4535,412.12582,307.8663
-1927.0985,434.73242,351.11536
-1569.5835,311.9096,250.50436
-1312.7139,288.81717,334.59256
-974.94635,236.58559,429.24835
-708.1429,250.8312,338.88037
-507.7695,306.09576,237.38487
-378.77567,225.25772,160.97615
-290.9494,262.08414,144.2512
-338.96024,195.39328,135.73572
-462.4029,184.65265,118.09484
-539.25793,269.7041,138.91321
-554.134,320.25717,134.62769
-658.01685,352.6933,188.00032
-793.6147,396.10718,242.0166
-1217.2694,464.816,305.1601
-2034.7153,695.2957,501.71832
-1811.5891,769.88196,981.64874
-1303.2731,589.68304,962.36273
-1194.9598,337.51358,658.65155
-979.6792,110.18864,478.82446
-677.4069,147.8815,336.1181
-445.2156,280.4648,301.2257
-321.00964,368.7513,297.3385
-299.44925,400.37057,313.78464
-419.07724,408.08292,343.56686
-494.53827,-179.49179,347.28912
-551.3194,19.251736,262.29666
-723.1833,377.06702,202.15718
-781.43085,419.7148,179.53403
-1145.7399,472.36594,136.31837
-1550.5116,342.73764,148.82605
-1781.1877,268.02954,242.19939
-1798.9618,304.76154,326.44873
-1500.841,290.95026,373.5101
-1263.315,346.29465,382.37
-973.3214,369.94937,375.86313
-734.14703,308.73706,359.56067
-499.87253,260.6213,300.84256
-335.10858,221.03433,250.68224
-220.77698,232.05095,203.60944
-268.95236,217.38991,189.09137
-364.9538,223.38152,207.70593
-559.193,214.45886,219.19307
-664.05457,245.25589,200.32272
-761.60474,262.73468,189.13448
-969.793,335.69525,194.18701
-1326.2144,389.8046,288.77472
-2031.9757,698.3596,463.20203
-1694.8745,753.769,801.7165
-1183.7551,573.1376,762.8768
-1058.7603,483.38605,564.42346
-860.33124,183.9783,421.93802
-585.7276,64.79942,293.305
-438.08594,198.21492,211.30766
-319.5316,346.65167,206.56976
-318.79047,601.5629,258.6919
-411.07748,297.29514,321.9712
-514.44977,-471.61563,374.36447
-639.61896,-118.97294,380.69296
-771.03656,130.22577,344.44565
-1132.5055,494.97867,244.0388
-1413.9584,623.4204,172.50839
-1769.2633,504.34772,180.7163
-1545.548,274.82404,205.60147
-1317.1816,158.0742,229.49562
-1217.1505,221.53967,299.40982
-1008.2788,347.26944,306.8314
-799.08154,465.20334,240.81776
-575.83716,439.33383,201.60991
-388.73624,328.17142,199.31268
-329.3072,235.9298,166.87492
-287.78824,159.57211,105.1152
-314.12335,128.90527,82.82851
-558.51056,200.21379,57.650314
-1370.1464,306.16852,266.13873
-1989.6826,595.6151,597.2192
-1577.4338,810.3635,862.6235
-906.19806,708.9324,887.70166
-740.81,335.667,555.3059
-623.63477,-3.4607513,286.1059
-437.05637,117.72736,273.39297
-416.8007,3.6777475,324.0061
-319.8323,-33.829094,333.34973
-507.745,97.75084,333.61572
-991.6363,225.68335,331.41025
-2081.893,447.27243,308.90924
-1933.2169,640.65424,300.6989
-1465.7574,388.24292,94.818886
-1280.3776,346.99536,207.94957
-1112.0925,334.66965,385.05273
-831.5217,410.3541,334.24722
-608.02435,427.43338,212.4169
-471.3926,400.72504,195.01167
-407.36646,332.07642,159.23686
-400.86884,254.96718,136.54193
-519.97644,167.36984,103.055046
-544.34814,190.5837,137.60648
-560.50665,253.2102,166.1145
-576.801,346.85022,229.20197
-802.64185,381.8449,240.7407
-1325.6405,354.87204,206.22214
-1985.763,397.3818,230.55025
-2174.3884,612.1011,655.3544
-1425.8954,533.9025,919.1912
-1029.5714,527.099,817.09906
-855.9229,277.9964,602.3063
-632.0889,99.0474,267.29504
-512.5485,157.46,143.06833
-417.22794,256.92096,157.85683
-368.25998,235.44038,225.5168
-473.15945,312.7009,313.44165
-591.8271,341.74246,411.28604
-840.2481,241.65257,442.72778
-1075.7688,507.78397,487.48123
-1335.3561,631.67505,517.3401
-1551.4465,578.3654,516.96606
-1650.6272,526.39325,543.12024
-1382.8179,320.73734,550.8324
-815.3869,57.045563,354.57193
-731.82007,21.162296,215.20059
-843.03503,27.437893,144.39572
-1066.7831,56.689274,37.811607
-1168.874,240.82253,-5.0644145
-1062.0267,372.56982,56.17921
-868.15106,485.3402,138.11586
-694.7743,475.80908,227.86163
-574.2914,372.15305,183.03127
-577.532,365.86026,193.6806
-611.74506,382.59402,231.78812
-598.0206,325.82086,263.73203
-557.414,335.15024,255.29622
-601.4194,299.57462,253.36673
-689.207,277.35773,211.50032
-811.10333,291.5592,216.61288
-979.88306,329.06534,261.2916
-1186.5819,370.12796,318.01425
-1228.5304,372.00916,359.88016
-1287.4933,364.2438,327.40735
-1584.8339,349.09064,330.96243
-1515.244,267.86826,294.0974
-1067.2527,257.85333,205.00815
-908.16833,340.17996,195.6842
-896.8101,383.2219,286.9457
-828.5952,294.50684,245.48868
-577.9378,244.94392,136.1974
-457.88794,250.53186,157.5639
-421.20316,268.4379,192.45618
-459.62024,363.44293,270.0458
-531.177,448.54666,351.21136
-632.45465,449.38992,454.05832
-598.7185,453.97815,563.2203
-582.0707,395.41183,575.30475
-523.85266,271.29932,464.83212
-488.51083,191.61902,307.43134
-510.5002,209.50389,268.89288
-663.9885,232.40958,318.5547
-712.01465,257.596,342.2702
-956.1465,351.42508,358.32358
-1373.5475,492.51434,476.35968
-1617.9124,584.729,542.66364
-1750.3022,553.74536,441.7196
-1484.2986,405.75198,317.8368
-1329.5731,281.27206,315.64255
-1094.7922,245.2896,318.91992
-821.37,299.94565,267.62854
-577.9728,313.57416,202.46106
-426.05615,344.223,172.69542
-298.12393,300.75912,165.25418
-298.7935,274.14072,164.74182
-397.15442,233.23254,124.49772
-581.61993,247.81313,141.12883
-657.21857,257.6279,161.87915
-661.91724,273.92502,197.65923
-819.08606,345.69986,234.33765
-1136.8417,451.7544,375.58853
-1605.2705,559.85535,507.08496
-1781.4988,667.85846,752.3229
-1391.6785,563.6971,908.18176
-1172.0149,343.8561,703.3499
-923.64056,156.36159,517.6619
-651.7365,173.36494,391.76483
-401.11288,265.12515,296.5831
-319.57748,362.444,279.77655
-288.11887,327.59485,338.20135
-341.76065,179.51787,377.24963
-465.13098,-208.75105,333.0428
-611.9619,-1.3344665,246.4816
-684.1366,389.55524,200.13219
-1097.5508,434.9956,162.0761
-1603.2565,479.9881,156.0776
-1974.5687,420.89307,184.54953
-1879.0465,336.59036,240.90642
-1457.8489,232.91708,229.63115
-1177.4177,293.80402,270.56616
-835.00745,344.81213,299.6552
-637.50745,356.6281,240.94225
-449.01898,304.4773,179.56955
-365.08572,225.42671,123.88132
-289.5621,186.30447,96.962975
-373.81982,164.18723,141.34906
-526.4871,26.500107,149.74635
-587.0816,47.970074,149.95766
-670.2329,343.63855,255.20511
-1006.9706,458.22458,291.64825
-1711.7147,601.5545,342.09332
-1958.1062,798.59424,584.09216
-1572.1321,760.61597,944.94446
-1198.8822,488.86823,758.9242
-968.4581,168.60698,421.68185
-752.5628,102.80606,321.7441
-561.7373,124.09907,177.48799
-403.20874,213.34398,194.4321
-298.28613,354.33517,231.04855
-363.90594,361.73975,277.4723
-494.50763,55.637142,354.3114
-631.96765,178.1399,342.27444
-759.7828,378.92386,314.2739
-1232.4967,419.259,268.3049
-1510.8737,350.74554,275.42636
-1909.8126,287.96573,268.77374
-1824.9543,271.976,280.67926
-1434.9923,215.06023,275.19086
-1024.3638,265.1983,302.83798
-702.3503,301.95728,292.8616
-478.95633,304.10416,254.01793
-315.90448,281.0294,151.95497
-198.40047,229.54762,107.14532
-218.26176,228.31725,88.89655
-332.03674,287.42914,93.40958
-644.42676,358.30908,134.2993
-803.86536,399.3475,220.5155
-934.97064,366.11243,262.06772
-1273.6395,381.7137,377.16885
-1880.4093,501.73303,563.7506
-2046.5013,783.219,868.1817
-1360.1984,614.8542,885.7938
-1165.7185,452.1297,718.29266
-964.82263,209.05135,527.1841
-766.9168,143.327,299.8134
-503.0203,172.07603,232.61935
-425.67343,335.34946,267.90997
-443.21295,210.9556,327.53568
-486.72305,47.143272,321.3136
-506.01315,250.9299,284.43344
-643.4115,321.43393,231.05133
-653.4576,356.2172,180.4633
-649.5177,285.26263,123.96287
-745.8813,206.68054,143.5765
-1052.9645,114.44951,88.46873
-1205.0804,81.31231,43.720825
-1565.6376,306.69693,92.98909
-1508.9143,569.33655,220.2168
-1253.671,496.68057,310.24466
-1146.5149,413.89468,396.058
-1126.7842,359.597,472.78265
-957.71124,361.5632,406.09958
-675.7801,285.22357,251.95471
-476.9324,15.659574,99.23266
-216.0749,95.36992,-29.467861
-181.66931,242.85837,-70.01946
-557.1171,355.9848,-186.02979
-1228.9127,872.49817,-63.25296
-1934.8308,1339.8607,375.74976
-1498.6018,968.975,847.8698
-657.15137,518.3618,845.3751
-678.8364,491.12015,548.3266
-665.9445,343.22122,299.50278
-773.9647,378.0156,301.44977
-654.3973,542.1501,345.2404
-934.1719,502.11572,448.56534
-1397.2379,238.84319,567.0962
-1982.4032,165.09714,423.2064
-1921.8904,275.18042,402.39688
-1482.7861,152.10289,294.95645
-1401.3115,273.00546,228.2032
-1292.7341,375.57675,298.22137
-1014.80725,290.77176,300.98538
-707.6087,263.05624,249.91428
-539.70215,192.75822,231.51186
-465.61652,84.20219,218.39355
-479.14053,141.36174,199.62898
-550.03564,339.19788,188.17694
-634.91565,497.378,136.2501
-730.67566,580.4004,87.721886
-827.9175,590.0924,115.375374
-922.7271,585.4477,162.2966
-979.63184,546.87946,237.35028
-1073.8582,495.69217,236.57422
-1353.3536,511.9405,192.05304
-1581.2684,493.5107,185.2853
-1243.1337,471.57834,207.47246
-847.582,415.8211,223.07135
-921.209,332.48642,207.91963
-990.15625,295.57892,255.43036
-932.53937,249.21274,204.15523
-685.4971,290.1111,149.79996
-523.67377,413.9624,195.83395
-433.92874,426.18848,271.26648
-503.06213,422.95914,306.14813
-607.78577,432.06818,363.41565
-678.23926,422.38873,405.40756
-700.0607,386.50232,458.24393
-687.2886,378.28244,493.4253
-770.5475,387.68042,515.77466
-961.71454,422.40314,535.3995
-1115.826,401.8267,574.70966
-1166.2137,376.7719,530.4895
-1264.5653,471.6263,517.41583
-1418.9829,493.9691,584.16113
-1285.8619,401.46982,545.32477
-809.65674,286.1913,371.67352
-705.24176,271.99066,286.6433
-837.2551,262.09265,246.80756
-1079.5187,240.05028,192.7634
-1190.6234,259.48444,146.509
-1080.7467,247.1158,151.16745
-944.1396,259.3805,157.59277
-757.20667,254.01254,141.70772
-703.3551,272.3394,103.09983
-694.2609,284.3086,104.432785
-610.38464,248.34785,91.39731
-578.46576,255.11948,119.51612
-578.5434,277.0892,180.2746
-539.9253,268.70633,201.04327
-509.2935,272.64706,171.29424
-523.2395,284.0706,174.54271
-622.97906,334.7778,196.25914
-776.2901,417.00162,232.8903
-863.95337,422.35846,245.42026
-810.669,406.29822,251.93155
-842.5185,373.75284,247.1503
-1207.5781,386.77756,278.59415
-1677.7621,453.22586,245.72557
-1889.1792,648.3773,386.58408
-1426.3004,765.88446,652.5557
-1104.7915,870.05896,701.1775
-974.74115,736.7814,626.05383
-821.5746,472.98044,370.09787
-635.35284,330.7123,318.1707
-504.4264,373.2265,329.51978
-448.49802,396.51068,378.15048
-469.55023,344.8166,384.39984
-554.4639,429.23755,355.90915
-719.77563,419.34686,317.84314
-729.9429,328.76385,291.5943
-727.7485,262.11154,243.19356
-700.3398,303.43356,219.19856
-822.04315,245.74303,205.67654
-1088.7314,277.18143,243.24051
-1376.9696,314.01675,259.46936
-1733.3865,477.95197,307.48032
-1634.7224,460.8058,332.14447
-1319.9794,353.52426,292.94125
-1079.624,293.02872,275.744
-851.92847,286.05447,291.1426
-670.43085,298.7133,235.86714
-487.57233,284.3243,188.94527
-391.89966,315.54852,161.94608
-366.05594,337.68726,119.69052
-492.08212,326.86493,97.68501
-629.51965,335.80673,123.90437
-760.83466,373.50772,181.74155
-691.96796,385.06464,262.81744
-826.337,396.2132,303.91766
-1129.8496,541.3326,353.3765
-1881.5764,730.79626,536.61646
-1733.3823,705.3959,750.33026
-1269.9163,585.7683,635.70325
-1301.0509,534.39966,583.30597
-1180.3995,286.83215,530.43384
-887.9753,224.62064,388.57083
-589.4253,271.4483,296.91605
-476.65356,357.75726,245.37695
-472.2222,371.0827,252.69493
-477.02893,357.18686,276.29926
-526.39545,310.76154,291.66943
-622.5986,312.7369,258.12708
-590.2878,220.39236,171.6422
-599.08203,258.3753,177.22314
-689.4494,243.66772,228.07703
-917.8351,234.73158,197.09631
-1342.3556,257.33957,213.85696
-1567.9452,346.5097,311.84482
-1827.7573,385.8777,317.58362
-1628.3627,357.88068,315.4191
-1359.0029,331.8891,386.86237
-1111.744,423.7953,428.2801
-870.4389,396.91217,335.8035
-626.95386,331.66925,247.55086
-532.1371,223.13924,178.22113
-399.7691,290.87234,163.59575
-373.746,294.3175,104.79254
-454.48438,348.27808,104.45534
-584.9463,429.57156,132.81137
-590.0446,496.83548,219.50018
-865.7652,461.61462,268.4962
-1241.0918,478.7459,292.93457
-1865.5247,552.788,363.39874
-2015.2921,1010.17236,822.25885
-1363.9065,757.9858,848.9191
-1232.4125,623.91077,589.731
-1121.9852,506.29285,493.38373
-935.08185,160.00298,310.39258
-707.12396,121.46741,311.33496
-628.0777,106.799576,278.5828
-476.17926,162.84651,243.85953
-505.77518,238.3756,185.4915
-590.57526,291.71732,159.17697
-687.3731,278.57925,99.96526
-605.591,226.50499,88.498764
-676.44836,230.7453,110.184235
-805.0093,231.60358,158.8154
-1091.949,331.5573,181.51996
-1452.9042,442.1236,217.4196
-1432.4497,432.12222,239.91571
-1340.845,335.9563,280.3126
-1242.8114,299.9047,313.86798
-1250.8992,397.765,428.4811
-1250.082,593.9298,430.05905
-980.2015,663.4485,344.24332
-743.8105,370.99057,215.97913
-778.2045,265.01633,161.3824
-544.03973,264.9065,85.056984
-411.86304,217.15256,42.13549
-363.77954,325.64725,-143.02953
-905.3461,457.58957,-199.64685
-1796.9011,1000.7234,57.0657
-1818.481,1156.4701,453.97928
-953.2456,814.8969,656.43036
-917.20667,301.57758,950.51666
-898.2896,433.6836,603.6694
-846.13666,231.76437,348.52002
-720.50885,164.54243,491.11942
-568.57434,258.70074,474.02213
-669.53174,321.5311,561.50824
-707.2819,364.14444,441.85886
-832.05554,242.55511,331.43253
-1267.315,417.98645,237.53786
-1719.5409,608.28625,255.65115
-1617.9701,644.9312,206.83783
-1466.4109,352.02185,134.3169
-1148.5851,261.86182,156.5848
-878.8525,231.18036,265.9903
-619.91986,339.48505,259.53055
-530.3474,356.28308,297.24753
-396.15665,363.08926,241.27544
-377.23376,325.63846,138.31558
-414.82773,359.77792,89.94244
-523.7688,415.65866,184.176
-587.21515,386.12204,232.95401
-672.2068,380.02972,180.6851
-699.27563,396.1135,254.0856
-959.7413,403.67728,295.29572
-1646.0206,467.08957,239.73907
-2331.6692,664.53296,428.21664
-1845.1364,555.78436,658.34045
-1375.7051,377.2352,744.998
-1191.8848,214.37126,735.9605
-906.7248,166.87439,529.36096
-644.6544,218.75487,378.88705
-335.1742,236.38637,312.0033
-208.37646,318.02423,320.12048
-256.06528,382.13544,378.14
-383.87033,127.74945,409.21848
-550.61426,43.391685,389.19608
-713.83167,296.1891,381.62823
-948.6646,381.5809,394.86578
-1113.7147,429.34604,386.76434
-1236.7317,379.00702,387.7374
-1410.0245,370.29132,413.58368
-1527.3721,360.2245,478.82248
-1382.0535,357.65497,503.17828
-959.3746,266.2069,458.1209
-801.67694,150.1073,269.7507
-856.7921,118.2378,160.69424
-1038.8319,162.14148,107.29409
-1124.362,146.97215,63.42642
-1062.3695,296.09152,33.220066
-981.0502,425.70383,79.33844
-840.64685,465.4751,148.84761
-772.9282,449.4825,197.34158
-724.99567,414.89517,155.80966
-685.67694,394.49493,161.84898
-628.5672,354.76913,152.77626
-619.8168,352.38638,155.7238
-626.5565,416.564,148.28053
-666.81915,482.60086,206.76662
-699.296,515.8197,223.50943
-757.3054,500.9545,251.42862
-824.5345,476.49756,264.8556
-974.9326,453.2211,304.27383
-1025.2277,418.39545,318.76428
-1165.1543,433.10812,353.5547
-1332.3235,488.88684,440.73788
-1191.7595,444.10272,483.01114
-880.576,328.38885,449.59836
-931.411,250.1409,416.64215
-1066.0042,232.23648,394.99576
-1032.0718,185.42899,349.38538
-788.42285,208.23877,315.732
-578.01495,284.26987,314.46832
-474.03198,330.19318,393.92172
-476.07495,361.66748,446.38098
-546.5707,392.10614,481.01096
-630.9709,281.90536,493.1069
-654.20483,294.54388,441.8875
-677.5754,345.00336,399.50836
-679.8261,367.69183,393.99835
-644.16327,327.13,402.92203
-618.68066,243.0018,360.17596
-578.6269,165.96234,291.70596
-607.363,194.85777,257.92285
-693.0788,249.52455,260.01303
-802.0325,293.91708,288.66437
-720.6664,335.16882,311.74173
-850.1594,372.79608,317.68423
-1250.6403,424.23383,375.93674
-1435.641,371.64532,350.16122
-1640.9598,355.68268,335.8981
-1670.6124,296.45493,323.07364
-1555.6293,277.32993,333.61887
-1246.7417,298.9788,302.92416
-868.9675,292.97577,269.511
-622.0052,272.08014,254.70993
-446.35373,290.87375,238.14392
-361.57852,328.46906,194.08405
-336.77246,287.48102,171.37926
-413.79312,260.74982,111.92879
-601.66766,285.19968,123.917786
-720.1919,270.44318,165.75061
-690.1089,313.10785,181.94922
-723.2188,370.63483,258.21548
-958.43726,438.47974,317.00952
-1285.3947,567.9871,436.22116
-1805.6992,677.98627,604.1817
-1548.3523,576.1287,780.572
-1311.2529,411.57333,694.8426
-1264.4386,354.19693,598.5106
-987.46277,190.68858,458.2016
-663.17334,224.24084,349.05325
-482.9264,275.58044,279.97467
-501.98697,364.66312,283.7003
-404.50018,305.46844,277.55304
-401.09875,290.9568,235.64317
-433.712,333.65732,199.44795
-562.85486,401.3613,180.33649
-684.2974,370.87726,192.65489
-730.0838,289.07913,184.04163
-1031.0055,274.01566,210.70677
-1177.5061,267.603,254.42995
-1502.7855,278.68115,294.11307
-1744.456,384.47562,344.94492
-1559.294,353.67276,328.99075
-1370.8712,339.6432,309.96686
-1143.989,355.63037,387.80676
-912.49243,344.9053,416.86194
-685.79376,358.94415,337.47122
-545.70105,286.24765,247.49208
-444.15268,295.73486,222.64459
-432.65967,363.88223,199.28406
-481.6844,369.75845,171.47226
-665.01587,407.81897,185.41841
-703.5455,405.93732,223.01833
-806.58307,455.9804,225.03491
-1061.2446,539.8621,286.00287
-1314.1293,667.92365,356.2864
-1470.2518,893.82,568.54034
-1487.2946,783.2052,699.2895
-1447.6277,479.04462,605.99695
-1426.1035,381.65405,560.11383
-1263.507,277.01886,454.77728
-904.9629,277.57516,388.24112
-717.95905,254.29173,356.60294
-651.9111,225.08713,339.17438
-555.4818,182.06268,267.74643
-510.2364,185.28712,197.37851
-619.1663,209.47743,157.59361
-726.33575,201.92365,115.038666
-749.62317,196.02014,109.484665
-792.0792,249.37439,180.91309
-813.2992,343.7435,230.12955
-909.80206,423.94006,231.71884
-1299.5503,642.279,336.56628
-1428.7725,661.7012,425.59634
-1333.0415,490.64633,408.27957
-1269.6604,343.94928,359.26047
-1154.9785,280.00305,420.87192
-1016.2732,397.20523,405.62976
-777.5561,439.47443,332.59058
-653.8596,407.9901,202.9455
-613.32886,448.44107,169.63826
-657.9788,474.32742,158.29924
-714.8592,479.14703,150.88292
-785.56866,518.706,137.44052
-727.4678,508.5856,174.79987
-764.33405,457.63455,123.46982
-1060.9486,559.18933,155.26706
-1565.9982,729.3539,269.73813
-1696.9977,906.64966,566.9963
-1344.1559,851.38464,764.94147
-1248.5093,672.4192,669.2378
-1245.4644,513.06165,569.7005
-1019.51624,232.42488,376.58444
-807.41907,132.71315,322.60333
-618.1129,100.7355,272.9983
-580.9967,186.39128,316.50067
-565.2891,118.95347,379.77255
-635.6535,173.07327,354.30722
-651.4172,247.53334,288.89154
-667.65826,313.00296,271.15985
-646.0951,231.70787,196.21103
-717.8235,239.17746,156.62741
-908.15405,317.97815,222.82391
-1116.6062,406.6614,318.72073
-1365.2976,537.4713,349.03772
-1319.3639,469.4229,285.95267
-1182.0061,387.2541,237.90372
-1152.463,415.32776,249.04634
-1172.766,452.5362,275.72226
-1116.9738,609.04706,312.39496
-782.3726,630.5413,234.18301
-555.4728,472.55716,52.79028
-383.8512,370.69275,29.307547
-296.16833,340.33963,48.55074
-369.42593,339.63638,46.16285
-896.62744,570.9555,67.15541
-1419.1439,817.45795,311.39142
-1541.934,757.49414,492.549
-1208.5009,643.6135,617.07733
-782.29,562.24695,689.45575
-708.3031,429.22348,575.64557
-743.6143,272.64087,451.40265
-743.2904,284.4234,429.37866
-935.7454,427.6158,579.3603
-1298.7853,220.74269,531.69635
-2131.3853,271.3948,456.7215
-2155.7197,374.9992,616.995
-1512.7034,185.11383,501.82367
-1226.9268,207.68631,270.85287
-1102.303,216.61525,260.29047
-960.9065,310.21494,322.7729
-732.6675,310.03644,284.1277
-580.73016,200.90527,200.05183
-451.03226,142.43674,168.93272
-461.58957,219.30548,157.7296
-476.56982,357.81235,160.03123
-524.82764,466.7713,152.92885
-615.6908,604.5299,147.63564
-677.84625,676.18085,148.55644
-773.0807,618.94135,165.49
-899.78436,525.13837,204.66653
-966.8674,515.2974,230.67607
-1302.242,547.8277,241.53535
-1537.7357,581.8279,255.42656
-1355.2913,582.49536,285.33426
-986.6481,366.7986,201.04706
-1048.8365,184.44731,170.3576
-1049.0874,154.73787,200.2741
-932.99646,215.11809,107.695
-721.4279,375.89594,70.94618
-565.98334,518.0985,113.714355
-464.64056,536.4101,174.29518
-497.67148,483.32788,216.19507
-588.6501,467.6324,329.96918
-674.2353,393.31247,369.05936
-651.51526,396.9288,416.31955
-736.08905,406.99985,501.87866
-797.65674,401.43045,510.71146
-959.1312,422.26944,526.73834
-1072.3169,434.03836,562.3576
-1138.2147,403.04086,578.99066
-1175.8851,408.71652,592.2048
-1285.7883,456.16238,649.30835
-1360.6105,413.6803,659.91876
-1125.3129,271.07462,484.62018
-884.9679,217.4899,332.49854
-827.27234,195.88004,261.27066
-961.4668,209.33253,210.2015
-1164.8607,198.87392,117.974205
-1152.9658,220.22899,72.12673
-1035.7401,247.99191,60.61613
-909.0031,280.49622,93.559006
-797.8736,273.3069,93.70706
-712.63544,290.70358,84.25714
-632.1365,276.5774,73.422455
-579.54236,263.69156,89.807655
-570.98975,279.50003,138.58
-560.82794,305.12057,174.44606
-554.2576,310.76987,177.95126
-562.54156,295.78503,181.03235
-552.1159,288.95114,184.85748
-636.7691,340.86557,205.77223
-742.7429,369.81256,229.89775
-876.06573,402.92413,210.21994
-908.48645,427.1938,226.72624
-946.4361,400.56058,229.60689
-1178.4303,479.1076,231.9146
-1680.6252,676.3628,312.05014
-1822.1351,790.1193,592.35046
-1336.7267,711.85297,675.1479
-1161.6898,633.91064,638.1856
-933.8723,423.6007,615.9911
-736.5124,279.06818,488.9945
-466.51605,299.39453,337.28815
-324.9403,367.91724,310.23285
-256.13873,348.64774,371.24503
-306.86908,384.0193,379.8537
-365.05325,196.21132,393.20288
-565.4398,119.24196,358.62357
-805.6479,351.87823,377.01495
-1097.812,351.3545,307.45837
-1630.084,403.97086,319.49725
-1745.2054,333.79114,325.04138
-1880.8757,272.3427,241.2445
-1787.0061,236.93823,227.63953
-1217.102,211.16945,316.2057
-759.60474,235.58102,230.06439
-522.6996,270.33813,191.70872
-388.75607,266.18103,180.6228
-360.44327,267.165,159.96222
-426.45816,254.78989,114.3976
-435.01956,273.08655,97.37669
-500.17276,258.23123,108.97643
-589.92584,295.02792,137.43523
-612.9836,305.50165,136.60359
-663.19275,367.66028,228.40689
-779.5648,381.77957,301.33298
-1062.7655,461.0118,383.6455
-1425.3945,494.92685,510.68286
-1855.1893,577.5532,703.3914
-1707.7844,534.27295,815.33813
-1278.214,410.06876,702.661
-1097.5076,309.60754,524.59534
-819.67706,206.66817,403.21896
-580.689,216.28989,315.9875
-396.6231,327.64236,229.1659
-339.50473,409.71735,266.09665
-334.8512,457.37036,333.1361
-359.52243,166.7122,334.32715
-398.13455,93.68904,315.23123
-661.57623,298.04974,281.39658
-852.37695,391.71576,251.51141
-1172.7957,341.37607,188.42976
-1525.6349,225.45024,205.63115
-1810.4359,223.20697,250.97815
-1872.6378,252.30034,273.69794
-1479.3433,298.9704,225.71199
-1133.1399,310.04715,256.41412
-898.4613,363.9694,286.34277
-753.9729,362.90002,221.29173
-541.9981,322.41602,162.37146
-429.63992,233.9145,134.96689
-315.74503,280.58795,145.00055
-312.03494,291.59186,127.70696
-438.06497,307.1512,105.67277
-600.4138,340.9624,181.43036
-664.778,347.55515,266.83746
-950.8188,368.35474,278.9677
-1281.2145,453.5956,360.35785
-1697.2863,583.56775,546.0122
-1806.5068,767.07196,908.271
-1420.4705,511.02084,852.79407
-1291.1619,330.91016,591.41315
-1152.9778,256.89096,489.3843
-837.71234,152.17656,389.6569
-558.527,198.18512,335.09607
-438.44644,277.40863,285.70398
-391.85928,315.44193,302.11026
-366.7821,260.7336,226.95906
-395.77493,322.70648,188.60239
-477.14124,305.2063,142.35165
-530.1423,270.291,144.79024
-681.6688,258.84445,136.48723
-910.64764,331.1314,158.59128
-1297.0731,392.92526,206.44777
-1702.4437,461.826,286.784
-1711.058,423.76508,306.63297
-1540.3483,313.18262,289.45932
-1328.009,277.5416,309.41028
-1147.8688,349.6279,364.64468
-977.24194,447.4489,347.59717
-698.92993,440.14117,289.88412
-527.54877,307.86148,219.8911
-409.38986,305.65872,180.25374
-367.64758,310.25363,145.29828
-429.12442,321.4923,164.07526
-562.56665,390.87347,176.28885
-572.5666,394.69702,211.76016
-689.42004,350.86957,200.23611
-1252.1118,403.26675,281.33533
-1818.6096,510.04205,408.9077
-1796.9056,787.7966,718.49725
-1251.1226,805.5711,951.1594
-1145.4897,520.14276,765.01416
-1128.8894,567.6578,636.5989
-916.9512,176.83417,455.14404
-599.5821,82.951584,339.88455
-566.9379,201.72786,328.15372
-605.53656,272.5819,362.7027
-592.7029,309.32425,333.9241
-591.55725,366.52588,263.59042
-743.3691,380.34634,228.68724
-747.2518,293.96716,203.24986
-633.3578,215.9074,183.87257
-653.11816,221.18819,234.21193
-813.2208,334.18143,310.7933
-1087.7073,478.7496,355.37585
-1328.8596,647.1121,389.39673
-1269.9971,613.1248,383.64185
-1132.917,455.9821,348.59653
-1018.1196,448.4733,412.39066
-1089.534,559.9013,459.15924
-1022.152,718.9718,373.65356
-830.41565,629.7224,268.37802
-667.97095,427.96326,176.98314
-593.38214,327.39606,181.74031
-633.9936,353.70474,169.94675
-655.2855,417.36554,145.62416
-741.6814,532.17993,137.83394
-777.20355,574.8571,141.25446
-732.9766,531.12946,157.85973
-833.99506,478.61996,232.39319
-1235.7864,503.759,275.11118
-1591.2162,634.5374,497.1096
-1681.3693,605.8849,760.0038
-1616.7565,494.7916,900.69775
-1438.2803,275.95102,836.53467
-1058.1497,12.825834,691.42303
-706.6693,-102.8724,534.2632
-474.14038,111.845474,513.39246
-399.80933,240.68958,580.25275
-343.32443,-76.8831,495.73013
-412.6805,145.41737,401.66782
-553.4742,313.11725,429.8625
-680.4305,404.4469,437.56912
-792.0133,467.41956,414.77042
-927.6441,435.52817,423.52753
-990.98804,361.4609,462.60858
-1017.02515,344.9156,403.84625
-1082.7555,371.09235,376.58795
-1176.577,392.5763,392.5681
-1147.4481,506.10684,415.6493
-1044.2716,515.94604,356.34827
-940.66815,361.73126,259.3668
-1003.55444,286.62552,245.4269
-1177.0708,214.74443,201.57657
-1161.1147,177.58653,93.06066
-1058.6832,267.0413,59.57709
-978.8699,347.52524,65.23596
-867.03546,436.4634,101.231575
-793.221,472.96533,113.3758
-758.8372,463.21146,133.88506
-698.6552,427.63962,152.52005
-628.2692,414.9613,215.04134
-570.25995,402.48807,234.64761
-546.84186,445.18268,231.49763
-576.0065,483.44577,265.50424
-646.81256,526.12024,320.60098
-754.6915,505.26044,365.0408
-885.40796,447.00403,375.30026
-985.8042,375.991,390.24963
-1044.73,319.37268,435.46902
-1189.5372,297.188,419.8133
-1421.5981,363.24606,421.59784
-1361.832,375.91446,467.0593
-978.8514,268.59766,389.9002
-879.2345,267.1591,337.57877
-939.14435,238.08058,371.46036
-919.08154,221.692,320.67172
-701.72003,268.9028,249.0682
-528.3054,329.9171,253.8038
-457.77072,351.7538,287.9609
-493.2871,399.66852,354.17554
-545.1447,371.68768,427.36615
-557.98737,388.7458,417.25305
-549.0266,384.1938,397.17462
-562.0245,321.26364,380.93646
-557.6132,275.74622,372.40414
-519.9121,206.30763,291.7276
-566.07574,215.85498,257.21262
-636.8141,259.4437,280.47507
-747.5728,276.12387,314.8777
-887.5734,318.8801,342.38138
-1165.0149,357.13852,362.35867
-1510.0469,401.75983,430.98993
-1497.8839,374.2785,432.36993
-1838.736,399.44373,362.9784
-1720.5829,323.81253,394.8751
-1170.6573,230.03825,311.13367
-745.357,218.4343,266.99203
-475.46686,118.52824,229.63356
-343.84793,148.18819,184.3466
-344.47287,208.84117,131.03317
-406.5536,280.53696,70.321556
-393.8062,312.96588,47.60932
-507.44427,307.83627,54.309376
-627.24854,341.554,102.87988
-626.94775,412.4637,192.1234
-707.92004,467.303,288.44836
-1136.8805,623.3058,424.88467
-1514.4907,721.3671,543.4382
-1797.1584,579.4472,642.86993
-1685.2386,485.04715,780.36285
-1364.8909,407.28702,723.79456
-1164.5591,283.1046,600.1559
-831.2282,272.9161,464.45453
-603.6468,319.36313,355.45532
-496.4446,346.439,303.44266
-426.8267,297.49557,218.7392
-350.297,276.0991,145.37395
-391.25223,284.7783,142.66068
-533.34186,318.37302,173.7703
-638.6,315.38004,192.26091
-691.37634,321.8781,221.93462
-903.7143,342.14453,294.97495
-1068.7047,374.52884,329.28482
-1292.5708,391.4931,368.20828
-1531.3658,408.902,351.61453
-1518.707,392.548,313.42715
-1405.5675,444.3609,317.31824
-1271.5704,483.38293,364.56808
-1091.9019,516.3999,405.20398
-863.8656,528.1931,327.29355
-617.33154,415.9075,280.4055
-536.84595,277.8681,217.77711
-505.41293,334.48483,169.53917
-570.06946,385.61264,153.53384
-654.413,462.35553,197.34415
-654.0894,526.11835,223.74112
-594.79865,490.51874,251.74387
-766.82635,476.33438,291.0483
-1080.5508,493.96484,476.39987
-1516.8842,379.38596,425.63898
-1779.3265,741.226,576.67596
-1397.1445,883.2716,872.36554
-1267.1501,605.718,686.3009
-1231.3624,575.07416,421.5907
-1137.6499,504.09348,385.69977
-1107.6691,141.00838,414.14374
-850.4,-34.37945,237.59326
-668.4871,109.816444,180.87909
-582.8569,188.9005,217.39774
-595.34576,209.83421,231.72046
-547.5789,233.27403,184.81151
-500.0785,243.93283,175.74579
-489.8875,281.59866,164.11913
-585.7499,365.72403,220.40887
-740.7816,515.10254,281.17044
-936.1589,632.65173,322.5697
-1150.1636,754.86176,399.55307
-1161.7181,635.10364,436.6346
-1131.1259,427.33643,417.48093
-1141.1746,366.32114,401.73633
-1172.1488,394.0295,432.72964
-1221.6091,600.3136,454.47864
-1013.71857,780.07074,459.73474
-712.8304,602.6613,352.87793
-527.8447,374.76187,228.40724
-589.8261,335.07886,230.75337
-632.89294,329.5681,254.58754
-684.53217,426.54422,258.79678
-708.9047,537.17224,217.50325
-918.3118,643.5976,192.84273
-1120.0588,657.03894,297.70255
-1548.3063,665.868,353.5152
-1839.1725,854.0462,679.5241
-1462.9581,599.078,738.6172
-1350.2087,462.9439,548.59546
-1280.6134,397.2671,478.3107
-1022.8477,222.66283,270.26743
-827.54974,250.39113,210.69144
-769.16504,142.72318,224.42749
-630.00574,123.04569,229.80779
-685.0546,195.21333,212.66257
-674.9433,208.69951,241.0583
-683.95764,215.82039,196.93602
-610.3615,251.12404,212.45895
-639.8888,314.73587,245.50456
-720.3955,459.2055,318.90396
-830.8917,515.22284,343.87903
-978.06964,588.5751,353.92517
-1218.7168,749.5521,455.9797
-1191.1248,563.8821,473.4748
-1118.5402,460.35776,406.32477
-1085.7329,419.37683,374.35318
-1059.046,459.45828,351.57956
-963.25977,666.4208,317.24197
-818.8345,673.79034,276.26276
-679.57153,510.7155,218.37639
-653.4027,328.2477,208.39465
-779.9902,368.4728,145.8164
-823.66003,374.70224,116.67981
-803.81696,435.61777,88.27132
-726.95624,542.7715,48.324722
-944.8052,640.84644,113.577415
-1111.5109,690.58575,247.96379
-1378.1433,763.2964,390.86905
-1652.9438,909.7661,802.5711
-1344.4196,788.0539,736.76355
-1219.0038,542.90424,414.37442
-1156.6437,295.5749,404.34006
-936.7875,167.42319,438.85333
-705.6644,148.04599,334.87625
-641.1429,240.69861,311.36984
-644.09814,281.38766,299.93997
-653.60046,270.22415,243.60516
-766.5321,268.0244,219.63077
-777.2299,182.18753,145.59048
-688.73773,186.06917,115.713974
-716.49835,274.3659,215.8105
-876.71716,321.40808,279.91858
-1093.6843,435.98462,279.11105
-1405.9348,501.8449,359.9074
-1430.789,511.75537,398.42673
-1292.7281,405.14963,330.5972
-1261.8135,424.25845,319.79462
-1176.9176,507.45886,397.26196
-1033.0732,617.0597,453.00098
-753.08105,554.30035,332.33334
-586.929,385.6384,268.81165
-499.065,315.88007,246.61476
-545.1253,399.32565,192.58359
-638.83984,501.54706,166.35088
-770.50366,493.42282,187.6752
-827.5004,390.95334,197.77673
-982.67065,344.48056,199.13261
-1232.601,437.23953,234.60097
-1648.3491,686.1763,385.9751
-1660.1559,887.1777,832.88885
-1255.1038,746.6465,811.39087
-1224.9385,679.6247,676.4794
-1092.5314,243.28513,565.30383
-821.45593,42.306297,416.80902
-755.5024,139.87845,412.97806
-640.956,193.31142,341.182
-554.96686,199.55286,257.4527
-607.9451,273.13776,241.76198
-589.89105,212.22273,143.12064
-587.76904,197.06778,123.85591
-583.3982,100.15749,96.41773
-453.90015,271.2904,167.51985
-675.2414,378.10318,299.21625
-1161.8916,475.09756,273.8849
-1483.367,656.2027,289.54843
-1647.4102,463.53397,326.8083
-1411.2493,303.6974,324.35144
-1293.8629,412.8034,320.49222
-1147.0469,691.76996,396.35025
-943.3764,772.6159,428.09177
-684.1034,583.1444,313.34573
-576.5985,375.649,216.2723
-573.3258,320.2123,204.4908
-610.8102,265.06555,189.79216
-751.24115,329.43936,133.94627
-834.54614,401.4637,81.53539
-621.28235,468.16238,96.22539
-383.91974,375.19836,146.40366
-452.62802,338.48764,113.15272
-853.6906,528.7373,115.72299
-1675.7571,871.21796,452.82718
-1885.4164,875.16925,805.0292
-1198.1016,462.0913,842.53534
-901.4082,361.07758,684.9015
-934.0164,192.5759,558.4161
-767.20575,59.917953,463.84824
-382.82507,148.17809,430.77667
-313.0277,277.47025,415.13504
-368.30173,319.1351,410.21262
-580.9037,285.41943,351.44492
-996.03235,310.31677,242.66603
-1762.4971,409.33203,191.73918
-1853.6818,493.9226,271.61414
-1551.6824,416.97507,240.94086
-1143.9662,273.80527,182.07246
-924.6032,204.74477,308.57874
-764.93524,295.49228,280.6173
-551.1895,320.44742,169.76639
-350.69562,283.13297,128.73996
-382.7919,330.49448,118.306404
-489.06808,359.46747,121.45596
-484.72513,309.58063,161.89148
-504.32413,322.41647,205.79662
-773.97565,469.6127,237.30278
-1104.6356,662.49097,404.2853
-1691.3925,892.0543,596.3083
-1633.3248,836.3118,888.4397
-1268.2181,597.6057,821.36597
-1169.0869,444.2626,649.2873
-956.3821,240.0349,568.14886
-637.76917,226.4395,455.786
-446.75684,319.39407,377.81427
-343.60342,464.80435,326.75626
-283.96295,464.2588,308.163
-283.58655,454.5347,288.73056
-397.56696,414.00818,279.00766
-633.419,351.11215,286.31918
-840.0555,287.46216,290.91556
-871.0708,268.0284,312.23233
-1152.0554,297.57272,341.619
-1549.7798,319.2137,367.51065
-1870.1891,406.14502,506.27252
-1861.7085,391.11057,565.8064
-1597.6288,109.4308,346.2668
-1317.0173,87.07546,274.77747
-1036.4059,183.50574,326.0692
-753.73114,247.43051,352.85443
-582.36414,339.8705,325.21515
-504.99042,419.7408,277.02814
-450.79477,374.81042,292.68887
-514.01483,335.9707,289.638
-627.42236,338.97455,288.64362
-752.8898,407.02136,299.666
-829.3284,468.59308,335.0999
-821.1983,454.043,326.67535
-840.4952,417.25003,318.213
-866.93445,386.49768,312.00168
-928.8954,392.6973,327.2963
-906.1389,408.29373,356.96765
-969.15576,381.65927,356.7439
-1076.3354,404.17197,355.39087
-1203.0332,364.38052,415.94556
-1034.9203,302.94916,342.3672
-962.99976,261.85233,270.38278
-1158.605,219.14813,239.42973
-1241.8174,258.2788,266.1112
-1091.4646,294.6279,218.72739
-787.55756,305.893,151.81824
-567.63513,329.99115,111.61166
-452.0348,356.37845,114.900246
-451.4783,391.9813,100.969284
-515.47626,408.9475,119.63221
-571.9194,389.78604,134.70319
-614.00323,386.66092,165.53186
-748.8736,449.77045,219.36952
-1006.5995,563.1058,349.68817
-1114.204,627.6862,436.05505
-1234.106,595.76465,484.56937
-1329.5809,550.7104,557.1921
-1306.6207,546.22784,604.9
-1309.4177,636.10767,620.0471
-1139.2037,554.5564,623.9412
-900.5374,334.5241,559.6817
-786.9231,293.1064,435.33298
-859.2235,295.98752,385.46323
-964.0436,235.21951,344.9607
-1055.8795,244.00397,337.5589
-1010.4123,280.06015,306.589
-853.53424,280.2578,276.3057
-752.7526,317.9399,248.75621
-685.51416,345.41922,229.22945
-630.1832,335.34756,184.62619
-589.2878,292.5656,169.43933
-545.4387,252.11958,188.29834
-512.8042,261.56165,196.63623
-633.26904,338.256,229.76448
-736.15607,392.10376,318.4579
-820.3745,395.9106,407.84244
-1029.9683,386.79947,391.57193
-1215.8098,321.70978,418.0628
-1287.4989,372.57068,572.5117
-1228.7487,431.2447,642.31366
-1164.1417,424.8901,538.3729
-1088.738,261.49338,381.88153
-1022.1992,212.62216,299.3935
-887.6792,246.56554,288.0583
-725.50616,288.563,213.58884
-606.27545,428.8069,156.43652
-513.6884,537.3437,134.34103
-495.69223,596.87305,179.24664
-495.31406,574.1697,238.69374
-563.9569,511.26007,309.95108
-663.036,516.1038,370.08682
-855.27246,529.1887,488.11423
-1049.0079,488.998,535.655
-1107.4779,350.9913,485.83286
-1241.0537,288.6124,459.83752
-1383.5907,310.52988,538.83203
-1355.2516,349.47354,528.92535
-1254.3365,351.60025,424.80957
-1208.7208,357.52512,298.42664
-1298.617,262.64758,255.49258
-1329.3425,89.13313,148.02496
-1120.408,99.61048,2.6517136
-870.41016,101.69214,-47.04249
-751.26935,116.58123,-29.384464
-671.89496,176.14137,-24.90586
-631.1669,209.13318,-36.431465
-626.1751,218.83295,-45.31346
-584.3907,202.54694,-23.854256
-597.57385,208.77415,32.833897
-601.2168,213.86101,128.5519
-594.91156,194.58328,130.99661
-558.569,191.63904,161.2215
-613.0961,221.61206,257.95834
-672.84265,268.9158,353.6168
-715.56854,353.92505,307.7337
-1042.427,495.84024,326.1465
-1817.0555,704.1316,540.18243
-2115.0928,923.5131,809.6686
-1579.7052,696.24634,720.1817
-1274.0343,425.7776,571.5279
-1018.55,241.9204,509.29346
-749.15216,220.2744,349.39758
-519.19446,291.80942,267.79675
-340.7352,467.63608,227.214
-230.12424,544.9062,247.92822
-248.96057,489.69498,271.83386
-383.08023,407.40802,334.90805
-588.8274,362.70477,364.92053
-767.9078,277.24832,303.93472
-961.76,234.26556,231.57825
-1287.8832,208.5209,218.05005
-1533.2587,218.59183,291.7243
-1646.5359,275.88763,349.85187
-1804.652,297.89325,298.21243
-1535.6191,301.50034,291.91534
-1173.7112,276.6407,306.33298
-802.6574,247.87657,280.43597
-521.8972,198.17012,240.11676
-349.8114,206.4127,216.98242
-326.08997,195.82767,182.3411
-379.40237,238.62616,133.56067
-412.54535,287.14523,122.06797
-492.42075,286.78705,127.39778
-658.4909,297.11176,151.18875
-709.5157,319.5983,207.30792
-769.5086,357.69067,264.2789
-995.9973,445.49265,318.10425
-1462.2078,586.8623,417.04306
-1724.3335,687.8574,626.8487
-1627.618,658.455,799.43835
-1521.1611,553.3214,690.652
-1239.8663,213.80748,500.66144
-902.0955,79.11491,405.35397
-691.05145,215.20737,393.09122
-531.3616,326.46927,328.0144
-469.55792,471.27206,302.6157
-382.3498,422.8106,280.31754
-418.51294,325.10385,252.9989
-528.9422,290.83832,224.13927
-680.26984,249.54948,206.79265
-734.6324,203.2886,166.47906
-956.2829,232.54855,194.45807
-1255.1692,257.0876,232.40784
-1492.0791,342.10904,301.10825
-1839.0847,450.1435,302.69434
-1686.982,437.83136,335.0473
-1213.8201,339.08978,369.45944
-811.09576,308.9865,400.45026
-606.0875,213.01006,322.38562
-551.8173,229.77695,249.81953
-571.0956,245.69456,177.49959
-593.92944,276.0256,178.35764
-609.7154,318.21075,139.08018
-654.3824,364.6525,104.35334
-694.2485,392.11243,80.06613
-723.5181,482.15286,169.59917
-689.67456,477.96652,208.40753
-855.4716,595.8841,328.6575
-1126.8398,694.82605,403.8985
-1829.0996,861.4885,715.2157
-1727.4296,709.3956,905.49854
-1290.022,331.9304,568.22974
-1145.9731,204.5304,496.35706
-910.4426,131.64853,493.60947
-639.77106,269.4958,411.6369
-504.20648,303.63904,350.18686
-508.75278,351.93512,316.52643
-537.61206,278.7898,283.46426
-663.69586,285.65683,241.09102
-736.407,234.33865,187.51553
-763.76056,223.2505,156.17728
-942.2986,226.28168,158.87695
-1196.425,259.4682,190.28935
-1288.6914,307.60583,194.85413
-1610.0693,443.21396,218.06917
-1683.0563,429.88687,288.34668
-1323.1659,354.88345,333.42316
-915.8547,353.9689,371.48135
-686.97034,259.14255,333.97733
-621.5903,300.4218,243.51999
-688.70795,305.60492,179.91937
-822.1319,266.11108,160.95506
-868.759,327.3915,135.16655
-921.67535,326.0928,60.345078
-951.1037,346.25684,-27.307564
-918.2933,505.9236,4.082771
-669.3631,565.61707,80.717384
-433.79733,493.5849,96.29117
-328.7076,452.06146,10.9160795
-785.0927,685.38806,166.4966
-1371.3866,828.7734,495.41962
-1804.2113,894.9981,771.16016
-1393.4973,658.8918,836.45013
-1037.8973,174.01529,685.207
-1012.0394,-0.28915578,568.9468
-753.17004,111.600136,457.6507
-519.6918,318.23038,409.158
-347.64996,151.35558,328.375
-403.95895,221.69756,311.63464
-508.4454,267.99252,339.13202
-943.5141,321.9069,342.44492
-1492.7191,495.4585,270.74872
-1667.6185,633.2022,188.72466
-1510.0195,507.01532,144.65514
-1203.6776,212.88138,192.07057
-911.5359,106.829765,310.95425
-776.1552,227.97821,425.69504
-646.2876,331.12976,298.3792
-542.7432,435.19342,182.39272
-525.5841,444.57184,102.82308
-586.2771,393.2601,100.38516
-601.79456,306.3039,91.78077
-686.7959,310.5286,131.78981
-723.96295,380.28162,195.68108
-1160.5288,419.1115,189.85173
-2283.9067,578.03973,232.45471
-1918.0079,736.1191,503.6981
-1417.3976,524.4503,642.3825
-1400.5941,333.78506,887.83374
-1084.0487,113.55,656.0347
-753.02344,145.2379,226.94571
-482.40247,299.2362,190.19453
-271.82047,343.91574,220.29283
-264.2847,410.4667,275.94012
-461.51862,519.4704,405.84964
-616.7572,-266.862,421.41907
-729.7979,-296.36752,490.90158
-864.02795,330.9149,477.8651
-1168.6982,559.57477,477.17783
-1166.6753,619.3911,424.67676
-1181.8954,396.3522,311.80582
-1344.0399,204.69171,342.68103
-1468.0394,127.4561,452.42648
-1164.8258,234.91455,383.3421
-804.41656,253.30319,202.03932
-866.17993,240.70744,141.87701
-1051.0276,248.9054,115.640755
-1189.4092,231.36638,55.36448
-1045.7625,269.26138,53.77482
-915.8909,354.4057,89.37217
-828.7797,412.94604,185.38817
-772.5771,381.68985,183.72493
-715.2073,324.25977,120.16224
-688.5911,282.4117,108.97796
-678.2739,271.955,128.73587
-658.34906,313.74194,148.08728
-722.85583,369.9734,122.31638
-811.71094,399.9023,128.16222
-919.9562,408.3606,148.8223
-993.41376,376.63702,176.91905
-1133.6171,414.61047,204.53949
-1373.1517,443.42584,241.86813
-1470.2544,497.12897,347.44177
-1070.7832,434.48172,416.7039
-767.5407,321.47592,354.846
-842.7279,342.17258,393.22556
-894.8068,297.98773,372.283
-988.4683,310.20145,320.05823
-785.66797,362.082,306.5695
-601.0249,379.53696,372.7052
-468.62048,359.137,463.3435
-442.85236,349.88617,550.3266
-446.81885,416.40308,553.6017
-445.56046,354.58768,486.19034
-442.7853,173.74748,399.60074
-506.10526,209.70746,392.45688
-561.4527,241.39427,404.9532
-636.84015,288.18228,352.6564
-693.8589,282.69138,304.03375
-741.2493,278.8188,337.7481
-806.77075,266.3027,322.84378
-1280.8344,396.05487,380.65244
-1374.7506,409.55148,429.31137
-1657.8191,366.07352,346.64288
-1779.5856,307.75876,312.52725
-1523.9702,256.8444,287.46054
-1236.3773,295.57748,328.64075
-817.2653,281.67233,284.30606
-527.1617,248.69313,251.63686
-369.59946,221.70718,230.53462
-260.13547,126.39751,189.74808
-314.96835,115.25069,99.24606
-293.49316,193.02544,64.627716
-402.9026,290.0345,79.359116
-637.52246,379.66324,135.46356
-809.4068,423.00995,218.12148
-1052.6931,504.9645,307.9325
-1728.9667,784.5099,523.74945
-2012.7025,942.1155,933.25183
-1547.8423,624.13196,844.33246
-1300.7667,223.3452,507.80157
-984.21265,-107.7015,442.46024
-736.46027,24.09334,283.9578
-491.55988,257.93613,234.9132
-384.99588,391.12915,262.46442
-352.87097,420.0336,308.11206
-406.85425,385.01697,348.8287
-482.43674,309.5595,354.7633
-567.07837,316.5213,369.86618
-693.89197,317.75897,342.46848
-781.03156,304.8338,266.76535
-1039.859,272.9346,228.34445
-1283.7048,207.30356,258.75598
-1694.9766,233.6834,336.1136
-1769.3038,281.64197,338.27234
-1523.9146,269.60355,283.09372
-1189.1652,315.27277,274.9201
-833.1729,350.75278,324.29144
-654.7268,402.25464,296.5751
-495.2196,444.13232,238.16876
-353.7948,401.7695,198.18901
-292.9775,340.31146,169.10075
-435.86276,419.72314,160.02725
-695.1541,402.12372,231.4855
-839.9081,302.7889,197.24008
-824.7073,301.95752,170.31447
-1006.0364,398.1606,213.17923
-1223.5465,527.39514,297.8383
-1671.0863,786.49005,459.3575
-1557.013,797.921,780.018
-1210.7612,601.2389,770.8214
-1163.8833,468.22092,648.11206
-1065.9672,207.4426,572.52716
-757.86304,161.38145,490.87805
-452.37985,241.80203,345.28577
-366.9493,289.6426,351.0983
-431.8535,407.51547,377.0184
-489.0359,-87.88432,393.70697
-580.23175,36.69057,357.19528
-725.573,317.44806,240.90482
-846.9605,324.3289,196.76044
-869.41064,294.85895,143.78154
-951.1594,199.70097,113.872826
-1162.737,217.79799,166.43079
-1208.4398,334.13712,301.44528
-1433.1594,496.8605,303.09515
-1610.1145,620.2477,351.01404
-1341.4493,530.5958,412.37692
-944.9403,405.6753,425.2779
-675.66986,250.87874,400.04163
-562.00604,225.86366,343.4138
-536.5681,252.58968,282.55917
-544.35895,264.69,221.83249
-563.0883,318.82507,220.95708
-624.1129,366.95972,248.32497
-644.7133,362.77283,201.46341
-582.4351,404.08374,259.80862
-473.5444,402.12634,295.72614
-556.5231,453.10403,183.94504
-742.35126,635.242,268.1262
-1292.5085,727.19507,529.6353
-1652.1838,781.6363,788.7162
-1327.3838,699.9542,851.2507
-884.95795,457.90433,642.6776
-588.1403,312.25085,490.35837
-417.35205,198.43787,566.9762
-253.35555,165.8969,449.46313
-182.01036,368.77838,263.92758
-323.39917,463.9973,153.79013
-721.5952,624.717,171.31578
-1302.7507,855.74243,242.06548
-1505.4442,1136.2667,332.90436
-1361.1011,958.51886,218.158
-1069.2438,670.74835,173.16188
-785.34467,760.1049,204.65689
-600.879,860.2072,201.70285
-403.4156,751.2743,174.8988
-358.41052,724.8264,247.04341
-304.3051,816.06537,312.17776
-235.52707,633.47327,265.8596
-280.1742,700.2808,171.82011
-403.05014,809.3084,174.22568
-494.97375,950.22906,229.64757
-699.34985,1067.4197,308.92316
-839.29297,1180.7238,279.95343
