#Format version: 1.0
time[ms],accX[mg],accY[mg],accZ[mg],gyroX[mdps],gyroY[mdps],gyroZ[mdps],magnX[mG],magnY[mG],magnZ[mG],press[hPa],temp[°C],hum[0,83,0,-1004,70,-770,140,,,,,,,0x03,
10,84,-1,-1004,70,-700,210,,,,,,,0x03,
19,84,0,-1006,140,-630,280,,,,,,,0x03,
29,84,-1,-1005,350,-490,350,,,,,,,0x03,
39,85,0,-1005,420,-490,490,,,,,,,0x03,
48,85,0,-1005,560,-420,490,,,,,,,0x03,
58,84,-2,-1005,560,-420,420,,,,,,,0x03,
68,84,-2,-1005,490,-420,420,,,,,,,0x03,
77,83,-2,-1003,350,-420,350,,,,,,,0x03,
87,84,-2,-1003,210,-490,350,,,,,,,0x03,
96,84,-1,-1004,140,-490,280,,,,,,,0x03,
106,85,-2,-1004,0,-420,350,,,,,,,0x03,
116,84,-2,-1005,0,-350,420,,,,,,,0x03,
125,84,-1,-1005,140,-210,420,,,,,,,0x03,
135,84,-1,-1005,140,-140,350,,,,,,,0x03,
145,86,-2,-1005,70,-210,210,,,,,,,0x03,
154,84,-2,-1004,-70,-210,140,,,,,,,0x03,
164,84,-2,-1004,-140,-280,140,,,,,,,0x03,
174,85,-1,-1005,-140,-210,140,,,,,,,0x03,
183,85,-1,-1005,-140,-140,140,,,,,,,0x03,
193,84,-1,-1005,-210,-140,210,,,,,,,0x03,
203,86,-2,-1003,-350,-140,210,,,,,,,0x03,
212,86,-2,-1003,-630,-280,140,,,,,,,0x03,
222,87,-2,-1002,-1050,-490,70,,,,,,,0x03,
231,87,-1,-1004,-1400,-630,0,,,,,,,0x03,
241,86,0,-1003,-1400,-700,-70,,,,,,,0x03,
251,85,0,-1004,-1400,-700,-70,,,,,,,0x03,
260,87,0,-1005,-1260,-700,0,,,,,,,0x03,
270,85,0,-1005,-1050,-630,0,,,,,,,0x03,
280,86,0,-1005,-770,-630,0,,,,,,,0x03,
289,85,0,-1004,-700,-630,0,,,,,,,0x03,
299,86,0,-1004,-560,-700,0,,,,,,,0x03,
309,86,0,-1005,-560,-770,-70,,,,,,,0x03,
318,85,0,-1004,-420,-770,0,,,,,,,0x03,
328,84,0,-1004,-280,-770,0,,,,,,,0x03,
338,85,1,-1003,-140,-700,70,,,,,,,0x03,
347,85,1,-1006,70,-630,140,,,,,,,0x03,
357,84,0,-1005,350,-700,280,,,,,,,0x03,
366,85,0,-1005,490,-700,350,,,,,,,0x03,
376,86,0,-1004,560,-700,350,,,,,,,0x03,
386,85,0,-1005,700,-770,350,,,,,,,0x03,
395,85,0,-1005,840,-770,350,,,,,,,0x03,
405,85,0,-1004,1050,-770,490,,,,,,,0x03,
415,84,-1,-1004,1120,-770,490,,,,,,,0x03,
424,85,-1,-1004,1120,-770,490,,,,,,,0x03,
434,86,0,-1005,1050,-700,420,,,,,,,0x03,
444,85,0,-1004,980,-770,420,,,,,,,0x03,
453,85,0,-1005,980,-840,350,,,,,,,0x03,
463,85,-2,-1006,1050,-840,350,,,,,,,0x03,
473,86,-2,-1005,1050,-840,280,,,,,,,0x03,
482,86,-1,-1004,910,-840,210,,,,,,,0x03,
492,86,-2,-1004,770,-840,210,,,,,,,0x03,
501,86,-1,-1005,630,-910,140,,,,,,,0x03,
511,86,-2,-1005,490,-840,70,,,,,,,0x03,
521,85,-2,-1005,350,-910,70,,,,,,,0x03,
530,85,-2,-1004,210,-910,0,,,,,,,0x03,
540,85,-2,-1003,140,-910,-70,,,,,,,0x03,
550,85,-2,-1004,0,-980,-70,,,,,,,0x03,
559,85,-2,-1005,0,-980,-140,,,,,,,0x03,
569,86,-3,-1005,-70,-980,-70,,,,,,,0x03,
579,85,-1,-1005,-70,-980,-70,,,,,,,0x03,
588,86,-2,-1005,70,-980,-70,,,,,,,0x03,
598,85,-2,-1004,70,-910,-70,,,,,,,0x03,
608,85,-1,-1004,140,-910,-140,,,,,,,0x03,
617,85,-2,-1004,140,-840,-70,,,,,,,0x03,
627,84,-2,-1006,210,-840,-140,,,,,,,0x03,
636,84,-2,-1005,280,-770,-70,,,,,,,0x03,
646,85,-2,-1005,350,-700,-70,,,,,,,0x03,
656,83,-2,-1005,420,-700,0,,,,,,,0x03,
665,85,-3,-1005,420,-630,0,,,,,,,0x03,
675,86,-2,-1004,350,-630,0,,,,,,,0x03,
685,85,-2,-1004,350,-630,0,,,,,,,0x03,
694,85,-2,-1004,350,-630,0,,,,,,,0x03,
704,85,-2,-1005,420,-630,70,,,,,,,0x03,
714,85,-2,-1005,420,-560,140,,,,,,,0x03,
723,84,-3,-1004,490,-560,140,,,,,,,0x03,
733,84,-2,-1004,560,-490,210,,,,,,,0x03,
743,84,-3,-1003,490,-560,140,,,,,,,0x03,
752,85,-3,-1004,490,-630,140,,,,,,,0x03,
762,84,-3,-1005,420,-630,210,,,,,,,0x03,
771,85,-3,-1005,490,-700,280,,,,,,,0x03,
781,86,-3,-1004,490,-700,280,,,,,,,0x03,
791,84,-3,-1004,560,-700,420,,,,,,,0x03,
800,86,-3,-1006,630,-700,420,,,,,,,0x03,
810,85,-4,-1006,700,-700,490,,,,,,,0x03,
820,86,-4,-1004,560,-770,420,,,,,,,0x03,
829,85,-4,-1004,350,-840,350,,,,,,,0x03,
839,85,-4,-1005,210,-910,280,,,,,,,0x03,
849,85,-4,-1004,210,-910,210,,,,,,,0x03,
858,85,-4,-1005,280,-840,210,,,,,,,0x03,
868,85,-4,-1003,280,-840,210,,,,,,,0x03,
878,85,-4,-1005,210,-910,210,,,,,,,0x03,
887,85,-4,-1004,140,-910,140,,,,,,,0x03,
897,86,-4,-1005,140,-840,210,,,,,,,0x03,
906,85,-4,-1004,210,-770,280,,,,,,,0x03,
916,85,-3,-1005,280,-770,280,,,,,,,0x03,
926,86,-3,-1004,420,-770,350,,,,,,,0x03,
935,85,-4,-1004,560,-700,420,,,,,,,0x03,
945,85,-3,-1006,840,-630,630,,,,,,,0x03,
955,84,-4,-1004,980,-560,840,,,,,,,0x03,
964,85,-5,-1006,910,-560,840,,,,,,,0x03,
974,85,-5,-1005,910,-490,770,,,,,,,0x03,
984,85,-4,-1007,980,-490,700,,,,,,,0x03,
993,85,-6,-1006,1190,-350,630,,,,,,,0x03,
1003,86,-5,-1007,1330,-280,630,,,,,,,0x03,
1013,85,-5,-1004,1470,-140,560,,,,,,,0x03,
1022,85,-5,-1004,1470,-140,560,,,,,,,0x03,
1032,85,-7,-1006,1540,-70,630,,,,,,,0x03,
1042,86,-5,-1005,1610,0,770,,,,,,,0x03,
1051,85,-4,-1006,1750,70,910,,,,,,,0x03,
1061,85,-5,-1004,2030,70,1190,,,,,,,0x03,
1070,87,-6,-1005,2170,140,1470,,,,,,,0x03,
1080,87,-8,-1005,2170,70,1470,,,,,,,0x03,
1090,87,-10,-1004,2170,70,1470,,,,,,,0x03,
1099,87,-10,-1004,1960,0,1260,,,,,,,0x03,
1109,88,-12,-1004,1680,-70,1050,,,,,,,0x03,
1119,87,-10,-1004,1470,-140,840,,,,,,,0x03,
1128,87,-10,-1004,1330,-140,700,,,,,,,0x03,
1138,87,-11,-1005,1190,-140,700,,,,,,,0x03,
1148,87,-10,-1004,1120,-210,700,,,,,,,0x03,
1157,88,-10,-1005,980,-280,700,,,,,,,0x03,
1167,88,-9,-1006,1120,-210,770,,,,,,,0x03,
1177,88,-10,-1005,1190,-140,910,,,,,,,0x03,
1186,88,-10,-1004,1190,-140,1120,,,,,,,0x03,
1196,88,-11,-1005,1120,-140,1260,,,,,,,0x03,
1205,88,-10,-1005,1050,-210,1120,,,,,,,0x03,
1215,88,-11,-1004,1050,-140,1120,,,,,,,0x03,
1225,88,-12,-1004,1050,-140,1120,,,,,,,0x03,
1234,88,-13,-1003,980,-140,980,,,,,,,0x03,
1244,88,-12,-1004,770,-280,910,,,,,,,0x03,
1254,88,-11,-1003,700,-350,770,,,,,,,0x03,
1263,88,-11,-1005,770,-350,770,,,,,,,0x03,
1273,88,-9,-1005,910,-210,980,,,,,,,0x03,
1283,89,-7,-1006,1330,0,1260,,,,,,,0x03,
1292,88,-7,-1006,1610,0,1890,,,,,,,0x03,
1302,89,-13,-1006,1890,70,2520,,,,,,,0x03,
1312,89,-13,-1007,2450,280,2450,,,,,,,0x03,
1321,89,-12,-1006,3080,420,2380,,,,,,,0x03,
1331,88,-15,-1005,3360,420,2520,,,,,,,0x03,
1340,90,-13,-1005,3500,420,2520,,,,,,,0x03,
1350,87,-13,-1006,3710,420,2660,,,,,,,0x03,
1360,90,-14,-1004,3780,490,3080,,,,,,,0x03,
1369,88,-14,-1003,3710,350,3500,,,,,,,0x03,
1379,88,-16,-1006,3640,350,3780,,,,,,,0x03,
1389,90,-19,-1004,3640,490,3780,,,,,,,0x03,
1398,90,-21,-1004,3360,490,3500,,,,,,,0x03,
1408,92,-23,-1001,3010,420,3290,,,,,,,0x03,
1418,92,-24,-1002,2380,140,2800,,,,,,,0x03,
1427,92,-23,-1002,1750,-140,2240,,,,,,,0x03,
1437,92,-21,-1004,1540,-280,1890,,,,,,,0x03,
1447,91,-20,-1004,1750,-420,1820,,,,,,,0x03,
1456,90,-19,-1003,2310,-490,2100,,,,,,,0x03,
1466,91,-19,-1004,2800,-560,2520,,,,,,,0x03,
1475,91,-22,-1006,3220,-700,2800,,,,,,,0x03,
1485,92,-25,-1006,3430,-490,2660,,,,,,,0x03,
1495,93,-28,-1003,3150,-420,2240,,,,,,,0x03,
1504,93,-29,-1002,2380,-630,1610,,,,,,,0x03,
1514,93,-28,-1003,1610,-910,1050,,,,,,,0x03,
1524,92,-27,-1005,1050,-980,630,,,,,,,0x03,
1533,93,-26,-1004,630,-980,350,,,,,,,0x03,
1543,92,-25,-1005,350,-910,280,,,,,,,0x03,
1553,91,-25,-1006,420,-840,210,,,,,,,0x03,
1562,91,-25,-1006,560,-840,210,,,,,,,0x03,
1572,91,-26,-1006,700,-770,140,,,,,,,0x03,
1582,91,-25,-1003,700,-700,210,,,,,,,0x03,
1591,91,-26,-1005,560,-700,140,,,,,,,0x03,
1601,91,-27,-1006,350,-700,70,,,,,,,0x03,
1610,92,-26,-1004,70,-700,0,,,,,,,0x03,
1620,92,-25,-1003,-350,-770,-70,,,,,,,0x03,
1630,91,-25,-1004,-630,-910,-210,,,,,,,0x03,
1639,90,-25,-1004,-770,-980,-210,,,,,,,0x03,
1649,90,-25,-1004,-770,-910,-280,,,,,,,0x03,
1659,91,-24,-1004,-700,-910,-210,,,,,,,0x03,
1668,92,-24,-1004,-630,-910,-140,,,,,,,0x03,
1678,92,-24,-1004,-350,-840,-70,,,,,,,0x03,
1688,91,-24,-1004,-70,-840,0,,,,,,,0x03,
1697,91,-25,-1004,0,-840,0,,,,,,,0x03,
1707,92,-25,-1003,0,-910,-70,,,,,,,0x03,
1717,92,-25,-1002,-140,-1050,-140,,,,,,,0x03,
1726,92,-24,-1003,-490,-1260,-210,,,,,,,0x03,
1736,90,-25,-1003,-770,-1470,-280,,,,,,,0x03,
1745,90,-25,-1003,-980,-1680,-350,,,,,,,0x03,
1755,90,-24,-1002,-1190,-1820,-420,,,,,,,0x03,
1765,91,-24,-1004,-1330,-1960,-490,,,,,,,0x03,
1774,88,-24,-1003,-1470,-2100,-490,,,,,,,0x03,
1784,89,-24,-1003,-1680,-2100,-560,,,,,,,0x03,
1794,90,-24,-1002,-1820,-2170,-630,,,,,,,0x03,
1803,90,-22,-1005,-1820,-2170,-630,,,,,,,0x03,
1813,89,-22,-1005,-1680,-2100,-630,,,,,,,0x03,
1823,89,-22,-1005,-1540,-1960,-560,,,,,,,0x03,
1832,88,-22,-1006,-1400,-1890,-490,,,,,,,0x03,
1842,88,-22,-1004,-1330,-1890,-490,,,,,,,0x03,
1852,87,-22,-1005,-1400,-1820,-490,,,,,,,0x03,
1861,88,-20,-1005,-1540,-1890,-560,,,,,,,0x03,
1871,87,-21,-1004,-1610,-1820,-560,,,,,,,0x03,
1880,87,-21,-1004,-1750,-1820,-560,,,,,,,0x03,
1890,87,-20,-1004,-1820,-1890,-630,,,,,,,0x03,
1900,87,-19,-1005,-1890,-1820,-700,,,,,,,0x03,
1909,87,-19,-1005,-1820,-1750,-630,,,,,,,0x03,
1919,87,-18,-1006,-1610,-1680,-630,,,,,,,0x03,
1929,87,-18,-1007,-1330,-1610,-560,,,,,,,0x03,
1938,87,-18,-1005,-1120,-1540,-490,,,,,,,0x03,
1948,86,-19,-1004,-1120,-1610,-490,,,,,,,0x03,
1958,85,-18,-1005,-1120,-1610,-490,,,,,,,0x03,
1967,86,-18,-1006,-1050,-1610,-490,,,,,,,0x03,
1977,86,-18,-1004,-1050,-1540,-490,,,,,,,0x03,
1987,85,-17,-1005,-1050,-1470,-490,,,,,,,0x03,
1996,85,-18,-1006,-910,-1330,-490,,,,,,,0x03,
2006,86,-17,-1006,-630,-1190,-490,,,,,,,0x03,
2016,86,-16,-1006,-350,-1050,-420,,,,,,,0x03,
2025,85,-17,-1006,-70,-980,-350,,,,,,,0x03,
2035,85,-18,-1004,0,-910,-280,,,,,,,0x03,
2044,84,-18,-1004,-210,-980,-350,,,,,,,0x03,
2054,85,-18,-1005,-490,-1050,-350,,,,,,,0x03,
2064,85,-17,-1005,-700,-1190,-420,,,,,,,0x03,
2073,86,-17,-1005,-770,-1260,-420,,,,,,,0x03,
2083,85,-17,-1003,-770,-1330,-420,,,,,,,0x03,
2093,85,-16,-1004,-910,-1330,-420,,,,,,,0x03,
2102,85,-17,-1004,-980,-1400,-490,,,,,,,0x03,
2112,85,-16,-1005,-1050,-1400,-490,,,,,,,0x03,
2122,85,-17,-1003,-1050,-1470,-490,,,,,,,0x03,
2131,84,-16,-1007,-1120,-1470,-490,,,,,,,0x03,
2141,84,-17,-1004,-1190,-1470,-490,,,,,,,0x03,
2151,85,-16,-1005,-1260,-1540,-490,,,,,,,0x03,
2160,84,-15,-1003,-1400,-1540,-490,,,,,,,0x03,
2170,84,-17,-1004,-1610,-1610,-560,,,,,,,0x03,
2179,84,-14,-1006,-1680,-1680,-700,,,,,,,0x03,
2189,83,-15,-1006,-1610,-1680,-700,,,,,,,0x03,
2199,83,-14,-1005,-1400,-1610,-630,,,,,,,0x03,
2208,83,-14,-1004,-1190,-1540,-560,,,,,,,0x03,
2218,83,-13,-1005,-1050,-1470,-490,,,,,,,0x03,
2228,82,-13,-1006,-910,-1470,-490,,,,,,,0x03,
2237,83,-13,-1006,-840,-1400,-490,,,,,,,0x03,
2247,82,-14,-1005,-770,-1260,-490,,,,,,,0x03,
2257,82,-15,-1004,-700,-1190,-420,,,,,,,0x03,
2266,82,-13,-1005,-700,-1190,-350,,,,,,,0x03,
2276,82,-13,-1006,-560,-1190,-350,,,,,,,0x03,
2286,83,-12,-1007,-350,-1050,-280,,,,,,,0x03,
2295,81,-14,-1005,-140,-980,-280,,,,,,,0x03,
2305,82,-13,-1004,70,-770,-210,,,,,,,0x03,
2314,82,-14,-1005,70,-700,-210,,,,,,,0x03,
2324,83,-13,-1006,70,-700,-210,,,,,,,0x03,
2334,82,-13,-1006,140,-700,-210,,,,,,,0x03,
2343,82,-14,-1005,140,-700,-210,,,,,,,0x03,
2353,82,-14,-1004,210,-630,-140,,,,,,,0x03,
2363,82,-14,-1005,140,-700,-140,,,,,,,0x03,
2372,83,-14,-1005,70,-700,-210,,,,,,,0x03,
2382,83,-14,-1005,-70,-770,-210,,,,,,,0x03,
2392,82,-13,-1005,-140,-770,-210,,,,,,,0x03,
2401,83,-13,-1005,-210,-840,-280,,,,,,,0x03,
2411,83,-14,-1004,-280,-840,-280,,,,,,,0x03,
2421,83,-13,-1004,-350,-910,-280,,,,,,,0x03,
2430,82,-13,-1005,-350,-910,-280,,,,,,,0x03,
2440,82,-14,-1005,-280,-910,-210,,,,,,,0x03,
2449,82,-13,-1005,-210,-910,-210,,,,,,,0x03,
2459,82,-12,-1005,-210,-840,-210,,,,,,,0x03,
2469,83,-13,-1004,-280,-840,-280,,,,,,,0x03,
2478,83,-12,-1004,-350,-840,-280,,,,,,,0x03,
2488,82,-13,-1005,-350,-840,-280,,,,,,,0x03,
2498,83,-13,-1005,-210,-770,-210,,,,,,,0x03,
2507,82,-14,-1005,-210,-770,-210,,,,,,,0x03,
2517,83,-13,-1004,-280,-770,-280,,,,,,,0x03,
2527,82,-12,-1004,-280,-770,-350,,,,,,,0x03,
2536,81,-13,-1004,-280,-840,-350,,,,,,,0x03,
2546,82,-13,-1007,-210,-770,-420,,,,,,,0x03,
2556,83,-13,-1004,-140,-770,-420,,,,,,,0x03,
2565,82,-13,-1005,-140,-700,-420,,,,,,,0x03,
2575,82,-12,-1005,-210,-840,-490,,,,,,,0x03,
2584,83,-13,-1004,-280,-840,-490,,,,,,,0x03,
2594,81,-13,-1006,-210,-770,-490,,,,,,,0x03,
2604,82,-12,-1006,0,-770,-490,,,,,,,0x03,
2613,82,-11,-1007,280,-700,-560,,,,,,,0x03,
2623,82,-13,-1006,420,-630,-630,,,,,,,0x03,
2633,82,-14,-1003,280,-700,-770,,,,,,,0x03,
2642,81,-12,-1004,-70,-840,-910,,,,,,,0x03,
2652,81,-13,-1004,-280,-840,-910,,,,,,,0x03,
2662,81,-11,-1005,-210,-770,-840,,,,,,,0x03,
2671,81,-11,-1005,70,-700,-700,,,,,,,0x03,
2681,82,-12,-1005,280,-630,-420,,,,,,,0x03,
2691,81,-12,-1003,350,-560,-420,,,,,,,0x03,
2700,82,-12,-1005,280,-630,-350,,,,,,,0x03,
2710,81,-12,-1005,350,-560,-350,,,,,,,0x03,
2719,82,-11,-1007,420,-490,-350,,,,,,,0x03,
2729,81,-12,-1003,490,-490,-280,,,,,,,0x03,
2739,82,-13,-1003,350,-630,-210,,,,,,,0x03,
2748,82,-12,-1004,140,-770,-210,,,,,,,0x03,
2758,82,-12,-1005,210,-630,-140,,,,,,,0x03,
2768,82,-13,-1004,280,-630,-140,,,,,,,0x03,
2777,82,-14,-1004,210,-630,-140,,,,,,,0x03,
2787,83,-14,-1005,70,-700,-140,,,,,,,0x03,
2797,82,-13,-1005,-70,-770,-140,,,,,,,0x03,
2806,82,-12,-1005,0,-770,-140,,,,,,,0x03,
2816,82,-13,-1005,0,-770,-70,,,,,,,0x03,
2826,83,-13,-1005,0,-770,-70,,,,,,,0x03,
2835,83,-13,-1006,70,-840,-140,,,,,,,0x03,
2845,82,-13,-1005,70,-840,-70,,,,,,,0x03,
2854,81,-12,-1005,70,-840,-70,,,,,,,0x03,
2864,81,-13,-1005,0,-770,-70,,,,,,,0x03,
2874,82,-12,-1005,70,-840,-70,,,,,,,0x03,
2883,82,-12,-1005,140,-770,-70,,,,,,,0x03,
2893,83,-13,-1005,210,-700,-70,,,,,,,0x03,
2903,82,-12,-1005,210,-700,-70,,,,,,,0x03,
2912,82,-14,-1005,280,-700,-70,,,,,,,0x03,
2922,82,-13,-1005,280,-700,-70,,,,,,,0x03,
2932,82,-14,-1004,210,-700,-70,,,,,,,0x03,
2941,82,-13,-1004,210,-700,-70,,,,,,,0x03,
2951,82,-12,-1006,280,-700,-70,,,,,,,0x03,
2961,82,-13,-1006,210,-700,-70,,,,,,,0x03,
2970,82,-13,-1005,210,-700,-70,,,,,,,0x03,
2980,82,-14,-1005,210,-770,-70,,,,,,,0x03,
2990,82,-13,-1004,140,-700,-70,,,,,,,0x03,
2999,81,-13,-1004,70,-700,-70,,,,,,,0x03,
3009,82,-13,-1005,140,-700,0,,,,,,,0x03,
3018,82,-13,-1005,210,-700,-70,,,,,,,0x03,
3028,81,-13,-1005,140,-700,-70,,,,,,,0x03,
3038,81,-14,-1006,140,-700,-70,,,,,,,0x03,
3047,81,-13,-1005,140,-700,-70,,,,,,,0x03,
3057,82,-14,-1004,140,-700,-70,,,,,,,0x03,
3067,82,-14,-1004,140,-770,-70,,,,,,,0x03,
3076,82,-13,-1005,210,-700,0,,,,,,,0x03,
3086,82,-13,-1005,210,-700,0,,,,,,,0x03,
3096,83,-13,-1005,210,-700,-70,,,,,,,0x03,
3105,82,-13,-1006,210,-770,0,,,,,,,0x03,
3115,82,-13,-1005,210,-770,-70,,,,,,,0x03,
3125,81,-13,-1004,140,-700,-70,,,,,,,0x03,
3134,83,-13,-1005,70,-770,-70,,,,,,,0x03,
3144,82,-14,-1006,70,-770,0,,,,,,,0x03,
3153,82,-14,-1005,70,-840,0,,,,,,,0x03,
3163,81,-13,-1006,70,-840,0,,,,,,,0x03,
3173,81,-13,-1006,140,-840,0,,,,,,,0x03,
3182,82,-13,-1006,210,-770,-70,,,,,,,0x03,
3192,81,-14,-1005,210,-700,-70,,,,,,,0x03,
3202,81,-14,-1004,210,-700,-70,,,,,,,0x03,
3211,82,-13,-1004,210,-770,-70,,,,,,,0x03,
3221,82,-13,-1005,140,-770,-70,,,,,,,0x03,
3231,82,-14,-1005,210,-770,-70,,,,,,,0x03,
3240,81,-13,-1005,280,-700,-70,,,,,,,0x03,
3250,82,-13,-1004,280,-630,-70,,,,,,,0x03,
3260,81,-14,-1005,210,-700,-70,,,,,,,0x03,
3269,82,-13,-1005,140,-770,-70,,,,,,,0x03,
3279,82,-14,-1007,140,-770,-70,,,,,,,0x03,
3288,81,-14,-1006,140,-770,-70,,,,,,,0x03,
3298,82,-15,-1005,70,-840,-70,,,,,,,0x03,
3308,82,-14,-1005,0,-910,-70,,,,,,,0x03,
3317,81,-14,-1005,0,-840,-70,,,,,,,0x03,
3327,82,-14,-1005,70,-840,-70,,,,,,,0x03,
3337,82,-14,-1004,70,-700,-70,,,,,,,0x03,
3346,83,-14,-1005,140,-770,-140,,,,,,,0x03,
3356,82,-14,-1006,140,-700,-70,,,,,,,0x03,
3366,82,-15,-1005,210,-700,-70,,,,,,,0x03,
3375,81,-15,-1005,140,-700,-70,,,,,,,0x03,
3385,82,-14,-1005,70,-770,-70,,,,,,,0x03,
3395,81,-14,-1005,70,-770,-70,,,,,,,0x03,
3404,81,-14,-1006,140,-770,-70,,,,,,,0x03,
3414,81,-14,-1006,70,-770,-70,,,,,,,0x03,
3423,83,-15,-1005,70,-770,-70,,,,,,,0x03,
3433,81,-15,-1004,70,-700,-70,,,,,,,0x03,
3443,81,-14,-1005,0,-770,-70,,,,,,,0x03,
3452,81,-14,-1005,70,-700,0,,,,,,,0x03,
3462,80,-14,-1004,140,-700,-70,,,,,,,0x03,
3472,82,-13,-1005,140,-700,-70,,,,,,,0x03,
3481,83,-14,-1005,140,-700,-70,,,,,,,0x03,
3491,81,-14,-1005,140,-700,-70,,,,,,,0x03,
3501,81,-15,-1005,0,-770,-70,,,,,,,0x03,
3510,82,-15,-1005,0,-840,-70,,,,,,,0x03,
3520,81,-14,-1005,0,-770,-70,,,,,,,0x03,
3530,82,-14,-1005,0,-770,-70,,,,,,,0x03,
3539,81,-14,-1004,0,-770,-70,,,,,,,0x03,
3549,81,-14,-1005,0,-770,-70,,,,,,,0x03,
3558,81,-14,-1005,0,-840,-70,,,,,,,0x03,
3568,82,-15,-1004,0,-770,-70,,,,,,,0x03,
3578,81,-14,-1005,-70,-770,-70,,,,,,,0x03,
3587,82,-14,-1004,0,-770,-70,,,,,,,0x03,
3597,81,-14,-1005,0,-840,-140,,,,,,,0x03,
3607,83,-14,-1005,0,-840,-70,,,,,,,0x03,
3616,83,-14,-1006,70,-770,-70,,,,,,,0x03,
3626,80,-14,-1006,140,-700,-70,,,,,,,0x03,
3636,82,-14,-1004,70,-840,-70,,,,,,,0x03,
3645,81,-15,-1005,0,-840,-140,,,,,,,0x03,
3655,81,-15,-1005,0,-840,-70,,,,,,,0x03,
3665,82,-15,-1005,0,-770,-70,,,,,,,0x03,
3674,82,-13,-1005,0,-770,-140,,,,,,,0x03,
3684,81,-14,-1004,0,-840,-70,,,,,,,0x03,
3693,81,-14,-1004,0,-840,-70,,,,,,,0x03,
3703,82,-14,-1005,-70,-840,-70,,,,,,,0x03,
3713,82,-14,-1005,-70,-840,-70,,,,,,,0x03,
3722,81,-15,-1005,-70,-770,-70,,,,,,,0x03,
3732,80,-15,-1004,0,-770,-70,,,,,,,0x03,
3742,81,-15,-1005,0,-840,-70,,,,,,,0x03,
3751,82,-14,-1005,0,-840,-70,,,,,,,0x03,
3761,81,-15,-1005,0,-770,-140,,,,,,,0x03,
3771,82,-14,-1004,-70,-770,-70,,,,,,,0x03,
3780,81,-14,-1005,-70,-770,-70,,,,,,,0x03,
3790,82,-14,-1006,-70,-770,-140,,,,,,,0x03,
3800,81,-15,-1006,-70,-770,-70,,,,,,,0x03,
3809,81,-15,-1006,0,-700,-70,,,,,,,0x03,
3819,81,-15,-1005,0,-700,-70,,,,,,,0x03,
3828,81,-14,-1005,70,-770,-70,,,,,,,0x03,
3838,81,-15,-1005,70,-700,-70,,,,,,,0x03,
3848,81,-15,-1005,140,-770,-140,,,,,,,0x03,
3857,80,-14,-1006,70,-770,-70,,,,,,,0x03,
3867,80,-14,-1005,140,-770,-70,,,,,,,0x03,
3877,81,-15,-1005,70,-770,-70,,,,,,,0x03,
3886,81,-14,-1006,0,-770,-70,,,,,,,0x03,
3896,82,-14,-1004,-70,-770,-70,,,,,,,0x03,
3906,81,-14,-1004,-70,-840,-70,,,,,,,0x03,
3915,81,-14,-1005,-140,-840,-70,,,,,,,0x03,
3925,80,-14,-1005,-140,-910,-140,,,,,,,0x03,
3935,80,-14,-1005,-70,-840,-140,,,,,,,0x03,
3944,82,-14,-1005,-70,-910,-140,,,,,,,0x03,
3954,81,-14,-1005,-140,-910,-140,,,,,,,0x03,
3963,81,-13,-1006,-140,-910,-140,,,,,,,0x03,
3973,80,-14,-1004,-140,-910,-140,,,,,,,0x03,
3983,80,-13,-1006,-140,-910,-140,,,,,,,0x03,
3992,80,-14,-1006,0,-910,-140,,,,,,,0x03,
4002,81,-14,-1006,70,-840,-140,,,,,,,0x03,
4012,80,-14,-1004,70,-700,-140,,,,,,,0x03,
4021,81,-13,-1005,70,-700,-70,,,,,,,0x03,
4031,80,-14,-1006,140,-700,-70,,,,,,,0x03,
4041,81,-15,-1006,210,-630,-70,,,,,,,0x03,
4050,80,-14,-1006,210,-630,-140,,,,,,,0x03,
4060,81,-15,-1005,210,-630,-70,,,,,,,0x03,
4070,82,-14,-1005,210,-630,-140,,,,,,,0x03,
4079,81,-15,-1005,140,-700,-70,,,,,,,0x03,
4089,81,-15,-1005,70,-770,-70,,,,,,,0x03,
4099,81,-14,-1005,0,-770,-70,,,,,,,0x03,
4108,80,-14,-1005,0,-770,-70,,,,,,,0x03,
4118,81,-14,-1005,-70,-770,-140,,,,,,,0x03,
4127,82,-14,-1006,-70,-770,-140,,,,,,,0x03,
4137,81,-15,-1005,-70,-840,-140,,,,,,,0x03,
4147,80,-14,-1005,-70,-770,-140,,,,,,,0x03,
4156,81,-15,-1005,-70,-840,-70,,,,,,,0x03,
4166,81,-15,-1005,-70,-770,-70,,,,,,,0x03,
4176,81,-15,-1005,-70,-770,-140,,,,,,,0x03,
4185,81,-14,-1006,-70,-770,-140,,,,,,,0x03,
4195,82,-14,-1006,70,-630,-140,,,,,,,0x03,
4205,80,-14,-1004,70,-700,-140,,,,,,,0x03,
4214,81,-15,-1004,-70,-770,-140,,,,,,,0x03,
4224,80,-13,-1005,-70,-840,-70,,,,,,,0x03,
4234,81,-14,-1005,0,-840,-140,,,,,,,0x03,
4243,80,-14,-1005,70,-770,-140,,,,,,,0x03,
4253,79,-14,-1005,0,-770,-140,,,,,,,0x03,
4262,81,-13,-1005,70,-770,-140,,,,,,,0x03,
4272,81,-15,-1006,70,-770,-70,,,,,,,0x03,
4282,81,-14,-1005,0,-770,-70,,,,,,,0x03,
4291,80,-14,-1005,70,-700,-70,,,,,,,0x03,
4301,81,-15,-1005,140,-700,-70,,,,,,,0x03,
4311,81,-15,-1005,70,-700,-70,,,,,,,0x03,
4320,80,-14,-1005,70,-700,-140,,,,,,,0x03,
4330,81,-14,-1005,70,-770,-140,,,,,,,0x03,
4340,81,-14,-1005,140,-700,-70,,,,,,,0x03,
4349,81,-15,-1004,70,-700,-70,,,,,,,0x03,
4359,81,-15,-1004,0,-700,-70,,,,,,,0x03,
4369,80,-15,-1004,70,-700,-70,,,,,,,0x03,
4378,80,-15,-1005,70,-630,-70,,,,,,,0x03,
4388,82,-15,-1005,140,-700,-70,,,,,,,0x03,
4397,80,-15,-1006,140,-700,-70,,,,,,,0x03,
4407,81,-13,-1005,140,-700,-70,,,,,,,0x03,
4417,81,-15,-1005,70,-770,0,,,,,,,0x03,
4426,81,-14,-1006,70,-700,-70,,,,,,,0x03,
4436,81,-15,-1005,70,-770,-70,,,,,,,0x03,
4446,81,-15,-1006,70,-770,-70,,,,,,,0x03,
4455,81,-15,-1005,140,-700,-70,,,,,,,0x03,
4465,80,-13,-1006,210,-630,-70,,,,,,,0x03,
4475,81,-15,-1004,420,-560,0,,,,,,,0x03,
4484,80,-15,-1004,280,-630,0,,,,,,,0x03,
4494,80,-15,-1005,280,-630,-70,,,,,,,0x03,
4504,82,-15,-1005,210,-700,-70,,,,,,,0x03,
4513,81,-14,-1005,210,-700,-70,,,,,,,0x03,
4523,81,-14,-1005,140,-700,-70,,,,,,,0x03,
4532,82,-14,-1005,140,-630,0,,,,,,,0x03,
4542,81,-15,-1004,70,-700,0,,,,,,,0x03,
4552,80,-13,-1006,140,-700,0,,,,,,,0x03,
4561,81,-15,-1005,210,-700,0,,,,,,,0x03,
4571,81,-15,-1005,140,-700,-70,,,,,,,0x03,
4581,82,-14,-1006,140,-700,-70,,,,,,,0x03,
4590,81,-14,-1005,140,-770,-70,,,,,,,0x03,
4600,81,-15,-1005,70,-770,-70,,,,,,,0x03,
4610,80,-14,-1005,140,-700,-70,,,,,,,0x03,
4619,80,-15,-1005,140,-700,-70,,,,,,,0x03,
4629,80,-14,-1005,140,-700,-70,,,,,,,0x03,
4639,81,-16,-1005,210,-700,-70,,,,,,,0x03,
4648,80,-14,-1005,210,-630,-70,,,,,,,0x03,
4658,80,-15,-1005,280,-700,-70,,,,,,,0x03,
4667,82,-15,-1005,140,-770,-70,,,,,,,0x03,
4677,81,-15,-1005,70,-770,-70,,,,,,,0x03,
4687,81,-15,-1006,140,-700,-70,,,,,,,0x03,
4696,81,-16,-1006,210,-700,0,,,,,,,0x03,
4706,81,-15,-1006,210,-700,-70,,,,,,,0x03,
4716,81,-15,-1005,70,-770,-70,,,,,,,0x03,
4725,81,-15,-1006,70,-770,-70,,,,,,,0x03,
4735,81,-16,-1006,70,-770,-70,,,,,,,0x03,
4745,81,-15,-1005,140,-700,-70,,,,,,,0x03,
4754,82,-16,-1005,210,-700,-70,,,,,,,0x03,
4764,81,-15,-1006,140,-770,-140,,,,,,,0x03,
4774,81,-16,-1005,70,-770,-140,,,,,,,0x03,
4783,80,-14,-1006,70,-700,-70,,,,,,,0x03,
4793,82,-15,-1005,140,-770,-70,,,,,,,0x03,
4802,79,-15,-1005,140,-700,-70,,,,,,,0x03,
4812,81,-15,-1004,140,-700,-70,,,,,,,0x03,
4822,81,-15,-1005,70,-700,-70,,,,,,,0x03,
4831,81,-15,-1005,70,-700,-70,,,,,,,0x03,
4841,80,-14,-1005,70,-700,-70,,,,,,,0x03,
4851,81,-15,-1005,70,-770,-70,,,,,,,0x03,
4860,81,-15,-1005,70,-700,-70,,,,,,,0x03,
4870,81,-16,-1005,140,-700,-70,,,,,,,0x03,
4880,81,-14,-1005,140,-700,-70,,,,,,,0x03,
4889,81,-15,-1004,70,-630,-70,,,,,,,0x03,
4899,81,-15,-1004,70,-630,-70,,,,,,,0x03,
4909,83,-16,-1005,0,-700,-70,,,,,,,0x03,
4918,81,-15,-1006,-70,-770,-70,,,,,,,0x03,
4928,81,-16,-1005,-140,-840,-70,,,,,,,0x03,
4937,80,-16,-1006,-280,-910,-140,,,,,,,0x03,
4947,80,-15,-1005,-420,-1050,-140,,,,,,,0x03,
4957,80,-15,-1005,-560,-1050,-140,,,,,,,0x03,
4966,79,-15,-1005,-560,-980,-140,,,,,,,0x03,
4976,82,-15,-1004,-420,-980,-140,,,,,,,0x03,
4986,80,-14,-1006,-350,-910,-70,,,,,,,0x03,
4995,81,-16,-1006,-140,-840,-70,,,,,,,0x03,
5005,80,-15,-1005,-70,-840,-140,,,,,,,0x03,
5015,81,-15,-1004,-70,-770,-140,,,,,,,0x03,
5024,80,-15,-1005,-70,-770,-70,,,,,,,0x03,
5034,80,-15,-1005,-140,-770,-140,,,,,,,0x03,
5044,81,-14,-1005,-70,-770,-70,,,,,,,0x03,
5053,81,-15,-1006,-70,-770,-70,,,,,,,0x03,
5063,80,-14,-1006,70,-700,-70,,,,,,,0x03,
5073,81,-16,-1005,70,-700,-70,,,,,,,0x03,
5082,80,-15,-1004,140,-700,-70,,,,,,,0x03,
5092,80,-15,-1005,70,-700,-70,,,,,,,0x03,
5101,81,-13,-1005,70,-770,-70,,,,,,,0x03,
5111,80,-14,-1006,70,-770,-70,,,,,,,0x03,
5121,80,-14,-1004,140,-700,-70,,,,,,,0x03,
5130,81,-14,-1004,210,-700,-70,,,,,,,0x03,
5140,80,-15,-1005,210,-630,-70,,,,,,,0x03,
5150,81,-15,-1005,280,-630,0,,,,,,,0x03,
5159,81,-16,-1004,280,-560,0,,,,,,,0x03,
5169,80,-15,-1005,280,-630,-70,,,,,,,0x03,
5179,81,-15,-1005,280,-630,-70,,,,,,,0x03,
5188,81,-16,-1005,280,-630,-70,,,,,,,0x03,
5198,81,-16,-1004,280,-700,-70,,,,,,,0x03,
5208,80,-15,-1005,210,-700,-70,,,,,,,0x03,
5217,80,-15,-1005,210,-700,-70,,,,,,,0x03,
5227,81,-15,-1006,140,-770,-70,,,,,,,0x03,
5236,80,-16,-1005,140,-770,-70,,,,,,,0x03,
5246,81,-15,-1006,140,-700,-70,,,,,,,0x03,
5256,81,-15,-1004,70,-700,-70,,,,,,,0x03,
5265,80,-15,-1005,0,-770,-70,,,,,,,0x03,
5275,81,-16,-1006,-70,-840,-140,,,,,,,0x03,
5285,81,-16,-1005,-70,-840,-140,,,,,,,0x03,
5294,81,-15,-1005,-70,-840,-140,,,,,,,0x03,
5304,80,-16,-1005,-70,-840,-140,,,,,,,0x03,
5314,81,-16,-1005,-70,-910,-140,,,,,,,0x03,
5323,80,-15,-1005,-70,-910,-70,,,,,,,0x03,
5333,80,-15,-1005,-70,-840,-140,,,,,,,0x03,
5343,80,-15,-1006,-70,-910,-140,,,,,,,0x03,
5352,80,-15,-1005,0,-840,-70,,,,,,,0x03,
5362,81,-16,-1006,0,-770,-70,,,,,,,0x03,
5371,81,-15,-1005,0,-770,-70,,,,,,,0x03,
5381,80,-14,-1005,0,-770,-70,,,,,,,0x03,
5391,81,-15,-1005,0,-770,-70,,,,,,,0x03,
5400,80,-16,-1005,70,-700,-70,,,,,,,0x03,
5410,81,-15,-1006,70,-700,0,,,,,,,0x03,
5420,81,-16,-1005,140,-630,-70,,,,,,,0x03,
5429,79,-16,-1004,140,-630,-70,,,,,,,0x03,
5439,80,-15,-1005,140,-630,-70,,,,,,,0x03,
5449,81,-15,-1005,140,-560,0,,,,,,,0x03,
5458,81,-15,-1005,280,-560,0,,,,,,,0x03,
5468,81,-15,-1006,280,-560,0,,,,,,,0x03,
5478,81,-16,-1006,280,-630,0,,,,,,,0x03,
5487,80,-14,-1005,210,-630,0,,,,,,,0x03,
5497,80,-16,-1005,210,-700,-70,,,,,,,0x03,
5506,80,-16,-1006,210,-700,-70,,,,,,,0x03,
5516,80,-15,-1004,210,-700,-70,,,,,,,0x03,
5526,82,-16,-1004,140,-770,-140,,,,,,,0x03,
5535,80,-16,-1005,140,-770,-70,,,,,,,0x03,
5545,81,-15,-1006,70,-770,-70,,,,,,,0x03,
5555,81,-15,-1004,0,-770,-70,,,,,,,0x03,
5564,80,-16,-1007,0,-840,-70,,,,,,,0x03,
5574,80,-16,-1005,70,-770,-70,,,,,,,0x03,
5584,81,-15,-1006,70,-770,-70,,,,,,,0x03,
5593,81,-17,-1004,70,-840,-70,,,,,,,0x03,
5603,81,-16,-1006,70,-770,-70,,,,,,,0x03,
5613,80,-16,-1006,0,-770,-70,,,,,,,0x03,
5622,80,-16,-1006,0,-770,-70,,,,,,,0x03,
5632,80,-15,-1005,0,-770,-70,,,,,,,0x03,
5641,81,-16,-1005,-140,-770,-70,,,,,,,0x03,
5651,81,-15,-1005,-210,-840,-70,,,,,,,0x03,
5661,81,-15,-1006,-140,-770,-70,,,,,,,0x03,
5670,81,-15,-1005,-70,-770,-70,,,,,,,0x03,
5680,79,-15,-1005,0,-700,-70,,,,,,,0x03,
5690,80,-16,-1006,0,-700,-70,,,,,,,0x03,
5699,80,-15,-1005,0,-700,0,,,,,,,0x03,
5709,81,-16,-1005,0,-700,-70,,,,,,,0x03,
5719,81,-16,-1005,0,-700,-70,,,,,,,0x03,
5728,81,-17,-1006,0,-700,0,,,,,,,0x03,
5738,81,-15,-1005,0,-630,-70,,,,,,,0x03,
5748,80,-15,-1006,0,-630,-70,,,,,,,0x03,
5757,80,-16,-1005,70,-630,-70,,,,,,,0x03,
5767,80,-15,-1005,70,-630,-140,,,,,,,0x03,
5776,81,-16,-1005,70,-700,-70,,,,,,,0x03,
5786,81,-16,-1005,70,-630,-70,,,,,,,0x03,
5796,81,-16,-1005,70,-700,-70,,,,,,,0x03,
5805,80,-16,-1006,70,-700,-70,,,,,,,0x03,
5815,81,-16,-1006,70,-700,-70,,,,,,,0x03,
5825,80,-16,-1006,70,-700,-70,,,,,,,0x03,
5834,80,-15,-1005,70,-700,-70,,,,,,,0x03,
5844,81,-15,-1005,70,-700,-70,,,,,,,0x03,
5854,80,-16,-1005,0,-700,-70,,,,,,,0x03,
5863,80,-16,-1006,70,-700,-70,,,,,,,0x03,
5873,81,-16,-1004,0,-700,-70,,,,,,,0x03,
5883,81,-16,-1006,0,-770,-70,,,,,,,0x03,
5892,81,-17,-1005,70,-770,-70,,,,,,,0x03,
5902,81,-17,-1004,0,-700,-70,,,,,,,0x03,
5911,81,-16,-1006,0,-770,-70,,,,,,,0x03,
5921,80,-15,-1006,-140,-840,-140,,,,,,,0x03,
5931,81,-15,-1006,-140,-840,-70,,,,,,,0x03,
5940,81,-15,-1005,-70,-770,-70,,,,,,,0x03,
5950,80,-16,-1005,-140,-840,-140,,,,,,,0x03,
5960,81,-16,-1005,-70,-840,-70,,,,,,,0x03,
5969,81,-16,-1005,0,-770,-70,,,,,,,0x03,
5979,80,-15,-1005,0,-770,0,,,,,,,0x03,
5989,81,-15,-1006,70,-770,-70,,,,,,,0x03,
5998,81,-15,-1005,140,-770,-70,,,,,,,0x03,
6008,80,-16,-1005,70,-700,-140,,,,,,,0x03,
6018,80,-15,-1005,70,-700,-140,,,,,,,0x03,
6027,81,-15,-1006,70,-770,-70,,,,,,,0x03,
6037,80,-17,-1006,140,-700,-70,,,,,,,0x03,
6047,81,-15,-1005,210,-700,-70,,,,,,,0x03,
6056,81,-15,-1005,140,-700,0,,,,,,,0x03,
6066,81,-15,-1006,210,-770,-70,,,,,,,0x03,
6075,80,-16,-1005,210,-700,-70,,,,,,,0x03,
6085,81,-16,-1005,210,-700,-70,,,,,,,0x03,
6095,81,-16,-1005,210,-700,-70,,,,,,,0x03,
6104,80,-17,-1005,140,-700,-140,,,,,,,0x03,
6114,80,-16,-1005,140,-700,-140,,,,,,,0x03,
6124,81,-16,-1005,140,-770,-70,,,,,,,0x03,
6133,80,-15,-1005,140,-700,-70,,,,,,,0x03,
6143,81,-17,-1005,70,-840,-70,,,,,,,0x03,
6153,81,-16,-1005,70,-770,-70,,,,,,,0x03,
6162,80,-17,-1005,70,-770,-70,,,,,,,0x03,
6172,80,-17,-1005,0,-770,-70,,,,,,,0x03,
6182,80,-16,-1005,0,-770,-70,,,,,,,0x03,
6191,80,-16,-1004,70,-770,-70,,,,,,,0x03,
6201,80,-16,-1003,70,-770,-70,,,,,,,0x03,
6210,80,-16,-1005,0,-700,-70,,,,,,,0x03,
6220,80,-16,-1006,0,-770,-70,,,,,,,0x03,
6230,81,-16,-1004,0,-770,-70,,,,,,,0x03,
6239,81,-16,-1005,70,-700,-70,,,,,,,0x03,
6249,80,-16,-1005,0,-700,-70,,,,,,,0x03,
6259,80,-16,-1005,0,-700,-70,,,,,,,0x03,
6268,80,-17,-1005,-70,-770,-70,,,,,,,0x03,
6278,81,-17,-1005,-70,-840,0,,,,,,,0x03,
6288,80,-17,-1005,-70,-770,-70,,,,,,,0x03,
6297,80,-17,-1005,-70,-770,-70,,,,,,,0x03,
6307,80,-15,-1005,-70,-770,-70,,,,,,,0x03,
6317,81,-15,-1006,-70,-770,-70,,,,,,,0x03,
6326,81,-16,-1006,-70,-770,-70,,,,,,,0x03,
6336,80,-17,-1005,-70,-770,-70,,,,,,,0x03,
6345,80,-17,-1005,-70,-770,-70,,,,,,,0x03,
6355,81,-17,-1005,-70,-770,-140,,,,,,,0x03,
6365,80,-17,-1006,-70,-770,-70,,,,,,,0x03,
6374,80,-16,-1006,-70,-770,-70,,,,,,,0x03,
6384,81,-16,-1005,-70,-770,-70,,,,,,,0x03,
6394,81,-16,-1005,-70,-770,-140,,,,,,,0x03,
6403,80,-16,-1005,-140,-770,-70,,,,,,,0x03,
6413,80,-15,-1005,-70,-770,-70,,,,,,,0x03,
6423,79,-16,-1005,0,-700,-140,,,,,,,0x03,
6432,81,-16,-1005,0,-700,-70,,,,,,,0x03,
6442,80,-17,-1004,0,-700,-70,,,,,,,0x03,
6452,81,-16,-1005,0,-770,-70,,,,,,,0x03,
6461,80,-16,-1006,0,-770,-70,,,,,,,0x03,
6471,80,-16,-1005,0,-700,-70,,,,,,,0x03,
6480,80,-16,-1005,0,-770,-70,,,,,,,0x03,
6490,80,-16,-1005,0,-770,-70,,,,,,,0x03,
6500,80,-16,-1005,-70,-770,-70,,,,,,,0x03,
6509,81,-16,-1005,0,-770,-70,,,,,,,0x03,
6519,81,-15,-1005,0,-770,0,,,,,,,0x03,
6529,81,-15,-1005,0,-700,0,,,,,,,0x03,
6538,80,-16,-1005,0,-700,-70,,,,,,,0x03,
6548,81,-16,-1006,70,-700,-70,,,,,,,0x03,
6558,79,-16,-1006,140,-700,-70,,,,,,,0x03,
6567,81,-17,-1005,140,-700,-70,,,,,,,0x03,
6577,80,-17,-1005,140,-700,-70,,,,,,,0x03,
6587,81,-16,-1005,70,-700,-70,,,,,,,0x03,
6596,80,-16,-1005,70,-700,-70,,,,,,,0x03,
6606,80,-17,-1005,70,-770,-70,,,,,,,0x03,
6615,80,-16,-1007,140,-700,0,,,,,,,0x03,
6625,80,-16,-1006,280,-630,0,,,,,,,0x03,
6635,81,-17,-1005,350,-630,70,,,,,,,0x03,
6644,81,-16,-1005,280,-770,0,,,,,,,0x03,
6654,80,-17,-1005,280,-770,0,,,,,,,0x03,
6664,80,-17,-1006,70,-770,0,,,,,,,0x03,
6673,80,-16,-1006,70,-770,0,,,,,,,0x03,
6683,80,-16,-1005,70,-700,-70,,,,,,,0x03,
6693,80,-17,-1005,70,-700,0,,,,,,,0x03,
6702,80,-17,-1004,140,-630,-70,,,,,,,0x03,
6712,80,-17,-1006,70,-700,0,,,,,,,0x03,
6722,81,-17,-1005,70,-700,0,,,,,,,0x03,
6731,80,-17,-1005,70,-700,-70,,,,,,,0x03,
6741,81,-17,-1005,140,-770,0,,,,,,,0x03,
6750,81,-16,-1005,140,-770,-70,,,,,,,0x03,
6760,81,-16,-1005,70,-700,-70,,,,,,,0x03,
6770,80,-16,-1004,70,-700,-70,,,,,,,0x03,
6779,81,-16,-1005,70,-770,-70,,,,,,,0x03,
6789,79,-16,-1006,0,-770,-70,,,,,,,0x03,
6799,80,-17,-1005,0,-770,-140,,,,,,,0x03,
6808,80,-17,-1005,-70,-770,-70,,,,,,,0x03,
6818,79,-16,-1005,-70,-770,-140,,,,,,,0x03,
6828,80,-16,-1006,-70,-770,-70,,,,,,,0x03,
6837,80,-17,-1005,0,-770,-70,,,,,,,0x03,
6847,80,-17,-1005,0,-770,-70,,,,,,,0x03,
6857,81,-16,-1006,70,-700,-70,,,,,,,0x03,
6866,81,-17,-1005,140,-700,-70,,,,,,,0x03,
6876,79,-17,-1005,70,-700,-70,,,,,,,0x03,
6885,80,-16,-1005,140,-700,-70,,,,,,,0x03,
6895,79,-17,-1004,140,-700,-70,,,,,,,0x03,
6905,80,-16,-1005,210,-700,-70,,,,,,,0x03,
6914,80,-17,-1004,210,-630,0,,,,,,,0x03,
6924,80,-16,-1005,210,-630,0,,,,,,,0x03,
6934,81,-17,-1005,210,-630,-70,,,,,,,0x03,
6943,79,-18,-1004,210,-630,-70,,,,,,,0x03,
6953,81,-17,-1005,70,-700,-70,,,,,,,0x03,
6963,80,-17,-1006,70,-700,-70,,,,,,,0x03,
6972,80,-15,-1005,70,-700,-70,,,,,,,0x03,
6982,80,-17,-1006,70,-770,-70,,,,,,,0x03,
6992,80,-16,-1005,70,-700,-70,,,,,,,0x03,
7001,80,-17,-1005,70,-700,-70,,,,,,,0x03,
7011,81,-17,-1006,0,-770,-70,,,,,,,0x03,
7021,81,-17,-1005,-70,-840,-70,,,,,,,0x03,
7030,80,-16,-1005,-70,-770,-70,,,,,,,0x03,
7040,80,-16,-1006,-140,-770,-70,,,,,,,0x03,
7049,79,-16,-1005,-140,-770,-70,,,,,,,0x03,
7059,80,-17,-1006,-210,-770,0,,,,,,,0x03,
7069,81,-16,-1005,-210,-770,-70,,,,,,,0x03,
7078,80,-16,-1006,-280,-770,-70,,,,,,,0x03,
7088,80,-16,-1005,-280,-770,-70,,,,,,,0x03,
7098,80,-16,-1004,-420,-910,-140,,,,,,,0x03,
7107,81,-17,-1006,-630,-1050,-70,,,,,,,0x03,
7117,79,-16,-1007,-700,-980,-70,,,,,,,0x03,
7127,80,-16,-1006,-770,-980,-210,,,,,,,0x03,
7136,80,-16,-1005,-630,-980,-140,,,,,,,0x03,
7146,80,-15,-1005,-560,-980,-140,,,,,,,0x03,
7156,79,-15,-1006,-560,-980,-140,,,,,,,0x03,
7165,80,-15,-1005,-490,-980,-140,,,,,,,0x03,
7175,80,-15,-1005,-490,-980,-210,,,,,,,0x03,
7184,79,-15,-1007,-420,-910,-70,,,,,,,0x03,
7194,79,-15,-1006,-280,-840,-140,,,,,,,0x03,
7204,81,-14,-1006,-140,-770,-70,,,,,,,0x03,
7213,79,-15,-1006,0,-700,-140,,,,,,,0x03,
7223,79,-15,-1006,0,-700,-70,,,,,,,0x03,
7233,80,-14,-1005,70,-700,-70,,,,,,,0x03,
7242,80,-15,-1005,70,-700,-70,,,,,,,0x03,
7252,80,-16,-1004,70,-700,-70,,,,,,,0x03,
7262,80,-17,-1005,70,-630,-70,,,,,,,0x03,
7271,81,-15,-1005,140,-630,-70,,,,,,,0x03,
7281,80,-15,-1005,210,-630,-70,,,,,,,0x03,
7291,79,-15,-1004,210,-630,-70,,,,,,,0x03,
7300,80,-16,-1006,210,-630,-70,,,,,,,0x03,
7310,80,-15,-1006,210,-630,-70,,,,,,,0x03,
7319,80,-16,-1005,210,-630,-70,,,,,,,0x03,
7329,79,-16,-1005,210,-630,-70,,,,,,,0x03,
7339,80,-16,-1006,210,-560,-70,,,,,,,0x03,
7348,80,-16,-1005,70,-630,-70,,,,,,,0x03,
7358,80,-16,-1005,70,-700,-70,,,,,,,0x03,
7368,80,-16,-1004,70,-700,-70,,,,,,,0x03,
7377,80,-16,-1004,-70,-770,-70,,,,,,,0x03,
7387,80,-17,-1005,-70,-770,-70,,,,,,,0x03,
7397,81,-16,-1005,-140,-770,-140,,,,,,,0x03,
7406,80,-16,-1005,-210,-770,-140,,,,,,,0x03,
7416,79,-16,-1005,-350,-840,-70,,,,,,,0x03,
7426,79,-16,-1005,-350,-840,-70,,,,,,,0x03,
7435,80,-15,-1005,-420,-910,-70,,,,,,,0x03,
7445,79,-16,-1006,-350,-910,-140,,,,,,,0x03,
7454,81,-15,-1006,-280,-980,-140,,,,,,,0x03,
7464,79,-15,-1005,-210,-980,-210,,,,,,,0x03,
7474,78,-15,-1006,-210,-910,-140,,,,,,,0x03,
7483,79,-15,-1006,-280,-980,-210,,,,,,,0x03,
7493,80,-15,-1006,-210,-910,-210,,,,,,,0x03,
7503,80,-15,-1006,-210,-910,-140,,,,,,,0x03,
7512,80,-15,-1006,-140,-910,-140,,,,,,,0x03,
7522,78,-15,-1004,-140,-840,-140,,,,,,,0x03,
7532,79,-14,-1005,-210,-840,-210,,,,,,,0x03,
7541,79,-14,-1005,-140,-840,-210,,,,,,,0x03,
7551,79,-14,-1006,0,-840,-210,,,,,,,0x03,
7561,80,-14,-1006,140,-700,-210,,,,,,,0x03,
7570,79,-14,-1004,140,-700,-210,,,,,,,0x03,
7580,79,-15,-1005,0,-770,-210,,,,,,,0x03,
7589,79,-16,-1005,-70,-770,-210,,,,,,,0x03,
7599,79,-15,-1005,0,-700,-210,,,,,,,0x03,
7609,79,-15,-1005,140,-700,-210,,,,,,,0x03,
7618,79,-15,-1006,280,-630,-140,,,,,,,0x03,
7628,78,-16,-1006,280,-630,-140,,,,,,,0x03,
7638,80,-14,-1004,280,-630,-140,,,,,,,0x03,
7647,80,-15,-1005,210,-700,-140,,,,,,,0x03,
7657,79,-15,-1004,70,-700,-140,,,,,,,0x03,
7667,80,-15,-1006,70,-700,-140,,,,,,,0x03,
7676,80,-14,-1006,140,-700,-70,,,,,,,0x03,
7686,79,-14,-1005,210,-700,-140,,,,,,,0x03,
7696,79,-15,-1005,210,-700,-140,,,,,,,0x03,
7705,80,-15,-1005,70,-770,-140,,,,,,,0x03,
7715,80,-15,-1005,70,-770,-140,,,,,,,0x03,
7724,79,-16,-1005,140,-770,-140,,,,,,,0x03,
7734,78,-16,-1005,140,-700,-140,,,,,,,0x03,
7744,79,-15,-1004,140,-700,-70,,,,,,,0x03,
7753,78,-14,-1005,70,-700,-70,,,,,,,0x03,
7763,79,-15,-1005,70,-700,-70,,,,,,,0x03,
7773,78,-16,-1005,70,-700,0,,,,,,,0x03,
7782,80,-16,-1006,140,-630,-70,,,,,,,0x03,
7792,79,-15,-1006,210,-630,-70,,,,,,,0x03,
7802,80,-16,-1005,210,-630,-70,,,,,,,0x03,
7811,80,-14,-1005,140,-700,-70,,,,,,,0x03,
7821,79,-15,-1006,210,-700,-70,,,,,,,0x03,
7831,80,-15,-1005,280,-630,-70,,,,,,,0x03,
7840,79,-15,-1006,280,-630,0,,,,,,,0x03,
7850,80,-16,-1005,280,-630,-70,,,,,,,0x03,
7859,79,-15,-1006,280,-630,-70,,,,,,,0x03,
7869,79,-16,-1005,280,-630,0,,,,,,,0x03,
7879,80,-16,-1006,210,-630,-70,,,,,,,0x03,
7888,79,-16,-1005,210,-630,0,,,,,,,0x03,
7898,79,-15,-1005,280,-630,0,,,,,,,0x03,
7908,79,-17,-1004,280,-630,0,,,,,,,0x03,
7917,81,-15,-1005,210,-630,-70,,,,,,,0x03,
7927,80,-17,-1006,210,-630,-70,,,,,,,0x03,
7937,80,-16,-1005,210,-630,-70,,,,,,,0x03,
7946,78,-15,-1005,140,-630,0,,,,,,,0x03,
7956,79,-16,-1006,140,-630,-70,,,,,,,0x03,
7966,80,-16,-1006,70,-700,-140,,,,,,,0x03,
7975,80,-16,-1005,140,-630,-70,,,,,,,0x03,
7985,80,-16,-1005,70,-700,-70,,,,,,,0x03,
7995,79,-16,-1005,70,-700,-70,,,,,,,0x03,
8004,80,-15,-1005,140,-630,-140,,,,,,,0x03,
8014,80,-16,-1005,70,-700,-70,,,,,,,0x03,
8023,80,-16,-1005,0,-770,-140,,,,,,,0x03,
8033,80,-15,-1005,0,-770,-70,,,,,,,0x03,
8043,80,-16,-1006,0,-700,-70,,,,,,,0x03,
8052,79,-15,-1006,-70,-700,-140,,,,,,,0x03,
8062,80,-16,-1005,-70,-700,-140,,,,,,,0x03,
8072,80,-16,-1005,0,-700,0,,,,,,,0x03,
8081,79,-15,-1005,0,-700,-70,,,,,,,0x03,
8091,80,-16,-1005,70,-700,-70,,,,,,,0x03,
8101,79,-17,-1005,70,-770,-70,,,,,,,0x03,
8110,80,-16,-1005,0,-700,-70,,,,,,,0x03,
8120,81,-16,-1005,0,-770,-140,,,,,,,0x03,
8130,79,-17,-1005,70,-700,-70,,,,,,,0x03,
8139,80,-16,-1005,70,-630,-70,,,,,,,0x03,
8149,79,-16,-1006,70,-700,-70,,,,,,,0x03,
8158,79,-15,-1005,140,-630,-140,,,,,,,0x03,
8168,79,-15,-1005,210,-630,-70,,,,,,,0x03,
8178,80,-15,-1005,210,-630,-70,,,,,,,0x03,
8187,81,-15,-1006,210,-630,-70,,,,,,,0x03,
8197,80,-17,-1005,280,-630,-70,,,,,,,0x03,
8207,79,-15,-1004,280,-560,-70,,,,,,,0x03,
8216,80,-16,-1005,210,-630,0,,,,,,,0x03,
8226,80,-16,-1004,210,-630,-70,,,,,,,0x03,
8236,80,-16,-1005,210,-630,-70,,,,,,,0x03,
8245,81,-16,-1005,140,-630,-70,,,,,,,0x03,
8255,80,-16,-1005,70,-700,-70,,,,,,,0x03,
8265,80,-17,-1004,70,-700,-70,,,,,,,0x03,
8274,80,-16,-1006,70,-700,-70,,,,,,,0x03,
8284,79,-17,-1005,70,-700,-70,,,,,,,0x03,
8293,79,-16,-1005,70,-770,-70,,,,,,,0x03,
8303,80,-16,-1006,70,-840,-70,,,,,,,0x03,
8313,79,-15,-1006,70,-840,-70,,,,,,,0x03,
8322,79,-15,-1006,140,-840,-70,,,,,,,0x03,
8332,80,-17,-1007,560,-630,0,,,,,,,0x03,
8342,80,-17,-1004,630,-490,0,,,,,,,0x03,
8351,79,-17,-1005,350,-630,0,,,,,,,0x03,
8361,79,-17,-1006,210,-770,-70,,,,,,,0x03,
8371,80,-16,-1005,0,-840,-140,,,,,,,0x03,
8380,79,-16,-1005,-140,-840,-140,,,,,,,0x03,
8390,80,-16,-1005,-140,-840,-70,,,,,,,0x03,
8400,79,-17,-1005,-140,-840,-140,,,,,,,0x03,
8409,80,-17,-1004,-140,-840,-70,,,,,,,0x03,
8419,80,-17,-1006,-210,-840,-70,,,,,,,0x03,
8428,81,-17,-1005,-280,-840,-70,,,,,,,0x03,
8438,81,-16,-1006,-280,-840,-140,,,,,,,0x03,
8448,80,-16,-1006,-210,-770,-140,,,,,,,0x03,
8457,80,-17,-1005,-140,-770,-140,,,,,,,0x03,
8467,79,-16,-1006,-70,-700,-70,,,,,,,0x03,
8477,79,-16,-1005,-70,-700,-70,,,,,,,0x03,
8486,78,-16,-1005,0,-700,-140,,,,,,,0x03,
8496,79,-16,-1006,0,-700,-70,,,,,,,0x03,
8506,79,-17,-1006,0,-700,-70,,,,,,,0x03,
8515,80,-16,-1006,70,-700,-70,,,,,,,0x03,
8525,80,-17,-1005,140,-630,-70,,,,,,,0x03,
8535,80,-16,-1005,140,-630,-140,,,,,,,0x03,
8544,79,-17,-1005,210,-630,-70,,,,,,,0x03,
8554,80,-16,-1005,210,-630,-70,,,,,,,0x03,
8563,79,-17,-1005,280,-630,-140,,,,,,,0x03,
8573,80,-16,-1006,280,-630,-70,,,,,,,0x03,
8583,79,-16,-1005,280,-630,-70,,,,,,,0x03,
8592,79,-18,-1004,280,-630,-70,,,,,,,0x03,
8602,79,-17,-1004,210,-630,-70,,,,,,,0x03,
8612,80,-16,-1005,140,-630,-70,,,,,,,0x03,
8621,80,-17,-1005,140,-700,-70,,,,,,,0x03,
8631,79,-16,-1005,140,-630,-70,,,,,,,0x03,
8641,80,-17,-1005,140,-700,-70,,,,,,,0x03,
8650,79,-16,-1006,70,-700,-70,,,,,,,0x03,
8660,80,-16,-1005,70,-770,-70,,,,,,,0x03,
8670,81,-17,-1005,70,-770,-70,,,,,,,0x03,
8679,80,-17,-1005,-70,-840,-70,,,,,,,0x03,
8689,79,-16,-1005,0,-840,-140,,,,,,,0x03,
8698,79,-17,-1005,0,-840,-70,,,,,,,0x03,
8708,80,-17,-1005,-70,-840,-70,,,,,,,0x03,
8718,79,-17,-1005,-70,-840,-70,,,,,,,0x03,
8727,80,-17,-1006,-70,-840,-70,,,,,,,0x03,
8737,79,-17,-1005,-70,-770,-70,,,,,,,0x03,
8747,80,-16,-1006,0,-770,-70,,,,,,,0x03,
8756,80,-17,-1005,70,-770,-70,,,,,,,0x03,
8766,81,-17,-1005,70,-770,-70,,,,,,,0x03,
8776,79,-17,-1005,0,-770,-70,,,,,,,0x03,
8785,79,-17,-1005,0,-770,-70,,,,,,,0x03,
8795,80,-17,-1005,70,-770,-70,,,,,,,0x03,
8805,78,-16,-1005,70,-840,-70,,,,,,,0x03,
8814,80,-16,-1006,70,-770,-70,,,,,,,0x03,
8824,79,-16,-1006,70,-770,-140,,,,,,,0x03,
8833,80,-16,-1006,0,-770,-70,,,,,,,0x03,
8843,81,-17,-1004,70,-700,-140,,,,,,,0x03,
8853,79,-17,-1005,140,-700,-70,,,,,,,0x03,
8862,81,-17,-1005,140,-700,-70,,,,,,,0x03,
8872,80,-17,-1006,140,-700,-70,,,,,,,0x03,
8882,80,-17,-1005,70,-700,-70,,,,,,,0x03,
8891,79,-17,-1006,70,-700,-70,,,,,,,0x03,
8901,80,-17,-1005,70,-700,-70,,,,,,,0x03,
8911,80,-17,-1005,0,-700,-70,,,,,,,0x03,
8920,80,-17,-1005,0,-700,-70,,,,,,,0x03,
8930,80,-16,-1005,-70,-770,-70,,,,,,,0x03,
8940,79,-17,-1006,0,-770,-70,,,,,,,0x03,
8949,80,-17,-1005,70,-770,-70,,,,,,,0x03,
8959,80,-17,-1006,0,-770,-70,,,,,,,0x03,
8969,80,-17,-1006,0,-770,-140,,,,,,,0x03,
8978,79,-17,-1005,0,-770,-140,,,,,,,0x03,
8988,80,-16,-1005,0,-770,-70,,,,,,,0x03,
8997,79,-17,-1006,0,-700,-70,,,,,,,0x03,
9007,79,-17,-1005,70,-700,-70,,,,,,,0x03,
9017,79,-17,-1005,70,-700,-70,,,,,,,0x03,
9026,80,-17,-1006,70,-700,-70,,,,,,,0x03,
9036,80,-16,-1005,0,-770,-70,,,,,,,0x03,
9046,80,-17,-1006,0,-700,-140,,,,,,,0x03,
9055,81,-17,-1005,70,-700,-70,,,,,,,0x03,
9065,79,-16,-1005,140,-700,-70,,,,,,,0x03,
9075,79,-17,-1005,70,-700,-70,,,,,,,0x03,
9084,79,-18,-1006,70,-770,-70,,,,,,,0x03,
9094,79,-17,-1006,70,-700,-70,,,,,,,0x03,
9104,79,-18,-1005,140,-700,-140,,,,,,,0x03,
9113,79,-16,-1006,70,-700,-140,,,,,,,0x03,
9123,79,-17,-1005,140,-700,-70,,,,,,,0x03,
9132,79,-18,-1005,140,-700,-70,,,,,,,0x03,
9142,79,-16,-1005,70,-700,-70,,,,,,,0x03,
9152,80,-18,-1006,70,-700,0,,,,,,,0x03,
9161,80,-17,-1005,70,-630,0,,,,,,,0x03,
9171,80,-18,-1005,140,-700,-70,,,,,,,0x03,
9181,80,-17,-1005,140,-630,-70,,,,,,,0x03,
9190,79,-17,-1005,140,-630,0,,,,,,,0x03,
9200,79,-17,-1005,70,-700,-70,,,,,,,0x03,
9210,79,-17,-1005,140,-700,-70,,,,,,,0x03,
9219,79,-17,-1006,210,-630,0,,,,,,,0x03,
9229,79,-17,-1005,210,-630,-70,,,,,,,0x03,
9239,80,-17,-1006,210,-630,-70,,,,,,,0x03,
9248,80,-17,-1005,210,-630,-70,,,,,,,0x03,
9258,80,-17,-1005,210,-630,-70,,,,,,,0x03,
9267,79,-17,-1005,140,-630,-70,,,,,,,0x03,
9277,80,-17,-1006,140,-630,0,,,,,,,0x03,
9287,80,-17,-1006,140,-700,0,,,,,,,0x03,
9296,79,-18,-1005,140,-700,-70,,,,,,,0x03,
9306,80,-17,-1004,70,-700,-70,,,,,,,0x03,
9316,79,-17,-1006,70,-700,-70,,,,,,,0x03,
9325,80,-17,-1006,70,-770,-140,,,,,,,0x03,
9335,79,-17,-1005,70,-700,-140,,,,,,,0x03,
9345,80,-17,-1005,70,-770,-70,,,,,,,0x03,
9354,79,-18,-1005,0,-700,-70,,,,,,,0x03,
9364,80,-17,-1006,70,-700,-70,,,,,,,0x03,
9374,79,-18,-1005,70,-630,-70,,,,,,,0x03,
9383,80,-17,-1005,70,-700,-70,,,,,,,0x03,
9393,79,-17,-1006,70,-700,-70,,,,,,,0x03,
9402,80,-18,-1006,0,-700,-70,,,,,,,0x03,
9412,80,-18,-1005,-70,-770,-70,,,,,,,0x03,
9422,80,-17,-1005,-70,-770,-70,,,,,,,0x03,
9431,79,-17,-1006,-70,-700,-70,,,,,,,0x03,
9441,80,-17,-1005,0,-700,0,,,,,,,0x03,
9451,80,-17,-1005,70,-700,-70,,,,,,,0x03,
9460,80,-17,-1006,140,-630,-70,,,,,,,0x03,
9470,80,-17,-1005,210,-560,-70,,,,,,,0x03,
9480,80,-17,-1005,210,-630,-70,,,,,,,0x03,
9489,80,-17,-1006,210,-630,-70,,,,,,,0x03,
9499,80,-17,-1005,210,-630,0,,,,,,,0x03,
9509,80,-17,-1005,140,-700,0,,,,,,,0x03,
9518,80,-17,-1005,70,-770,0,,,,,,,0x03,
9528,80,-17,-1005,70,-700,-70,,,,,,,0x03,
9537,80,-18,-1004,70,-700,-70,,,,,,,0x03,
9547,80,-18,-1005,70,-700,-70,,,,,,,0x03,
9557,80,-18,-1006,70,-770,-70,,,,,,,0x03,
9566,79,-18,-1005,0,-770,-70,,,,,,,0x03,
9576,80,-18,-1006,70,-700,0,,,,,,,0x03,
9586,80,-17,-1005,70,-700,0,,,,,,,0x03,
9595,79,-17,-1005,70,-700,0,,,,,,,0x03,
9605,80,-18,-1005,0,-770,0,,,,,,,0x03,
9615,80,-17,-1004,0,-770,-70,,,,,,,0x03,
9624,79,-17,-1006,70,-700,0,,,,,,,0x03,
9634,81,-17,-1006,140,-770,0,,,,,,,0x03,
9644,79,-17,-1006,210,-700,0,,,,,,,0x03,
9653,80,-17,-1006,210,-630,0,,,,,,,0x03,
9663,79,-17,-1005,280,-630,0,,,,,,,0x03,
9672,81,-17,-1005,280,-560,0,,,,,,,0x03,
9682,79,-17,-1006,280,-630,0,,,,,,,0x03,
9692,79,-18,-1006,280,-630,0,,,,,,,0x03,
9701,79,-18,-1005,280,-560,-70,,,,,,,0x03,
9711,80,-18,-1006,210,-560,-70,,,,,,,0x03,
9721,80,-18,-1006,280,-560,0,,,,,,,0x03,
9730,81,-18,-1005,210,-560,0,,,,,,,0x03,
9740,81,-18,-1005,210,-560,0,,,,,,,0x03,
9750,79,-18,-1005,210,-560,0,,,,,,,0x03,
9759,80,-18,-1005,210,-560,0,,,,,,,0x03,
9769,81,-18,-1005,210,-560,-70,,,,,,,0x03,
9779,81,-18,-1004,140,-560,0,,,,,,,0x03,
9788,80,-17,-1006,140,-560,0,,,,,,,0x03,
9798,80,-18,-1006,140,-560,0,,,,,,,0x03,
9807,80,-19,-1004,210,-560,0,,,,,,,0x03,
9817,80,-19,-1005,210,-560,0,,,,,,,0x03,
9827,81,-18,-1004,70,-560,0,,,,,,,0x03,
9836,81,-18,-1006,0,-700,0,,,,,,,0x03,
9846,80,-18,-1006,0,-700,-70,,,,,,,0x03,
9856,80,-17,-1004,0,-630,-70,,,,,,,0x03,
9865,80,-19,-1009,70,-560,0,,,,,,,0x03,
9875,81,-18,-1004,210,-490,0,,,,,,,0x03,
9885,81,-18,-1005,140,-630,0,,,,,,,0x03,
9894,81,-19,-1005,70,-630,-70,,,,,,,0x03,
9904,80,-17,-1006,0,-630,-70,,,,,,,0x03,
9914,81,-18,-1006,140,-630,-70,,,,,,,0x03,
9923,81,-17,-1006,140,-560,-70,,,,,,,0x03,
9933,80,-18,-1006,210,-560,0,,,,,,,0x03,
9943,81,-18,-1004,280,-490,-70,,,,,,,0x03,
9952,80,-19,-1006,210,-560,0,,,,,,,0x03,
9962,81,-18,-1005,140,-630,0,,,,,,,0x03,
9971,81,-18,-1006,210,-630,0,,,,,,,0x03,
9981,81,-18,-1005,280,-490,0,,,,,,,0x03,
9991,81,-18,-1005,350,-490,0,,,,,,,0x03,
10000,80,-18,-1005,280,-560,0,,,,,,,0x03,
10010,80,-19,-1004,210,-560,70,,,,,,,0x03,
10020,80,-19,-1005,210,-560,0,,,,,,,0x03,
10029,81,-19,-1005,140,-630,0,,,,,,,0x03,
10039,81,-18,-1006,140,-560,0,,,,,,,0x03,
10049,81,-19,-1005,280,-630,0,,,,,,,0x03,
10058,81,-19,-1005,280,-630,70,,,,,,,0x03,
10068,80,-18,-1006,280,-630,70,,,,,,,0x03,
10078,80,-18,-1006,350,-560,0,,,,,,,0x03,
10087,80,-18,-1005,280,-560,0,,,,,,,0x03,
10097,80,-19,-1008,280,-490,0,,,,,,,0x03,
10106,80,-19,-1003,280,-560,0,,,,,,,0x03,
10116,81,-19,-1006,210,-630,0,,,,,,,0x03,
10126,81,-20,-1005,280,-560,70,,,,,,,0x03,
10135,81,-18,-1007,420,-420,70,,,,,,,0x03,
10145,80,-20,-1003,560,-420,140,,,,,,,0x03,
10155,82,-20,-1006,630,-420,140,,,,,,,0x03,
10164,81,-20,-1005,700,-350,210,,,,,,,0x03,
10174,81,-19,-1008,910,-350,210,,,,,,,0x03,
10184,81,-21,-1004,1120,-140,280,,,,,,,0x03,
10193,81,-20,-1007,1120,-210,280,,,,,,,0x03,
10203,81,-21,-1005,1190,-210,280,,,,,,,0x03,
10213,82,-20,-1005,1050,-280,210,,,,,,,0x03,
10222,81,-20,-1005,910,-350,210,,,,,,,0x03,
10232,83,-21,-1007,840,-420,210,,,,,,,0x03,
10241,83,-21,-1003,840,-350,140,,,,,,,0x03,
10251,81,-21,-1006,840,-420,140,,,,,,,0x03,
10261,81,-22,-1004,910,-350,210,,,,,,,0x03,
10270,82,-21,-1005,840,-490,140,,,,,,,0x03,
10280,81,-21,-1005,840,-490,140,,,,,,,0x03,
10290,81,-21,-1005,910,-420,70,,,,,,,0x03,
10299,82,-21,-1004,1050,-280,210,,,,,,,0x03,
10309,82,-21,-1005,1260,-280,350,,,,,,,0x03,
10319,83,-21,-1006,1540,-210,490,,,,,,,0x03,
10328,83,-21,-1006,1960,-140,630,,,,,,,0x03,
10338,82,-23,-1004,2380,-70,840,,,,,,,0x03,
10348,82,-24,-1006,2590,-140,910,,,,,,,0x03,
10357,82,-24,-1005,2730,-140,980,,,,,,,0x03,
10367,83,-24,-1005,2730,-140,910,,,,,,,0x03,
10376,83,-25,-1005,2660,-210,910,,,,,,,0x03,
10386,84,-25,-1006,2800,-210,840,,,,,,,0x03,
10396,84,-26,-1006,2800,-140,910,,,,,,,0x03,
10405,84,-26,-1004,2660,-140,840,,,,,,,0x03,
10415,84,-27,-1004,2450,-140,700,,,,,,,0x03,
10425,84,-28,-1005,2240,-140,630,,,,,,,0x03,
10434,84,-28,-1005,1890,-140,630,,,,,,,0x03,
10444,84,-29,-1004,1680,-210,490,,,,,,,0x03,
10454,84,-29,-1004,1400,-210,350,,,,,,,0x03,
10463,83,-28,-1005,1120,-280,210,,,,,,,0x03,
10473,83,-28,-1003,980,-210,210,,,,,,,0x03,
10483,84,-29,-1006,910,-280,210,,,,,,,0x03,
10492,85,-28,-1004,1120,-210,210,,,,,,,0x03,
10502,84,-28,-1005,1260,-210,280,,,,,,,0x03,
10511,85,-29,-1006,1400,-140,350,,,,,,,0x03,
10521,84,-29,-1005,1470,-280,350,,,,,,,0x03,
10531,85,-29,-1006,1540,-210,420,,,,,,,0x03,
10540,84,-30,-1003,1470,-210,490,,,,,,,0x03,
10550,85,-30,-1004,1330,-280,490,,,,,,,0x03,
10560,84,-30,-1006,1120,-350,420,,,,,,,0x03,
10569,86,-31,-1003,1190,-350,280,,,,,,,0x03,
10579,85,-31,-1006,1260,-420,280,,,,,,,0x03,
10589,85,-30,-1005,1330,-350,350,,,,,,,0x03,
10598,85,-31,-1003,1330,-350,350,,,,,,,0x03,
10608,85,-31,-1004,1120,-420,280,,,,,,,0x03,
10618,86,-32,-1004,980,-420,280,,,,,,,0x03,
10627,84,-32,-1004,840,-560,280,,,,,,,0x03,
10637,85,-32,-1006,840,-560,280,,,,,,,0x03,
10646,85,-31,-1008,1050,-420,280,,,,,,,0x03,
10656,86,-32,-1004,1330,-280,350,,,,,,,0x03,
10666,84,-33,-1004,1330,-350,350,,,,,,,0x03,
10675,86,-35,-1002,1120,-490,280,,,,,,,0x03,
10685,86,-33,-1003,700,-700,140,,,,,,,0x03,
10695,86,-32,-1005,560,-770,140,,,,,,,0x03,
10704,85,-32,-1008,770,-630,140,,,,,,,0x03,
10714,86,-32,-1005,1050,-490,210,,,,,,,0x03,
10724,84,-33,-1004,1050,-490,280,,,,,,,0x03,
10733,86,-32,-1005,1050,-560,350,,,,,,,0x03,
10743,87,-33,-1004,1050,-630,350,,,,,,,0x03,
10753,86,-33,-1005,980,-630,420,,,,,,,0x03,
10762,85,-33,-1003,910,-560,490,,,,,,,0x03,
10772,86,-33,-1005,840,-630,630,,,,,,,0x03,
10781,86,-34,-1003,770,-630,630,,,,,,,0x03,
10791,86,-33,-1005,630,-700,770,,,,,,,0x03,
10801,85,-35,-1006,560,-770,770,,,,,,,0x03,
10810,85,-35,-1004,700,-630,700,,,,,,,0x03,
10820,85,-35,-1005,700,-560,700,,,,,,,0x03,
10830,86,-36,-1004,630,-560,560,,,,,,,0x03,
10839,86,-36,-1004,420,-630,420,,,,,,,0x03,
10849,86,-36,-1004,210,-700,210,,,,,,,0x03,
10859,86,-35,-1005,70,-840,140,,,,,,,0x03,
10868,86,-35,-1005,70,-770,70,,,,,,,0x03,
10878,87,-35,-1004,70,-700,70,,,,,,,0x03,
10888,86,-36,-1004,0,-770,70,,,,,,,0x03,
10897,86,-36,-1004,-140,-840,70,,,,,,,0x03,
10907,86,-35,-1004,-350,-840,0,,,,,,,0x03,
10917,86,-36,-1006,-420,-910,0,,,,,,,0x03,
10926,86,-34,-1006,-350,-910,-70,,,,,,,0x03,
10936,86,-35,-1006,-280,-840,0,,,,,,,0x03,
10945,86,-35,-1003,-280,-770,-70,,,,,,,0x03,
10955,85,-33,-1004,-280,-840,-70,,,,,,,0x03,
10965,84,-34,-1005,-280,-840,-70,,,,,,,0x03,
10974,86,-34,-1004,-210,-770,0,,,,,,,0x03,
10984,85,-34,-1004,-210,-700,0,,,,,,,0x03,
10994,86,-35,-1005,-280,-700,-70,,,,,,,0x03,
11003,85,-34,-1004,-350,-770,-140,,,,,,,0x03,
11013,85,-34,-1005,-560,-840,-140,,,,,,,0x03,
11023,85,-35,-1005,-630,-840,-140,,,,,,,0x03,
11032,84,-34,-1004,-700,-980,-210,,,,,,,0x03,
11042,85,-34,-1006,-630,-980,-280,,,,,,,0x03,
11052,84,-34,-1007,-490,-980,-280,,,,,,,0x03,
11061,85,-33,-1004,-350,-980,-280,,,,,,,0x03,
11071,85,-34,-1004,-490,-980,-280,,,,,,,0x03,
11080,84,-33,-1004,-560,-1050,-350,,,,,,,0x03,
11090,85,-33,-1006,-490,-1050,-280,,,,,,,0x03,
11100,85,-33,-1004,-280,-910,-210,,,,,,,0x03,
11109,84,-33,-1004,-210,-910,-210,,,,,,,0x03,
11119,85,-33,-1004,-280,-980,-210,,,,,,,0x03,
11129,85,-34,-1003,-420,-1050,-210,,,,,,,0x03,
11138,85,-34,-1004,-630,-1190,-210,,,,,,,0x03,
11148,85,-33,-1004,-840,-1260,-280,,,,,,,0x03,
11158,86,-32,-1005,-910,-1330,-280,,,,,,,0x03,
11167,84,-31,-1003,-1050,-1330,-280,,,,,,,0x03,
11177,84,-32,-1006,-1190,-1470,-350,,,,,,,0x03,
11187,85,-32,-1007,-910,-1400,-280,,,,,,,0x03,
11196,84,-31,-1005,-630,-1190,-280,,,,,,,0x03,
11206,84,-33,-1001,-560,-1120,-210,,,,,,,0x03,
11215,83,-33,-1004,-840,-1330,-210,,,,,,,0x03,
11225,83,-32,-1006,-910,-1330,-280,,,,,,,0x03,
11235,84,-32,-1004,-840,-1190,-210,,,,,,,0x03,
11244,84,-30,-1006,-980,-1330,-210,,,,,,,0x03,
11254,85,-33,-1004,-910,-1330,-210,,,,,,,0x03,
11264,84,-30,-1006,-1050,-1330,-280,,,,,,,0x03,
11273,83,-30,-1003,-1050,-1260,-210,,,,,,,0x03,
11283,83,-30,-1005,-1260,-1330,-280,,,,,,,0x03,
11293,84,-30,-1006,-1260,-1330,-280,,,,,,,0x03,
11302,84,-29,-1007,-1120,-1190,-280,,,,,,,0x03,
11312,82,-30,-1005,-840,-1120,-210,,,,,,,0x03,
11322,83,-30,-1006,-840,-1050,-210,,,,,,,0x03,
11331,82,-29,-1005,-630,-980,-140,,,,,,,0x03,
11341,82,-30,-1004,-490,-910,-140,,,,,,,0x03,
11350,83,-29,-1003,-560,-980,-70,,,,,,,0x03,
11360,82,-30,-1003,-700,-1050,-140,,,,,,,0x03,
11370,83,-28,-1007,-840,-1050,-210,,,,,,,0x03,
11379,83,-29,-1006,-700,-910,-140,,,,,,,0x03,
11389,83,-30,-1003,-560,-840,-140,,,,,,,0x03,
11399,82,-29,-1006,-560,-840,-70,,,,,,,0x03,
11408,83,-28,-1006,-560,-770,-140,,,,,,,0x03,
11418,83,-28,-1007,-490,-770,-140,,,,,,,0x03,
11428,82,-29,-1003,-420,-840,-140,,,,,,,0x03,
11437,82,-30,-1005,-350,-840,-140,,,,,,,0x03,
11447,84,-28,-1004,-280,-770,-140,,,,,,,0x03,
11457,82,-29,-1004,-280,-840,-70,,,,,,,0x03,
11466,83,-29,-1006,-350,-840,-70,,,,,,,0x03,
11476,82,-28,-1005,-490,-980,-140,,,,,,,0x03,
11485,83,-29,-1006,-420,-840,-70,,,,,,,0x03,
11495,82,-29,-1002,-490,-980,-70,,,,,,,0x03,
11505,83,-28,-1007,-560,-980,-140,,,,,,,0x03,
11514,83,-28,-1004,-490,-910,-70,,,,,,,0x03,
11524,83,-27,-1008,-420,-910,-140,,,,,,,0x03,
11534,83,-28,-1006,-210,-910,-140,,,,,,,0x03,
11543,81,-28,-1006,-140,-840,-140,,,,,,,0x03,
11553,81,-28,-1005,-70,-840,-140,,,,,,,0x03,
11563,83,-28,-1006,-70,-840,-140,,,,,,,0x03,
11572,82,-28,-1005,-70,-840,-70,,,,,,,0x03,
11582,82,-29,-1005,0,-840,-70,,,,,,,0x03,
11592,83,-27,-1005,0,-770,-70,,,,,,,0x03,
11601,82,-28,-1005,-140,-840,-70,,,,,,,0x03,
11611,82,-28,-1005,-140,-840,-70,,,,,,,0x03,
11620,82,-28,-1005,-140,-770,-70,,,,,,,0x03,
11630,82,-28,-1005,-210,-770,-140,,,,,,,0x03,
11640,81,-28,-1005,-210,-770,-140,,,,,,,0x03,
11649,82,-28,-1005,-140,-770,-70,,,,,,,0x03,
11659,82,-27,-1005,-70,-770,-70,,,,,,,0x03,
11669,81,-27,-1005,-70,-770,-70,,,,,,,0x03,
11678,82,-28,-1004,-70,-770,-70,,,,,,,0x03,
11688,82,-28,-1004,-70,-770,-70,,,,,,,0x03,
11698,82,-27,-1004,-140,-840,-70,,,,,,,0x03,
11707,81,-28,-1004,-140,-840,-70,,,,,,,0x03,
11717,83,-28,-1005,-210,-910,-70,,,,,,,0x03,
11727,82,-27,-1005,-210,-910,-70,,,,,,,0x03,
11736,81,-28,-1005,-140,-840,-70,,,,,,,0x03,
11746,82,-27,-1005,-140,-840,-70,,,,,,,0x03,
11755,83,-28,-1005,-70,-840,-70,,,,,,,0x03,
11765,81,-28,-1006,-70,-770,-70,,,,,,,0x03,
11775,82,-27,-1006,-70,-770,-70,,,,,,,0x03,
11784,81,-28,-1004,70,-770,-70,,,,,,,0x03,
11794,82,-27,-1004,70,-770,-70,,,,,,,0x03,
11804,82,-27,-1005,70,-770,-70,,,,,,,0x03,
11813,81,-27,-1005,0,-770,0,,,,,,,0x03,
11823,81,-27,-1005,-70,-840,0,,,,,,,0x03,
11833,81,-27,-1005,-140,-840,-70,,,,,,,0x03,
11842,82,-27,-1006,-140,-910,-70,,,,,,,0x03,
11852,82,-27,-1005,-140,-980,-70,,,,,,,0x03,
11862,82,-29,-1001,-210,-980,-70,,,,,,,0x03,
11871,80,-27,-1009,-490,-1190,-70,,,,,,,0x03,
11881,81,-26,-1006,-280,-910,-140,,,,,,,0x03,
11890,82,-26,-1006,-140,-910,-70,,,,,,,0x03,
11900,81,-28,-1002,0,-840,-70,,,,,,,0x03,
11910,81,-25,-1007,70,-910,0,,,,,,,0x03,
11919,82,-27,-1006,210,-770,-70,,,,,,,0x03,
11929,81,-27,-1006,140,-770,-70,,,,,,,0x03,
11939,81,-27,-1003,210,-840,-70,,,,,,,0x03,
11948,81,-26,-1007,-70,-910,-70,,,,,,,0x03,
11958,81,-27,-1005,0,-910,-70,,,,,,,0x03,
11968,81,-26,-1005,0,-770,-70,,,,,,,0x03,
11977,81,-27,-1005,70,-770,-70,,,,,,,0x03,
11987,81,-27,-1003,70,-700,-70,,,,,,,0x03,
11997,82,-27,-1004,0,-770,-70,,,,,,,0x03,
12006,82,-27,-1005,0,-770,-70,,,,,,,0x03,
12016,81,-26,-1005,-70,-770,-140,,,,,,,0x03,
12026,81,-27,-1006,-70,-840,-70,,,,,,,0x03,
12035,83,-28,-1006,-140,-840,-70,,,,,,,0x03,
12045,82,-27,-1005,-210,-910,-140,,,,,,,0x03,
12054,82,-27,-1006,-280,-980,-140,,,,,,,0x03,
12064,82,-26,-1006,-350,-910,-140,,,,,,,0x03,
12074,81,-27,-1005,-280,-910,-140,,,,,,,0x03,
12083,81,-26,-1005,-210,-910,-70,,,,,,,0x03,
12093,82,-27,-1005,-210,-910,-140,,,,,,,0x03,
12103,80,-27,-1005,-210,-910,-140,,,,,,,0x03,
12112,81,-28,-1005,-280,-840,-70,,,,,,,0x03,
12122,81,-27,-1005,-350,-840,-140,,,,,,,0x03,
12132,81,-26,-1005,-350,-840,-70,,,,,,,0x03,
12141,80,-27,-1005,-350,-840,-70,,,,,,,0x03,
12151,80,-28,-1004,-350,-840,-70,,,,,,,0x03,
12161,81,-27,-1005,-280,-840,-70,,,,,,,0x03,
12170,81,-26,-1006,-280,-840,-70,,,,,,,0x03,
12180,80,-27,-1005,-210,-770,-70,,,,,,,0x03,
12189,81,-26,-1005,-210,-840,-70,,,,,,,0x03,
12199,80,-27,-1005,-210,-840,-70,,,,,,,0x03,
12209,81,-27,-1005,-280,-770,-70,,,,,,,0x03,
12218,80,-26,-1005,-210,-840,-140,,,,,,,0x03,
12228,82,-26,-1005,-140,-770,-70,,,,,,,0x03,
12238,80,-26,-1005,-210,-770,-140,,,,,,,0x03,
12247,80,-25,-1005,-210,-770,-70,,,,,,,0x03,
12257,81,-25,-1005,-280,-840,-140,,,,,,,0x03,
12267,80,-26,-1005,-280,-770,-140,,,,,,,0x03,
12276,81,-26,-1005,-280,-770,-140,,,,,,,0x03,
12286,81,-26,-1006,-350,-770,-140,,,,,,,0x03,
12296,81,-26,-1005,-350,-770,-210,,,,,,,0x03,
12305,80,-26,-1005,-420,-840,-210,,,,,,,0x03,
12315,81,-27,-1002,-770,-1120,-210,,,,,,,0x03,
12324,80,-27,-1009,-910,-1050,-210,,,,,,,0x03,
12334,80,-25,-1004,-700,-910,-210,,,,,,,0x03,
12344,82,-25,-1005,-700,-1050,-280,,,,,,,0x03,
12353,82,-25,-1003,-630,-1050,-280,,,,,,,0x03,
12363,81,-24,-1009,-630,-1050,-210,,,,,,,0x03,
12373,80,-25,-1006,-490,-910,-210,,,,,,,0x03,
12382,79,-24,-1005,-420,-980,-140,,,,,,,0x03,
12392,80,-25,-1004,-280,-910,-140,,,,,,,0x03,
12402,81,-25,-1005,-350,-910,-140,,,,,,,0x03,
12411,80,-24,-1005,-350,-910,-140,,,,,,,0x03,
12421,80,-24,-1006,-280,-840,-140,,,,,,,0x03,
12431,81,-25,-1006,-210,-840,-70,,,,,,,0x03,
12440,80,-24,-1005,-140,-840,-70,,,,,,,0x03,
12450,80,-25,-1005,-140,-840,-70,,,,,,,0x03,
12459,79,-25,-1006,-210,-840,-140,,,,,,,0x03,
12469,80,-24,-1005,-210,-840,-140,,,,,,,0x03,
12479,80,-25,-1005,-280,-770,-140,,,,,,,0x03,
12488,79,-25,-1005,-280,-840,-140,,,,,,,0x03,
12498,80,-25,-1006,-280,-840,-140,,,,,,,0x03,
12508,80,-24,-1005,-140,-770,-140,,,,,,,0x03,
12517,80,-24,-1005,-140,-770,-70,,,,,,,0x03,
12527,80,-24,-1006,-140,-770,-140,,,,,,,0x03,
12537,80,-24,-1005,-140,-770,-70,,,,,,,0x03,
12546,80,-24,-1005,-140,-700,-70,,,,,,,0x03,
12556,80,-24,-1005,-140,-770,-70,,,,,,,0x03,
12566,79,-24,-1005,-140,-700,-70,,,,,,,0x03,
12575,80,-24,-1006,-140,-770,-70,,,,,,,0x03,
12585,79,-24,-1005,-140,-770,-140,,,,,,,0x03,
12594,80,-25,-1005,-140,-770,-140,,,,,,,0x03,
12604,79,-24,-1005,-210,-770,-70,,,,,,,0x03,
12614,80,-24,-1006,-280,-770,-70,,,,,,,0x03,
12623,81,-24,-1006,-280,-770,-140,,,,,,,0x03,
12633,79,-23,-1005,-280,-770,-140,,,,,,,0x03,
12643,80,-23,-1005,-350,-770,-70,,,,,,,0x03,
12652,79,-24,-1006,-280,-840,-140,,,,,,,0x03,
12662,79,-24,-1004,-280,-840,-70,,,,,,,0x03,
12672,80,-24,-1005,-350,-840,-70,,,,,,,0x03,
12681,80,-24,-1006,-280,-840,-140,,,,,,,0x03,
12691,79,-23,-1005,-210,-840,-70,,,,,,,0x03,
12701,79,-24,-1005,-140,-840,-70,,,,,,,0x03,
12710,80,-24,-1005,-140,-840,-70,,,,,,,0x03,
12720,80,-23,-1005,-210,-840,-70,,,,,,,0x03,
12729,79,-23,-1005,-210,-840,-140,,,,,,,0x03,
12739,80,-23,-1006,-210,-840,-70,,,,,,,0x03,
12749,79,-23,-1005,-140,-770,-70,,,,,,,0x03,
12758,79,-23,-1005,-140,-770,-70,,,,,,,0x03,
12768,79,-23,-1005,-140,-840,-70,,,,,,,0x03,
12778,79,-23,-1006,-140,-840,-70,,,,,,,0x03,
12787,79,-24,-1005,0,-770,-70,,,,,,,0x03,
12797,80,-23,-1005,0,-770,-70,,,,,,,0x03,
12807,79,-23,-1005,0,-700,-70,,,,,,,0x03,
12816,79,-24,-1005,-70,-770,-70,,,,,,,0x03,
12826,79,-24,-1004,-70,-770,-70,,,,,,,0x03,
12836,79,-24,-1005,-70,-770,-70,,,,,,,0x03,
12845,79,-23,-1004,-140,-770,-70,,,,,,,0x03,
12855,80,-23,-1005,-70,-770,-70,,,,,,,0x03,
12864,79,-23,-1006,0,-700,0,,,,,,,0x03,
12874,79,-23,-1008,-70,-700,-70,,,,,,,0x03,
12884,79,-24,-999,-70,-840,-70,,,,,,,0x03,
12893,79,-24,-1008,-210,-840,-70,,,,,,,0x03,
12903,79,-23,-1005,-140,-770,-70,,,,,,,0x03,
12913,80,-24,-1005,0,-700,-140,,,,,,,0x03,
12922,79,-24,-1003,-70,-770,-70,,,,,,,0x03,
12932,80,-23,-1006,-140,-840,-140,,,,,,,0x03,
12942,79,-23,-1005,-140,-770,-70,,,,,,,0x03,
12951,80,-23,-1006,-140,-840,-140,,,,,,,0x03,
12961,79,-23,-1004,-140,-770,-140,,,,,,,0x03,
12971,79,-22,-1006,-70,-840,-70,,,,,,,0x03,
12980,81,-23,-1006,-70,-840,-70,,,,,,,0x03,
12990,79,-23,-1005,-70,-770,-70,,,,,,,0x03,
13000,78,-22,-1005,0,-770,-70,,,,,,,0x03,
13009,79,-22,-1005,0,-770,-70,,,,,,,0x03,
13019,79,-22,-1005,-70,-770,-70,,,,,,,0x03,
13028,79,-24,-1005,0,-700,-70,,,,,,,0x03,
13038,78,-22,-1005,70,-700,-70,,,,,,,0x03,
13048,80,-23,-1005,0,-770,-70,,,,,,,0x03,
13057,79,-24,-1006,70,-700,-70,,,,,,,0x03,
13067,79,-22,-1006,70,-700,-70,,,,,,,0x03,
13077,78,-23,-1004,140,-700,-70,,,,,,,0x03,
13086,79,-23,-1006,140,-700,-70,,,,,,,0x03,
13096,79,-24,-1005,140,-700,-70,,,,,,,0x03,
13106,79,-23,-1005,70,-700,-70,,,,,,,0x03,
13115,81,-23,-1005,70,-770,-140,,,,,,,0x03,
13125,79,-23,-1005,70,-770,-70,,,,,,,0x03,
13135,79,-24,-1005,0,-770,-70,,,,,,,0x03,
13144,79,-23,-1005,0,-700,-70,,,,,,,0x03,
13154,79,-23,-1006,70,-700,-70,,,,,,,0x03,
13163,78,-23,-1005,70,-700,-140,,,,,,,0x03,
13173,79,-23,-1005,70,-700,-70,,,,,,,0x03,
13183,78,-23,-1005,140,-700,-70,,,,,,,0x03,
13192,79,-24,-1004,140,-700,-70,,,,,,,0x03,
13202,79,-23,-1005,140,-700,-70,,,,,,,0x03,
13212,79,-23,-1006,70,-700,-70,,,,,,,0x03,
13221,79,-23,-1005,70,-700,-140,,,,,,,0x03,
13231,80,-25,-1005,70,-770,-70,,,,,,,0x03,
13241,79,-23,-1005,70,-770,-70,,,,,,,0x03,
13250,79,-22,-1005,0,-770,0,,,,,,,0x03,
13260,79,-24,-1006,0,-770,-70,,,,,,,0x03,
13270,79,-23,-1005,0,-770,-140,,,,,,,0x03,
13279,79,-24,-1005,0,-770,-70,,,,,,,0x03,
13289,79,-23,-1005,0,-770,-70,,,,,,,0x03,
13298,80,-23,-1006,0,-840,-70,,,,,,,0x03,
13308,79,-23,-1005,70,-770,-70,,,,,,,0x03,
13318,80,-23,-1005,70,-770,-70,,,,,,,0x03,
13327,78,-23,-1005,140,-770,-70,,,,,,,0x03,
13337,78,-23,-1005,140,-700,-70,,,,,,,0x03,
13347,79,-24,-1004,70,-700,-70,,,,,,,0x03,
13356,79,-23,-1007,70,-700,-70,,,,,,,0x03,
13366,79,-24,-1005,70,-700,-70,,,,,,,0x03,
13376,80,-23,-1006,70,-700,-70,,,,,,,0x03,
13385,78,-24,-1006,70,-700,-70,,,,,,,0x03,
13395,79,-23,-1005,70,-700,-70,,,,,,,0x03,
13405,79,-23,-1005,140,-630,0,,,,,,,0x03,
13414,80,-24,-1005,140,-700,-70,,,,,,,0x03,
13424,80,-23,-1006,140,-630,-70,,,,,,,0x03,
13433,80,-23,-1006,70,-700,-70,,,,,,,0x03,
13443,79,-24,-1005,0,-700,-70,,,,,,,0x03,
13453,79,-23,-1004,0,-700,-70,,,,,,,0x03,
13462,78,-24,-1005,0,-700,-70,,,,,,,0x03,
13472,80,-23,-1005,0,-700,0,,,,,,,0x03,
13482,80,-23,-1005,-70,-700,-70,,,,,,,0x03,
13491,79,-23,-1005,-70,-700,-70,,,,,,,0x03,
13501,79,-24,-1005,-70,-700,-70,,,,,,,0x03,
13511,80,-23,-1006,-140,-700,-70,,,,,,,0x03,
13520,79,-24,-1005,-140,-770,-70,,,,,,,0x03,
13530,79,-23,-1005,-140,-770,-70,,,,,,,0x03,
13540,80,-23,-1005,-140,-770,-70,,,,,,,0x03,
13549,80,-24,-1004,-210,-840,-70,,,,,,,0x03,
13559,78,-24,-1006,-140,-840,-70,,,,,,,0x03,
13568,79,-23,-1006,-140,-840,-140,,,,,,,0x03,
13578,78,-24,-1005,-70,-770,-70,,,,,,,0x03,
13588,80,-24,-1004,-70,-770,-70,,,,,,,0x03,
13597,79,-23,-1006,-70,-770,-140,,,,,,,0x03,
13607,79,-23,-1005,70,-700,-70,,,,,,,0x03,
13617,79,-23,-1004,70,-630,-70,,,,,,,0x03,
13626,80,-24,-1005,140,-700,-70,,,,,,,0x03,
13636,80,-23,-1006,140,-700,-70,,,,,,,0x03,
13646,80,-23,-1006,140,-700,-70,,,,,,,0x03,
13655,79,-24,-1005,140,-700,-70,,,,,,,0x03,
13665,79,-23,-1004,140,-700,-70,,,,,,,0x03,
13675,79,-23,-1004,70,-700,-70,,,,,,,0x03,
13684,79,-23,-1006,70,-700,-70,,,,,,,0x03,
13694,80,-24,-1005,140,-700,-70,,,,,,,0x03,
13703,80,-23,-1005,70,-700,-70,,,,,,,0x03,
13713,79,-22,-1006,70,-700,-70,,,,,,,0x03,
13723,80,-23,-1005,70,-700,-70,,,,,,,0x03,
13732,79,-24,-1004,140,-630,0,,,,,,,0x03,
13742,80,-24,-1005,140,-700,-70,,,,,,,0x03,
13752,79,-24,-1005,210,-630,0,,,,,,,0x03,
13761,79,-23,-1006,210,-630,-70,,,,,,,0x03,
13771,78,-24,-1005,140,-630,-70,,,,,,,0x03,
13781,79,-23,-1006,210,-630,-70,,,,,,,0x03,
13790,80,-23,-1006,210,-630,-70,,,,,,,0x03,
13800,80,-24,-1006,210,-630,0,,,,,,,0x03,
13810,80,-24,-1005,70,-630,-70,,,,,,,0x03,
13819,79,-22,-1005,0,-700,-70,,,,,,,0x03,
13829,80,-23,-1005,0,-770,-70,,,,,,,0x03,
13838,79,-23,-1005,0,-700,-70,,,,,,,0x03,
13848,80,-23,-1006,0,-770,-70,,,,,,,0x03,
13858,79,-23,-1005,0,-770,-70,,,,,,,0x03,
13867,79,-23,-1004,0,-770,-140,,,,,,,0x03,
13877,80,-24,-1005,-70,-770,-70,,,,,,,0x03,
13887,78,-25,-1005,-70,-840,-70,,,,,,,0x03,
13896,79,-23,-1006,-140,-840,-140,,,,,,,0x03,
13906,79,-24,-1005,-70,-770,-70,,,,,,,0x03,
13916,79,-24,-1005,0,-770,-70,,,,,,,0x03,
13925,79,-23,-1006,70,-770,-70,,,,,,,0x03,
13935,79,-23,-1005,70,-700,-70,,,,,,,0x03,
13945,79,-23,-1006,70,-700,-70,,,,,,,0x03,
13954,80,-24,-1006,70,-700,-70,,,,,,,0x03,
13964,79,-23,-1006,70,-770,-140,,,,,,,0x03,
13974,80,-24,-1005,70,-770,-140,,,,,,,0x03,
13983,79,-23,-1005,140,-770,-70,,,,,,,0x03,
13993,79,-22,-1006,280,-700,-70,,,,,,,0x03,
14002,80,-24,-1004,350,-700,0,,,,,,,0x03,
14012,78,-24,-1006,280,-700,-70,,,,,,,0x03,
14022,79,-25,-1005,350,-700,-70,,,,,,,0x03,
14031,80,-24,-1005,280,-770,-70,,,,,,,0x03,
14041,79,-24,-1006,280,-770,-140,,,,,,,0x03,
14051,79,-24,-1006,280,-770,-140,,,,,,,0x03,
14060,79,-23,-1005,280,-840,-140,,,,,,,0x03,
14070,79,-24,-1005,280,-840,-140,,,,,,,0x03,
14080,79,-24,-1005,350,-770,-140,,,,,,,0x03,
14089,79,-24,-1005,280,-840,-70,,,,,,,0x03,
14099,79,-25,-1005,210,-840,-70,,,,,,,0x03,
14109,79,-25,-1005,210,-910,-140,,,,,,,0x03,
14118,79,-24,-1006,140,-910,-140,,,,,,,0x03,
14128,80,-24,-1003,210,-840,-70,,,,,,,0x03,
14137,78,-23,-1006,140,-840,-70,,,,,,,0x03,
14147,80,-24,-1005,140,-770,-70,,,,,,,0x03,
14157,78,-24,-1005,140,-770,-70,,,,,,,0x03,
14166,78,-24,-1005,140,-770,-70,,,,,,,0x03,
14176,79,-24,-1005,0,-770,-140,,,,,,,0x03,
14186,79,-23,-1006,0,-770,-70,,,,,,,0x03,
14195,79,-24,-1005,0,-770,0,,,,,,,0x03,
14205,79,-24,-1006,70,-770,-70,,,,,,,0x03,
14215,78,-24,-1006,70,-700,-70,,,,,,,0x03,
14224,80,-24,-1005,70,-700,-70,,,,,,,0x03,
14234,79,-24,-1005,0,-770,-70,,,,,,,0x03,
14244,78,-25,-1006,0,-770,-70,,,,,,,0x03,
14253,79,-25,-1005,0,-770,-70,,,,,,,0x03,
14263,79,-24,-1005,-70,-770,-70,,,,,,,0x03,
14272,79,-25,-1006,-70,-770,0,,,,,,,0x03,
14282,78,-24,-1005,-70,-770,-70,,,,,,,0x03,
14292,80,-24,-1005,0,-700,-70,,,,,,,0x03,
14301,79,-24,-1005,-70,-770,-70,,,,,,,0x03,
14311,79,-24,-1005,0,-770,-70,,,,,,,0x03,
14321,80,-25,-1005,0,-700,0,,,,,,,0x03,
14330,79,-25,-1005,0,-700,-70,,,,,,,0x03,
14340,78,-26,-1006,0,-700,-70,,,,,,,0x03,
14350,79,-25,-1005,0,-700,-70,,,,,,,0x03,
14359,79,-24,-1005,0,-700,-70,,,,,,,0x03,
14369,79,-24,-1006,0,-700,0,,,,,,,0x03,
14379,77,-24,-1005,0,-700,0,,,,,,,0x03,
14388,79,-25,-1005,-70,-770,-70,,,,,,,0x03,
14398,79,-24,-1004,0,-700,-70,,,,,,,0x03,
14407,78,-25,-1005,0,-630,0,,,,,,,0x03,
14417,79,-24,-1005,0,-630,0,,,,,,,0x03,
14427,79,-24,-1005,0,-700,0,,,,,,,0x03,
14436,80,-24,-1006,70,-700,0,,,,,,,0x03,
14446,79,-23,-1005,70,-700,0,,,,,,,0x03,
14456,78,-24,-1005,0,-700,-70,,,,,,,0x03,
14465,79,-24,-1006,0,-700,0,,,,,,,0x03,
14475,79,-24,-1005,0,-700,0,,,,,,,0x03,
14485,79,-24,-1005,0,-700,0,,,,,,,0x03,
14494,79,-24,-1005,0,-700,0,,,,,,,0x03,
14504,78,-25,-1006,0,-770,0,,,,,,,0x03,
14514,78,-24,-1004,0,-770,0,,,,,,,0x03,
14523,78,-24,-1005,0,-770,-70,,,,,,,0x03,
14533,79,-23,-1006,0,-770,0,,,,,,,0x03,
14542,77,-24,-1005,70,-770,-70,,,,,,,0x03,
14552,79,-24,-1006,70,-700,-70,,,,,,,0x03,
14562,79,-24,-1006,70,-770,0,,,,,,,0x03,
14571,79,-24,-1004,210,-700,0,,,,,,,0x03,
14581,80,-24,-1006,210,-630,0,,,,,,,0x03,
14591,80,-25,-1005,210,-630,0,,,,,,,0x03,
14600,79,-25,-1005,210,-630,0,,,,,,,0x03,
14610,80,-25,-1007,70,-770,0,,,,,,,0x03,
14620,79,-24,-1005,70,-700,0,,,,,,,0x03,
14629,79,-25,-1006,0,-770,-70,,,,,,,0x03,
14639,78,-24,-1005,-70,-770,0,,,,,,,0x03,
14649,78,-24,-1005,0,-700,-70,,,,,,,0x03,
14658,78,-24,-1005,0,-770,-70,,,,,,,0x03,
14668,78,-25,-1005,0,-700,-70,,,,,,,0x03,
14677,79,-24,-1006,0,-770,-70,,,,,,,0x03,
14687,78,-24,-1006,0,-770,-70,,,,,,,0x03,
14697,79,-24,-1005,70,-700,-70,,,,,,,0x03,
14706,78,-25,-1005,70,-700,0,,,,,,,0x03,
14716,79,-25,-1005,70,-700,-70,,,,,,,0x03,
14726,79,-25,-1005,0,-770,-70,,,,,,,0x03,
14735,78,-24,-1005,0,-770,-70,,,,,,,0x03,
14745,79,-24,-1005,0,-700,-70,,,,,,,0x03,
14755,78,-25,-1005,0,-700,-70,,,,,,,0x03,
14764,79,-24,-1006,0,-700,-70,,,,,,,0x03,
14774,78,-24,-1005,0,-770,-70,,,,,,,0x03,
14784,80,-24,-1006,0,-770,-70,,,,,,,0x03,
14793,79,-25,-1005,-70,-840,-70,,,,,,,0x03,
14803,80,-25,-1006,-70,-840,-70,,,,,,,0x03,
14812,78,-24,-1004,-70,-770,-70,,,,,,,0x03,
14822,79,-24,-1006,-70,-840,-70,,,,,,,0x03,
14832,79,-24,-1007,70,-770,-70,,,,,,,0x03,
14841,79,-25,-1004,0,-770,-70,,,,,,,0x03,
14851,79,-25,-1006,70,-770,-70,,,,,,,0x03,
14861,79,-25,-1005,0,-700,-70,,,,,,,0x03,
14870,79,-25,-1006,70,-700,0,,,,,,,0x03,
14880,79,-25,-1006,0,-700,0,,,,,,,0x03,
14890,79,-24,-1006,70,-700,0,,,,,,,0x03,
