#Format version: 1.0
time[ms],accX[mg],accY[mg],accZ[mg],gyroX[mdps],gyroY[mdps],gyroZ[mdps],magnX[mG],magnY[mG],magnZ[mG],press[hPa],temp[°C],hum[0,-78,-244,970,-280,-700,-210,,,,,,,0x03,
10,-79,-243,971,-210,-700,-140,,,,,,,0x03,
19,-80,-244,971,-140,-700,-140,,,,,,,0x03,
29,-78,-244,971,-140,-700,-140,,,,,,,0x03,
39,-78,-243,969,0,-700,-140,,,,,,,0x03,
48,-79,-243,973,70,-630,-140,,,,,,,0x03,
58,-80,-244,970,0,-770,-140,,,,,,,0x03,
67,-77,-242,970,210,-700,-140,,,,,,,0x03,
77,-79,-243,971,0,-630,-140,,,,,,,0x03,
87,-79,-243,971,0,-700,-210,,,,,,,0x03,
96,-79,-242,971,140,-700,-140,,,,,,,0x03,
106,-78,-241,972,140,-770,-70,,,,,,,0x03,
116,-78,-240,970,140,-700,-140,,,,,,,0x03,
125,-80,-241,970,-70,-700,-140,,,,,,,0x03,
135,-78,-240,970,-140,-770,-140,,,,,,,0x03,
145,-77,-238,970,-210,-770,-140,,,,,,,0x03,
154,-79,-239,968,-350,-770,0,,,,,,,0x03,
164,-77,-233,968,-280,-700,-140,,,,,,,0x03,
173,-77,-225,973,-1120,-560,-140,,,,,,,0x03,
183,-81,-235,974,-1960,-770,140,,,,,,,0x03,
193,-79,-235,975,-1960,-840,140,,,,,,,0x03,
202,-80,-240,974,-2100,-630,140,,,,,,,0x03,
212,-79,-243,973,-2100,-700,0,,,,,,,0x03,
222,-78,-247,971,-2100,-560,-140,,,,,,,0x03,
231,-78,-252,968,-2310,-630,-210,,,,,,,0x03,
241,-79,-257,969,-2170,-560,-280,,,,,,,0x03,
251,-81,-259,968,-1610,-630,-350,,,,,,,0x03,
260,-80,-256,968,-980,-630,-490,,,,,,,0x03,
270,-80,-250,969,-420,-560,-560,,,,,,,0x03,
279,-80,-246,970,-210,-560,-420,,,,,,,0x03,
289,-79,-245,971,-140,-560,-280,,,,,,,0x03,
299,-78,-246,970,0,-630,-280,,,,,,,0x03,
308,-79,-247,969,70,-630,-280,,,,,,,0x03,
318,-78,-246,968,210,-630,-210,,,,,,,0x03,
328,-78,-244,969,280,-630,-210,,,,,,,0x03,
337,-78,-244,970,140,-700,-140,,,,,,,0x03,
347,-79,-243,969,140,-700,-140,,,,,,,0x03,
357,-80,-243,970,70,-700,-140,,,,,,,0x03,
366,-78,-243,971,70,-700,-70,,,,,,,0x03,
376,-79,-243,971,0,-700,-140,,,,,,,0x03,
386,-78,-245,971,0,-770,-70,,,,,,,0x03,
395,-79,-244,971,-140,-700,-140,,,,,,,0x03,
405,-80,-244,970,-210,-630,-140,,,,,,,0x03,
414,-79,-244,970,-210,-700,-140,,,,,,,0x03,
424,-79,-244,970,-280,-700,-140,,,,,,,0x03,
434,-79,-244,971,-350,-770,-140,,,,,,,0x03,
443,-80,-245,970,-420,-770,-140,,,,,,,0x03,
453,-79,-245,969,-420,-700,-140,,,,,,,0x03,
463,-79,-245,969,-350,-700,-140,,,,,,,0x03,
472,-79,-245,969,-490,-770,-210,,,,,,,0x03,
482,-79,-245,968,-420,-770,-210,,,,,,,0x03,
492,-76,-239,970,-420,-700,-210,,,,,,,0x03,
501,-79,-237,973,-980,-630,-210,,,,,,,0x03,
511,-79,-243,973,-1260,-770,0,,,,,,,0x03,
520,-78,-242,972,-1120,-770,70,,,,,,,0x03,
530,-77,-245,972,-1190,-630,70,,,,,,,0x03,
540,-78,-248,970,-1330,-630,140,,,,,,,0x03,
549,-78,-250,970,-1330,-630,70,,,,,,,0x03,
559,-80,-253,970,-1330,-630,70,,,,,,,0x03,
569,-81,-254,969,-910,-700,0,,,,,,,0x03,
578,-81,-254,970,-350,-630,-140,,,,,,,0x03,
588,-81,-252,967,-70,-630,-140,,,,,,,0x03,
598,-82,-249,968,140,-560,-210,,,,,,,0x03,
607,-82,-250,970,210,-700,-280,,,,,,,0x03,
617,-79,-247,968,420,-700,-280,,,,,,,0x03,
626,-78,-242,970,630,-700,-280,,,,,,,0x03,
636,-77,-240,970,350,-700,-210,,,,,,,0x03,
646,-78,-241,972,70,-700,-140,,,,,,,0x03,
655,-78,-242,972,-70,-700,-70,,,,,,,0x03,
665,-77,-242,970,0,-770,-70,,,,,,,0x03,
675,-78,-245,970,-210,-630,0,,,,,,,0x03,
684,-79,-247,970,-350,-630,0,,,,,,,0x03,
694,-79,-248,968,-280,-700,-70,,,,,,,0x03,
704,-79,-247,968,-210,-630,-70,,,,,,,0x03,
713,-79,-248,969,-280,-630,-140,,,,,,,0x03,
723,-79,-247,968,-210,-700,-140,,,,,,,0x03,
732,-78,-246,971,-140,-700,-140,,,,,,,0x03,
742,-79,-246,971,-140,-630,-140,,,,,,,0x03,
752,-79,-246,970,-70,-700,-70,,,,,,,0x03,
761,-79,-244,970,-70,-630,-70,,,,,,,0x03,
771,-80,-245,971,-210,-630,0,,,,,,,0x03,
781,-81,-246,969,-210,-700,-70,,,,,,,0x03,
790,-80,-245,970,-140,-700,-140,,,,,,,0x03,
800,-81,-245,970,-140,-700,-70,,,,,,,0x03,
810,-80,-248,970,-140,-770,-140,,,,,,,0x03,
819,-78,-247,970,-70,-700,-70,,,,,,,0x03,
829,-79,-248,969,0,-770,-70,,,,,,,0x03,
838,-81,-248,970,140,-700,-70,,,,,,,0x03,
848,-82,-247,970,70,-700,-140,,,,,,,0x03,
858,-81,-247,969,280,-770,-210,,,,,,,0x03,
867,-78,-244,969,350,-700,-350,,,,,,,0x03,
877,-78,-243,970,140,-700,-420,,,,,,,0x03,
887,-77,-243,969,70,-700,-420,,,,,,,0x03,
896,-76,-240,970,-70,-630,-350,,,,,,,0x03,
906,-76,-241,970,-350,-700,-210,,,,,,,0x03,
916,-76,-240,971,-560,-630,-70,,,,,,,0x03,
925,-76,-241,972,-840,-560,0,,,,,,,0x03,
935,-78,-244,971,-980,-630,140,,,,,,,0x03,
945,-79,-247,969,-1050,-630,70,,,,,,,0x03,
954,-80,-249,968,-1050,-560,70,,,,,,,0x03,
964,-79,-248,968,-1120,-490,-70,,,,,,,0x03,
973,-81,-247,970,-1190,-560,-70,,,,,,,0x03,
983,-81,-247,970,-910,-560,0,,,,,,,0x03,
993,-80,-248,969,-630,-560,0,,,,,,,0x03,
1002,-80,-248,969,-700,-560,-70,,,,,,,0x03,
1012,-81,-250,969,-700,-630,-140,,,,,,,0x03,
1022,-81,-250,969,-560,-700,-140,,,,,,,0x03,
1031,-80,-252,968,-350,-700,-140,,,,,,,0x03,
1041,-79,-251,969,-70,-700,-70,,,,,,,0x03,
1051,-81,-251,969,70,-700,-140,,,,,,,0x03,
1060,-80,-251,970,210,-700,-140,,,,,,,0x03,
1070,-78,-250,969,350,-770,-140,,,,,,,0x03,
1079,-79,-249,968,490,-700,-140,,,,,,,0x03,
1089,-80,-248,969,490,-700,-140,,,,,,,0x03,
1099,-79,-246,969,560,-700,-210,,,,,,,0x03,
1108,-78,-244,969,630,-700,-210,,,,,,,0x03,
1118,-78,-243,971,420,-700,-210,,,,,,,0x03,
1128,-78,-243,970,210,-700,-210,,,,,,,0x03,
1137,-78,-241,970,140,-700,-210,,,,,,,0x03,
1147,-80,-243,971,0,-700,-140,,,,,,,0x03,
1157,-80,-244,972,-210,-770,-70,,,,,,,0x03,
1166,-78,-245,971,-140,-770,-70,,,,,,,0x03,
1176,-78,-245,970,-210,-630,0,,,,,,,0x03,
1185,-78,-248,970,-420,-630,0,,,,,,,0x03,
1195,-80,-250,969,-420,-700,0,,,,,,,0x03,
1205,-78,-250,969,-210,-630,0,,,,,,,0x03,
1214,-79,-250,969,-140,-630,0,,,,,,,0x03,
1224,-81,-250,969,0,-630,-70,,,,,,,0x03,
1234,-80,-248,969,140,-700,-140,,,,,,,0x03,
1243,-79,-247,970,140,-630,-210,,,,,,,0x03,
1253,-80,-246,970,140,-700,-210,,,,,,,0x03,
1263,-79,-245,972,280,-630,-210,,,,,,,0x03,
1272,-81,-246,972,350,-630,-210,,,,,,,0x03,
1282,-79,-249,970,490,-700,-210,,,,,,,0x03,
1291,-78,-247,969,420,-630,-280,,,,,,,0x03,
1301,-81,-247,968,280,-630,-210,,,,,,,0x03,
1311,-81,-247,968,210,-700,-210,,,,,,,0x03,
1320,-80,-244,969,210,-630,-210,,,,,,,0x03,
1330,-78,-243,969,280,-700,-140,,,,,,,0x03,
1340,-79,-241,970,280,-700,-70,,,,,,,0x03,
1349,-80,-241,971,0,-630,-70,,,,,,,0x03,
1359,-79,-243,970,-140,-700,0,,,,,,,0x03,
1369,-78,-244,970,-140,-770,-70,,,,,,,0x03,
1378,-79,-246,969,-210,-770,-70,,,,,,,0x03,
1388,-78,-247,970,-210,-700,-70,,,,,,,0x03,
1397,-80,-246,971,-210,-770,-70,,,,,,,0x03,
1407,-78,-247,970,-70,-770,0,,,,,,,0x03,
1417,-78,-248,970,0,-700,0,,,,,,,0x03,
1426,-80,-249,969,70,-700,0,,,,,,,0x03,
1436,-79,-248,969,140,-700,-70,,,,,,,0x03,
1446,-80,-247,969,210,-700,-140,,,,,,,0x03,
1455,-80,-245,969,280,-770,-210,,,,,,,0x03,
1465,-80,-244,970,280,-700,-140,,,,,,,0x03,
1475,-80,-245,969,210,-700,-140,,,,,,,0x03,
1484,-80,-246,972,210,-700,-70,,,,,,,0x03,
1494,-80,-245,970,210,-700,0,,,,,,,0x03,
1504,-80,-245,970,280,-770,0,,,,,,,0x03,
1513,-80,-245,972,280,-700,0,,,,,,,0x03,
1523,-81,-249,971,210,-770,-70,,,,,,,0x03,
1532,-80,-250,968,560,-770,-210,,,,,,,0x03,
1542,-77,-244,968,770,-630,-280,,,,,,,0x03,
1552,-79,-243,970,490,-630,-350,,,,,,,0x03,
1561,-80,-243,970,210,-700,-350,,,,,,,0x03,
1571,-78,-239,972,140,-700,-280,,,,,,,0x03,
1581,-78,-237,972,70,-630,-210,,,,,,,0x03,
1590,-78,-235,974,-280,-560,-140,,,,,,,0x03,
1600,-78,-236,973,-700,-560,0,,,,,,,0x03,
1610,-79,-240,971,-910,-630,70,,,,,,,0x03,
1619,-79,-244,970,-1050,-630,0,,,,,,,0x03,
1629,-80,-249,969,-1120,-630,0,,,,,,,0x03,
1638,-81,-251,969,-910,-700,-140,,,,,,,0x03,
1648,-82,-253,970,-700,-630,-210,,,,,,,0x03,
1658,-81,-253,969,-420,-700,-210,,,,,,,0x03,
1667,-80,-251,970,0,-700,-280,,,,,,,0x03,
1677,-79,-249,971,280,-700,-280,,,,,,,0x03,
1687,-79,-249,969,490,-700,-350,,,,,,,0x03,
1696,-79,-248,971,630,-700,-350,,,,,,,0x03,
1706,-81,-250,973,770,-770,-420,,,,,,,0x03,
1716,-80,-255,970,1260,-840,-280,,,,,,,0x03,
1725,-80,-254,967,1960,-840,-350,,,,,,,0x03,
1735,-76,-253,967,2310,-700,-350,,,,,,,0x03,
1744,-84,-251,968,2590,-630,-350,,,,,,,0x03,
1754,-80,-248,968,2660,-840,-490,,,,,,,0x03,
1764,-78,-244,969,2870,-840,-420,,,,,,,0x03,
1773,-78,-238,971,3010,-840,-420,,,,,,,0x03,
1783,-78,-232,972,2800,-840,-350,,,,,,,0x03,
1793,-77,-230,973,2310,-840,-280,,,,,,,0x03,
1802,-76,-230,972,1960,-840,-210,,,,,,,0x03,
1812,-78,-229,970,1540,-840,-210,,,,,,,0x03,
1822,-78,-228,971,840,-700,-140,,,,,,,0x03,
1831,-79,-229,971,280,-700,-70,,,,,,,0x03,
1841,-79,-230,972,-140,-770,0,,,,,,,0x03,
1850,-78,-230,972,-560,-700,70,,,,,,,0x03,
1860,-79,-232,972,-1190,-700,70,,,,,,,0x03,
1870,-80,-235,972,-1540,-700,70,,,,,,,0x03,
1879,-78,-237,971,-1750,-630,70,,,,,,,0x03,
1889,-79,-238,972,-1960,-630,0,,,,,,,0x03,
1899,-79,-241,972,-1960,-700,-70,,,,,,,0x03,
1908,-80,-244,971,-1820,-700,-70,,,,,,,0x03,
1918,-81,-245,971,-1820,-630,-210,,,,,,,0x03,
1928,-80,-248,970,-1610,-630,-210,,,,,,,0x03,
1937,-80,-248,968,-1330,-630,-280,,,,,,,0x03,
1947,-80,-244,970,-1330,-560,-280,,,,,,,0x03,
1956,-80,-244,971,-1260,-700,-210,,,,,,,0x03,
1966,-79,-244,972,-1120,-700,-210,,,,,,,0x03,
1976,-78,-245,971,-840,-700,-140,,,,,,,0x03,
1985,-78,-246,970,-700,-700,-140,,,,,,,0x03,
1995,-79,-245,968,-630,-700,-140,,,,,,,0x03,
2005,-78,-242,968,-700,-700,-210,,,,,,,0x03,
2014,-76,-242,973,-980,-700,-70,,,,,,,0x03,
2024,-78,-244,973,-1050,-770,0,,,,,,,0x03,
2034,-79,-242,972,-420,-770,0,,,,,,,0x03,
2043,-80,-243,971,-490,-630,0,,,,,,,0x03,
2053,-80,-246,971,-770,-700,0,,,,,,,0x03,
2063,-80,-249,970,-700,-770,-70,,,,,,,0x03,
2072,-78,-251,970,-280,-770,-70,,,,,,,0x03,
2082,-79,-248,969,70,-770,-210,,,,,,,0x03,
2091,-80,-247,970,140,-700,-210,,,,,,,0x03,
2101,-78,-245,970,70,-700,-140,,,,,,,0x03,
2111,-78,-243,970,70,-700,-210,,,,,,,0x03,
2120,-80,-244,971,70,-700,-140,,,,,,,0x03,
2130,-79,-242,970,210,-770,-140,,,,,,,0x03,
2140,-79,-241,971,280,-770,-140,,,,,,,0x03,
2149,-78,-241,970,70,-770,0,,,,,,,0x03,
2159,-80,-243,970,-70,-770,70,,,,,,,0x03,
2169,-79,-243,971,-70,-770,70,,,,,,,0x03,
2178,-80,-244,970,-70,-770,70,,,,,,,0x03,
2188,-80,-244,970,-70,-770,0,,,,,,,0x03,
2197,-80,-243,972,-210,-700,0,,,,,,,0x03,
2207,-79,-243,972,-280,-700,-140,,,,,,,0x03,
2217,-79,-243,971,-210,-770,-280,,,,,,,0x03,
2226,-79,-243,970,-280,-630,-280,,,,,,,0x03,
2236,-78,-242,971,-350,-630,-350,,,,,,,0x03,
2246,-78,-241,972,-420,-630,-350,,,,,,,0x03,
2255,-79,-241,970,-350,-630,-350,,,,,,,0x03,
2265,-77,-242,971,-560,-630,-280,,,,,,,0x03,
2275,-79,-242,971,-770,-560,-280,,,,,,,0x03,
2284,-79,-243,970,-770,-630,-280,,,,,,,0x03,
2294,-79,-243,969,-770,-630,-280,,,,,,,0x03,
2303,-79,-245,970,-980,-630,-210,,,,,,,0x03,
2313,-81,-247,968,-910,-630,-210,,,,,,,0x03,
2323,-81,-249,969,-630,-700,-210,,,,,,,0x03,
2332,-80,-248,969,-560,-700,-210,,,,,,,0x03,
2342,-80,-248,968,-350,-700,-210,,,,,,,0x03,
2352,-79,-245,970,-280,-630,-210,,,,,,,0x03,
2361,-79,-246,971,-350,-700,-210,,,,,,,0x03,
2371,-80,-244,970,-280,-700,-280,,,,,,,0x03,
2381,-79,-239,970,-280,-700,-280,,,,,,,0x03,
2390,-78,-235,971,-630,-630,-280,,,,,,,0x03,
2400,-79,-239,972,-1120,-630,-140,,,,,,,0x03,
2409,-80,-240,972,-1400,-770,-70,,,,,,,0x03,
2419,-78,-245,971,-1190,-700,0,,,,,,,0x03,
2429,-78,-247,970,-1050,-700,0,,,,,,,0x03,
2438,-80,-248,969,-1190,-630,-70,,,,,,,0x03,
2448,-80,-252,969,-1260,-700,-140,,,,,,,0x03,
2458,-79,-254,969,-1050,-770,-210,,,,,,,0x03,
2467,-79,-251,970,-700,-770,-210,,,,,,,0x03,
2477,-79,-251,969,-350,-700,-280,,,,,,,0x03,
2487,-80,-250,968,-140,-700,-350,,,,,,,0x03,
2496,-78,-250,971,0,-420,-560,,,,,,,0x03,
2506,-81,-253,971,700,-560,-560,,,,,,,0x03,
2515,-77,-222,971,980,-700,-350,,,,,,,0x03,
2525,-77,-244,969,-1050,-490,70,,,,,,,0x03,
2535,-77,-248,966,-1400,-700,-70,,,,,,,0x03,
2544,-78,-242,970,-840,-630,-210,,,,,,,0x03,
2554,-80,-240,972,-770,-630,-70,,,,,,,0x03,
2564,-78,-238,971,-1120,-770,0,,,,,,,0x03,
2573,-78,-243,971,-1540,-700,140,,,,,,,0x03,
2583,-79,-248,970,-1610,-700,140,,,,,,,0x03,
2593,-80,-252,968,-1330,-700,0,,,,,,,0x03,
2602,-79,-251,968,-1260,-700,0,,,,,,,0x03,
2612,-80,-254,969,-1260,-700,-70,,,,,,,0x03,
2622,-81,-256,968,-980,-700,-140,,,,,,,0x03,
2631,-80,-253,968,-490,-700,-210,,,,,,,0x03,
2641,-80,-251,967,-210,-630,-210,,,,,,,0x03,
2650,-80,-247,969,-280,-630,-210,,,,,,,0x03,
2660,-80,-245,971,-420,-700,-210,,,,,,,0x03,
2670,-79,-246,969,-280,-840,-140,,,,,,,0x03,
2679,-76,-245,970,-140,-770,-140,,,,,,,0x03,
2689,-79,-245,969,-350,-700,-70,,,,,,,0x03,
2699,-80,-247,969,-560,-700,-70,,,,,,,0x03,
2708,-79,-247,969,-560,-770,-140,,,,,,,0x03,
2718,-79,-247,968,-560,-770,-140,,,,,,,0x03,
2728,-79,-247,968,-630,-700,-140,,,,,,,0x03,
2737,-77,-244,968,-770,-700,-210,,,,,,,0x03,
2747,-79,-242,970,-1190,-700,-140,,,,,,,0x03,
2756,-78,-241,971,-1470,-700,-70,,,,,,,0x03,
2766,-79,-243,971,-1540,-770,0,,,,,,,0x03,
2776,-78,-244,973,-1680,-770,0,,,,,,,0x03,
2785,-79,-249,970,-1680,-770,0,,,,,,,0x03,
2795,-80,-255,969,-1680,-770,0,,,,,,,0x03,
2805,-79,-259,968,-1540,-770,-70,,,,,,,0x03,
2814,-81,-262,968,-1260,-770,-140,,,,,,,0x03,
2824,-81,-261,968,-700,-700,-140,,,,,,,0x03,
2834,-80,-259,969,-210,-700,-140,,,,,,,0x03,
2843,-80,-256,967,210,-770,-280,,,,,,,0x03,
2853,-79,-253,968,420,-770,-350,,,,,,,0x03,
2862,-81,-253,969,490,-700,-350,,,,,,,0x03,
2872,-80,-250,969,630,-770,-350,,,,,,,0x03,
2882,-78,-247,968,700,-700,-350,,,,,,,0x03,
2891,-77,-245,971,420,-700,-280,,,,,,,0x03,
2901,-78,-245,971,210,-700,-210,,,,,,,0x03,
2911,-79,-244,969,0,-700,-210,,,,,,,0x03,
2920,-77,-245,969,-210,-630,-140,,,,,,,0x03,
2930,-77,-246,969,-420,-630,-70,,,,,,,0x03,
2940,-78,-247,969,-490,-630,-70,,,,,,,0x03,
2949,-80,-247,969,-490,-630,-140,,,,,,,0x03,
2959,-79,-247,970,-700,-700,-140,,,,,,,0x03,
2968,-78,-250,970,-770,-700,-140,,,,,,,0x03,
2978,-78,-251,969,-700,-700,-140,,,,,,,0x03,
2988,-79,-252,970,-560,-630,-140,,,,,,,0x03,
2997,-78,-251,969,-490,-700,-140,,,,,,,0x03,
3007,-79,-252,968,-420,-700,-140,,,,,,,0x03,
3017,-79,-254,968,-350,-700,-140,,,,,,,0x03,
3026,-78,-254,969,-140,-700,-140,,,,,,,0x03,
3036,-79,-252,969,0,-770,-210,,,,,,,0x03,
3046,-80,-250,969,70,-700,-140,,,,,,,0x03,
3055,-80,-251,969,70,-700,-140,,,,,,,0x03,
3065,-78,-250,970,70,-700,-210,,,,,,,0x03,
3074,-79,-250,969,70,-700,-140,,,,,,,0x03,
3084,-79,-250,970,70,-770,-70,,,,,,,0x03,
3094,-79,-250,968,140,-770,-70,,,,,,,0x03,
3103,-80,-251,969,140,-700,0,,,,,,,0x03,
3113,-80,-251,968,210,-770,0,,,,,,,0x03,
3123,-78,-251,966,350,-770,-70,,,,,,,0x03,
3132,-79,-250,968,350,-770,-70,,,,,,,0x03,
3142,-79,-249,968,350,-770,-70,,,,,,,0x03,
3152,-79,-248,969,350,-770,-140,,,,,,,0x03,
3161,-79,-246,970,280,-770,-140,,,,,,,0x03,
3171,-77,-245,970,0,-770,-70,,,,,,,0x03,
3181,-78,-245,970,-140,-770,-70,,,,,,,0x03,
3190,-77,-246,970,-210,-770,-140,,,,,,,0x03,
3200,-79,-248,971,-490,-700,-70,,,,,,,0x03,
3209,-78,-250,969,-700,-700,-70,,,,,,,0x03,
3219,-79,-250,970,-630,-700,-70,,,,,,,0x03,
3229,-79,-251,969,-490,-700,-70,,,,,,,0x03,
3238,-79,-251,968,-490,-700,-70,,,,,,,0x03,
3248,-78,-252,969,-490,-700,-140,,,,,,,0x03,
3258,-79,-253,969,-420,-700,-140,,,,,,,0x03,
3267,-80,-251,968,-140,-700,-210,,,,,,,0x03,
3277,-79,-251,968,0,-700,-140,,,,,,,0x03,
3287,-78,-248,968,-70,-630,-210,,,,,,,0x03,
3296,-80,-249,969,-280,-770,-140,,,,,,,0x03,
3306,-79,-250,969,-280,-700,-140,,,,,,,0x03,
3315,-78,-250,970,-140,-700,-70,,,,,,,0x03,
3325,-79,-249,968,-140,-700,-70,,,,,,,0x03,
3335,-78,-249,969,-280,-700,-70,,,,,,,0x03,
3344,-79,-249,969,-350,-700,-140,,,,,,,0x03,
3354,-80,-250,969,-350,-700,-140,,,,,,,0x03,
3364,-78,-250,969,-350,-700,-140,,,,,,,0x03,
3373,-80,-250,970,-280,-700,-140,,,,,,,0x03,
3383,-79,-251,968,-350,-700,-210,,,,,,,0x03,
3393,-78,-251,968,-280,-700,-140,,,,,,,0x03,
3402,-80,-251,969,-210,-700,-140,,,,,,,0x03,
3412,-79,-251,968,-70,-630,-210,,,,,,,0x03,
3421,-79,-250,969,-140,-700,-280,,,,,,,0x03,
3431,-80,-250,969,-210,-700,-280,,,,,,,0x03,
3441,-79,-249,968,-280,-700,-280,,,,,,,0x03,
3450,-79,-248,969,-210,-700,-210,,,,,,,0x03,
3460,-78,-246,969,-210,-770,-210,,,,,,,0x03,
3470,-78,-247,968,-420,-700,-210,,,,,,,0x03,
3479,-80,-249,970,-630,-700,-210,,,,,,,0x03,
3489,-80,-250,970,-630,-700,-140,,,,,,,0x03,
3499,-78,-250,970,-630,-770,-140,,,,,,,0x03,
3508,-77,-250,970,-560,-770,-70,,,,,,,0x03,
3518,-77,-250,966,-490,-770,-70,,,,,,,0x03,
3527,-78,-252,968,-560,-700,-140,,,,,,,0x03,
3537,-80,-256,969,-560,-770,-140,,,,,,,0x03,
3547,-81,-255,967,-350,-840,-210,,,,,,,0x03,
3556,-79,-253,969,-70,-700,-280,,,,,,,0x03,
3566,-80,-252,969,-140,-630,-350,,,,,,,0x03,
3576,-78,-251,968,0,-700,-420,,,,,,,0x03,
3585,-76,-248,968,0,-700,-420,,,,,,,0x03,
3595,-77,-248,970,-350,-630,-350,,,,,,,0x03,
3605,-76,-248,969,-350,-630,-210,,,,,,,0x03,
3614,-76,-246,970,-280,-630,-140,,,,,,,0x03,
3624,-79,-249,970,-560,-630,0,,,,,,,0x03,
3633,-77,-250,969,-630,-630,0,,,,,,,0x03,
3643,-79,-252,969,-840,-630,0,,,,,,,0x03,
3653,-80,-255,969,-840,-630,0,,,,,,,0x03,
3662,-80,-258,968,-560,-630,-70,,,,,,,0x03,
3672,-80,-256,968,-210,-630,-140,,,,,,,0x03,
3682,-81,-255,967,-140,-630,-210,,,,,,,0x03,
3691,-80,-253,967,70,-700,-280,,,,,,,0x03,
3701,-80,-251,968,210,-700,-350,,,,,,,0x03,
3711,-79,-250,969,280,-700,-350,,,,,,,0x03,
3720,-79,-248,969,280,-700,-350,,,,,,,0x03,
3730,-77,-247,970,280,-770,-280,,,,,,,0x03,
3740,-78,-246,970,70,-770,-280,,,,,,,0x03,
3749,-78,-247,970,-70,-700,-210,,,,,,,0x03,
3759,-78,-250,969,-210,-630,-210,,,,,,,0x03,
3768,-77,-251,968,-210,-700,-140,,,,,,,0x03,
3778,-79,-252,969,-350,-630,-140,,,,,,,0x03,
3788,-79,-254,968,-280,-700,-140,,,,,,,0x03,
3797,-78,-253,968,-70,-700,-210,,,,,,,0x03,
3807,-78,-253,968,-70,-630,-210,,,,,,,0x03,
3817,-78,-254,968,-70,-700,-210,,,,,,,0x03,
3826,-78,-252,967,140,-700,-280,,,,,,,0x03,
3836,-77,-251,969,70,-630,-280,,,,,,,0x03,
3846,-78,-251,970,0,-630,-280,,,,,,,0x03,
3855,-78,-250,970,70,-630,-210,,,,,,,0x03,
3865,-77,-248,969,0,-630,-210,,,,,,,0x03,
3874,-79,-247,970,-140,-630,-210,,,,,,,0x03,
3884,-78,-249,968,-350,-630,-140,,,,,,,0x03,
3894,-78,-248,968,-490,-700,-70,,,,,,,0x03,
3903,-78,-249,969,-490,-700,-70,,,,,,,0x03,
3913,-79,-250,969,-420,-700,-70,,,,,,,0x03,
3923,-78,-251,968,-350,-700,-70,,,,,,,0x03,
3932,-79,-254,969,-420,-700,-70,,,,,,,0x03,
3942,-78,-254,969,-280,-700,-140,,,,,,,0x03,
3952,-79,-254,968,-140,-700,-140,,,,,,,0x03,
3961,-78,-254,968,0,-630,-210,,,,,,,0x03,
3971,-79,-252,967,70,-630,-210,,,,,,,0x03,
3980,-79,-250,968,70,-630,-210,,,,,,,0x03,
3990,-78,-248,968,0,-630,-140,,,,,,,0x03,
4000,-77,-249,969,70,-700,-70,,,,,,,0x03,
4009,-77,-248,969,70,-700,-70,,,,,,,0x03,
4019,-78,-250,969,0,-630,0,,,,,,,0x03,
4029,-78,-251,968,-70,-700,0,,,,,,,0x03,
4038,-77,-252,968,-70,-700,70,,,,,,,0x03,
4048,-79,-254,968,0,-700,70,,,,,,,0x03,
4058,-78,-252,967,140,-700,70,,,,,,,0x03,
4067,-78,-252,968,70,-630,0,,,,,,,0x03,
4077,-80,-252,968,0,-700,0,,,,,,,0x03,
4086,-80,-252,969,140,-700,0,,,,,,,0x03,
4096,-80,-253,970,350,-700,0,,,,,,,0x03,
4106,-78,-252,970,350,-700,0,,,,,,,0x03,
4115,-78,-250,969,350,-630,-70,,,,,,,0x03,
4125,-78,-249,969,420,-630,-70,,,,,,,0x03,
4135,-78,-249,967,350,-630,-70,,,,,,,0x03,
4144,-79,-248,968,140,-630,-140,,,,,,,0x03,
4154,-79,-248,969,-70,-700,-140,,,,,,,0x03,
4164,-79,-246,969,-140,-770,-70,,,,,,,0x03,
4173,-78,-246,970,-70,-770,0,,,,,,,0x03,
4183,-79,-248,971,-280,-700,70,,,,,,,0x03,
4192,-79,-252,970,-350,-700,70,,,,,,,0x03,
4202,-79,-251,968,-210,-700,0,,,,,,,0x03,
4212,-80,-253,968,-70,-700,-70,,,,,,,0x03,
4221,-80,-253,969,-70,-700,-140,,,,,,,0x03,
4231,-79,-252,970,0,-700,-280,,,,,,,0x03,
4241,-78,-250,969,0,-630,-350,,,,,,,0x03,
4250,-77,-248,968,0,-630,-350,,,,,,,0x03,
4260,-77,-247,969,-140,-700,-280,,,,,,,0x03,
4270,-77,-247,969,-280,-630,-210,,,,,,,0x03,
4279,-77,-247,971,-420,-630,-140,,,,,,,0x03,
4289,-78,-248,970,-490,-630,0,,,,,,,0x03,
4299,-79,-249,969,-630,-560,0,,,,,,,0x03,
4308,-80,-251,969,-840,-490,70,,,,,,,0x03,
4318,-82,-254,968,-700,-560,0,,,,,,,0x03,
4327,-81,-254,968,-490,-560,-70,,,,,,,0x03,
4337,-82,-256,968,-280,-560,-140,,,,,,,0x03,
4347,-81,-254,967,-70,-630,-140,,,,,,,0x03,
4356,-81,-253,967,70,-630,-210,,,,,,,0x03,
4366,-80,-252,968,70,-700,-280,,,,,,,0x03,
4376,-81,-252,969,210,-700,-280,,,,,,,0x03,
4385,-80,-249,969,280,-770,-280,,,,,,,0x03,
4395,-78,-248,968,350,-700,-210,,,,,,,0x03,
4405,-78,-248,968,280,-630,-140,,,,,,,0x03,
4414,-79,-249,969,0,-630,-140,,,,,,,0x03,
4424,-79,-251,968,-70,-700,-140,,,,,,,0x03,
4433,-77,-250,968,-70,-700,-140,,,,,,,0x03,
4443,-78,-250,969,-70,-630,-70,,,,,,,0x03,
4453,-78,-249,969,-140,-700,-140,,,,,,,0x03,
4462,-79,-248,968,-140,-700,-140,,,,,,,0x03,
4472,-77,-250,970,-140,-700,-210,,,,,,,0x03,
4482,-78,-251,969,-210,-700,-140,,,,,,,0x03,
4491,-78,-251,969,-70,-630,-140,,,,,,,0x03,
4501,-78,-252,970,-70,-700,-140,,,,,,,0x03,
4511,-78,-252,968,0,-700,-140,,,,,,,0x03,
4520,-78,-251,968,0,-630,-140,,,,,,,0x03,
4530,-78,-251,969,0,-630,-140,,,,,,,0x03,
4539,-77,-249,968,0,-630,-70,,,,,,,0x03,
4549,-77,-249,967,0,-630,-70,,,,,,,0x03,
4559,-78,-248,967,-140,-630,0,,,,,,,0x03,
4568,-79,-248,968,-210,-700,0,,,,,,,0x03,
4578,-80,-249,970,-280,-770,0,,,,,,,0x03,
4588,-80,-249,970,-350,-700,70,,,,,,,0x03,
4597,-79,-250,969,-280,-700,140,,,,,,,0x03,
4607,-79,-251,968,-210,-700,70,,,,,,,0x03,
4617,-78,-252,968,-280,-630,140,,,,,,,0x03,
4626,-81,-252,969,-350,-630,70,,,,,,,0x03,
4636,-80,-253,970,-280,-630,70,,,,,,,0x03,
4645,-79,-253,970,-70,-630,70,,,,,,,0x03,
4655,-79,-251,968,140,-630,0,,,,,,,0x03,
4665,-79,-251,969,210,-630,-70,,,,,,,0x03,
4674,-79,-251,969,210,-700,-70,,,,,,,0x03,
4684,-79,-251,968,280,-700,-70,,,,,,,0x03,
4694,-80,-250,968,350,-630,0,,,,,,,0x03,
4703,-80,-251,968,350,-700,70,,,,,,,0x03,
4713,-80,-251,968,280,-700,70,,,,,,,0x03,
4723,-78,-250,969,280,-700,0,,,,,,,0x03,
4732,-79,-249,968,210,-630,0,,,,,,,0x03,
4742,-80,-249,969,210,-700,0,,,,,,,0x03,
4751,-78,-249,968,210,-770,70,,,,,,,0x03,
4761,-78,-250,969,140,-770,0,,,,,,,0x03,
4771,-79,-250,968,140,-770,0,,,,,,,0x03,
4780,-77,-250,968,140,-770,70,,,,,,,0x03,
4790,-79,-248,969,140,-770,70,,,,,,,0x03,
4800,-80,-249,969,70,-770,70,,,,,,,0x03,
4809,-81,-249,969,0,-770,0,,,,,,,0x03,
4819,-79,-248,969,-140,-700,0,,,,,,,0x03,
4829,-79,-247,969,-140,-700,0,,,,,,,0x03,
4838,-79,-245,970,-350,-700,0,,,,,,,0x03,
4848,-81,-246,970,-420,-700,70,,,,,,,0x03,
4858,-81,-248,970,-420,-700,0,,,,,,,0x03,
4867,-80,-248,970,-490,-700,-70,,,,,,,0x03,
4877,-81,-250,969,-490,-700,-70,,,,,,,0x03,
4886,-82,-252,968,-420,-770,-210,,,,,,,0x03,
4896,-80,-253,969,-350,-700,-280,,,,,,,0x03,
4906,-79,-253,968,-280,-700,-350,,,,,,,0x03,
4915,-79,-251,968,-210,-700,-420,,,,,,,0x03,
4925,-79,-250,970,-210,-630,-490,,,,,,,0x03,
4935,-78,-250,969,-140,-630,-420,,,,,,,0x03,
4944,-78,-248,969,-140,-630,-420,,,,,,,0x03,
4954,-79,-246,969,-280,-560,-420,,,,,,,0x03,
4964,-78,-246,969,-350,-630,-350,,,,,,,0x03,
4973,-78,-245,969,-420,-630,-350,,,,,,,0x03,
4983,-79,-245,970,-700,-630,-280,,,,,,,0x03,
4992,-79,-248,970,-910,-630,-210,,,,,,,0x03,
5002,-79,-250,969,-840,-630,-210,,,,,,,0x03,
5012,-79,-252,969,-770,-560,-210,,,,,,,0x03,
5021,-78,-252,969,-840,-630,-210,,,,,,,0x03,
5031,-79,-255,967,-560,-630,-210,,,,,,,0x03,
5041,-79,-255,967,-420,-630,-210,,,,,,,0x03,
5050,-80,-255,966,-350,-630,-280,,,,,,,0x03,
5060,-80,-254,967,-280,-700,-350,,,,,,,0x03,
5070,-80,-251,967,-70,-700,-350,,,,,,,0x03,
5079,-80,-248,969,-70,-700,-420,,,,,,,0x03,
5089,-80,-247,970,-70,-700,-350,,,,,,,0x03,
5098,-79,-246,968,-140,-770,-350,,,,,,,0x03,
5108,-79,-245,968,-350,-700,-350,,,,,,,0x03,
5118,-78,-246,970,-840,-700,-280,,,,,,,0x03,
5127,-79,-249,969,-840,-770,-210,,,,,,,0x03,
5137,-77,-250,969,-630,-770,-140,,,,,,,0x03,
5147,-78,-250,969,-840,-700,-140,,,,,,,0x03,
5156,-80,-253,969,-980,-700,-140,,,,,,,0x03,
5166,-79,-254,967,-840,-770,-140,,,,,,,0x03,
5176,-78,-255,967,-630,-770,-140,,,,,,,0x03,
5185,-80,-256,968,-630,-700,-280,,,,,,,0x03,
5195,-80,-253,968,-490,-700,-280,,,,,,,0x03,
5204,-80,-252,968,-280,-770,-280,,,,,,,0x03,
5214,-77,-250,970,-280,-700,-280,,,,,,,0x03,
5224,-78,-252,968,-350,-700,-280,,,,,,,0x03,
5233,-79,-251,969,-280,-700,-210,,,,,,,0x03,
5243,-78,-251,968,-210,-630,-210,,,,,,,0x03,
5253,-78,-252,967,-210,-700,-140,,,,,,,0x03,
5262,-78,-252,967,-280,-700,-140,,,,,,,0x03,
5272,-79,-250,968,-280,-700,-70,,,,,,,0x03,
5282,-80,-251,968,-350,-770,-140,,,,,,,0x03,
5291,-78,-252,969,-280,-770,-70,,,,,,,0x03,
5301,-78,-251,970,-140,-700,-70,,,,,,,0x03,
5310,-78,-252,969,-140,-700,-70,,,,,,,0x03,
5320,-79,-253,967,-210,-700,-70,,,,,,,0x03,
5330,-80,-252,968,-140,-700,-70,,,,,,,0x03,
5339,-79,-253,968,-70,-700,-140,,,,,,,0x03,
5349,-79,-251,967,0,-700,-70,,,,,,,0x03,
5359,-79,-250,969,-70,-700,-70,,,,,,,0x03,
5368,-80,-250,967,-210,-700,-70,,,,,,,0x03,
5378,-79,-244,968,-280,-630,-140,,,,,,,0x03,
5388,-79,-244,969,-700,-630,-140,,,,,,,0x03,
5397,-78,-245,972,-1050,-700,-70,,,,,,,0x03,
5407,-80,-249,970,-1190,-700,0,,,,,,,0x03,
5417,-79,-250,969,-1050,-700,-70,,,,,,,0x03,
5426,-79,-253,969,-1260,-630,-140,,,,,,,0x03,
5436,-81,-257,968,-1400,-630,-140,,,,,,,0x03,
5445,-80,-259,967,-1120,-700,-140,,,,,,,0x03,
5455,-77,-260,966,-910,-700,-210,,,,,,,0x03,
5465,-79,-259,967,-560,-630,-280,,,,,,,0x03,
5474,-80,-257,967,-280,-630,-280,,,,,,,0x03,
5484,-79,-254,966,-210,-700,-280,,,,,,,0x03,
5494,-78,-253,967,-140,-700,-350,,,,,,,0x03,
5503,-78,-248,967,-210,-630,-280,,,,,,,0x03,
5513,-79,-249,968,-350,-700,-210,,,,,,,0x03,
5523,-78,-247,970,-490,-770,-70,,,,,,,0x03,
5532,-80,-250,969,-560,-770,0,,,,,,,0x03,
5542,-79,-253,968,-560,-700,0,,,,,,,0x03,
5551,-79,-254,968,-630,-700,0,,,,,,,0x03,
5561,-80,-257,968,-630,-700,-70,,,,,,,0x03,
5571,-79,-258,967,-490,-700,-140,,,,,,,0x03,
5580,-78,-257,968,-420,-700,-280,,,,,,,0x03,
5590,-79,-256,968,-350,-630,-350,,,,,,,0x03,
5600,-78,-254,969,-140,-630,-350,,,,,,,0x03,
5609,-78,-252,969,-140,-630,-280,,,,,,,0x03,
5619,-77,-251,968,-140,-630,-350,,,,,,,0x03,
5629,-78,-251,969,-210,-630,-350,,,,,,,0x03,
5638,-78,-251,968,-350,-630,-280,,,,,,,0x03,
5648,-78,-251,967,-420,-630,-210,,,,,,,0x03,
5657,-80,-251,967,-560,-630,-210,,,,,,,0x03,
5667,-79,-252,968,-630,-630,-210,,,,,,,0x03,
5677,-79,-254,966,-630,-700,-210,,,,,,,0x03,
5686,-80,-253,967,-560,-700,-140,,,,,,,0x03,
5696,-79,-251,964,-420,-630,-210,,,,,,,0x03,
5706,-78,-244,966,-840,-560,-210,,,,,,,0x03,
5715,-79,-248,969,-1330,-700,-140,,,,,,,0x03,
5725,-76,-249,971,-1470,-770,0,,,,,,,0x03,
5735,-81,-251,970,-1400,-700,210,,,,,,,0x03,
5744,-80,-255,968,-1330,-700,70,,,,,,,0x03,
5754,-78,-259,968,-1470,-630,-70,,,,,,,0x03,
5763,-79,-265,966,-1540,-630,0,,,,,,,0x03,
5773,-81,-267,965,-1190,-630,-140,,,,,,,0x03,
5783,-80,-266,966,-630,-630,-140,,,,,,,0x03,
5792,-80,-264,966,-140,-630,-210,,,,,,,0x03,
5802,-79,-260,966,210,-630,-280,,,,,,,0x03,
5812,-78,-258,966,280,-700,-280,,,,,,,0x03,
5821,-80,-256,967,420,-700,-280,,,,,,,0x03,
5831,-78,-254,967,560,-700,-350,,,,,,,0x03,
5841,-75,-251,967,560,-770,-280,,,,,,,0x03,
5850,-75,-250,968,420,-840,70,,,,,,,0x03,
5860,-87,-252,969,140,-700,0,,,,,,,0x03,
5869,-75,-251,969,210,-770,-140,,,,,,,0x03,
5879,-76,-253,967,70,-770,70,,,,,,,0x03,
5889,-78,-254,967,0,-700,140,,,,,,,0x03,
5898,-70,-256,965,-140,-770,280,,,,,,,0x03,
5908,-86,-256,968,210,-840,700,,,,,,,0x03,
5918,-84,-254,968,0,-630,-140,,,,,,,0x03,
5927,-80,-254,970,-280,-770,-280,,,,,,,0x03,
5937,-76,-256,967,-350,-840,-210,,,,,,,0x03,
5947,-79,-258,967,0,-700,-70,,,,,,,0x03,
5956,-78,-255,968,70,-630,-210,,,,,,,0x03,
5966,-77,-255,968,-140,-700,-210,,,,,,,0x03,
5976,-80,-255,967,-210,-700,-70,,,,,,,0x03,
5985,-78,-254,968,-210,-700,-70,,,,,,,0x03,
5995,-79,-253,967,-210,-700,-140,,,,,,,0x03,
6004,-80,-251,968,-280,-700,-140,,,,,,,0x03,
6014,-79,-253,968,-350,-770,-70,,,,,,,0x03,
6024,-79,-254,967,-420,-770,-70,,,,,,,0x03,
6033,-80,-256,968,-420,-770,0,,,,,,,0x03,
6043,-80,-256,968,-280,-770,-70,,,,,,,0x03,
6053,-78,-256,968,-210,-770,0,,,,,,,0x03,
6062,-78,-258,967,-70,-770,0,,,,,,,0x03,
6072,-78,-259,967,0,-770,0,,,,,,,0x03,
6082,-78,-259,968,0,-770,0,,,,,,,0x03,
6091,-79,-258,967,210,-700,-70,,,,,,,0x03,
6101,-78,-256,967,350,-700,-140,,,,,,,0x03,
6110,-79,-253,969,350,-700,-70,,,,,,,0x03,
6120,-80,-252,968,280,-700,-140,,,,,,,0x03,
6130,-78,-251,967,210,-770,-140,,,,,,,0x03,
6139,-78,-251,967,70,-700,-140,,,,,,,0x03,
6149,-78,-250,967,-140,-700,-140,,,,,,,0x03,
6159,-79,-251,968,-280,-700,-70,,,,,,,0x03,
6168,-78,-252,969,-350,-770,-70,,,,,,,0x03,
6178,-78,-254,968,-350,-700,-70,,,,,,,0x03,
6188,-80,-257,968,-490,-700,-70,,,,,,,0x03,
6197,-78,-256,966,-420,-700,-70,,,,,,,0x03,
6207,-79,-256,967,-350,-700,-70,,,,,,,0x03,
6216,-80,-256,967,-280,-700,0,,,,,,,0x03,
6226,-79,-256,967,-210,-700,-70,,,,,,,0x03,
6236,-79,-255,968,-140,-770,-70,,,,,,,0x03,
6245,-81,-255,968,-70,-770,0,,,,,,,0x03,
6255,-79,-254,967,0,-700,-140,,,,,,,0x03,
6265,-79,-255,968,-70,-700,-140,,,,,,,0x03,
6274,-79,-255,968,-140,-700,-210,,,,,,,0x03,
6284,-78,-254,969,-70,-700,-210,,,,,,,0x03,
6294,-78,-254,968,-70,-700,-210,,,,,,,0x03,
6303,-77,-254,968,-140,-630,-140,,,,,,,0x03,
6313,-77,-255,968,-210,-630,-140,,,,,,,0x03,
6322,-78,-254,968,-210,-630,-70,,,,,,,0x03,
6332,-78,-252,967,-210,-630,0,,,,,,,0x03,
6342,-78,-253,968,-350,-630,-70,,,,,,,0x03,
6351,-80,-254,968,-560,-630,0,,,,,,,0x03,
6361,-80,-255,969,-420,-700,0,,,,,,,0x03,
6371,-81,-255,967,-280,-700,0,,,,,,,0x03,
6380,-82,-255,967,-420,-700,-140,,,,,,,0x03,
6390,-81,-255,967,-280,-700,-140,,,,,,,0x03,
6400,-80,-255,967,-210,-700,-140,,,,,,,0x03,
6409,-79,-254,969,-210,-630,-210,,,,,,,0x03,
6419,-81,-256,969,-140,-770,-210,,,,,,,0x03,
6428,-80,-255,967,0,-700,-210,,,,,,,0x03,
6438,-79,-255,968,-70,-700,-210,,,,,,,0x03,
6448,-79,-255,968,-210,-630,-280,,,,,,,0x03,
6457,-81,-254,968,-280,-700,-210,,,,,,,0x03,
6467,-78,-254,968,-140,-700,-210,,,,,,,0x03,
6477,-79,-254,967,-210,-700,-140,,,,,,,0x03,
6486,-80,-253,967,-280,-700,-210,,,,,,,0x03,
6496,-79,-255,968,-280,-700,-210,,,,,,,0x03,
6506,-79,-255,969,-350,-700,-210,,,,,,,0x03,
6515,-77,-256,968,-280,-700,-280,,,,,,,0x03,
6525,-78,-256,967,-140,-700,-210,,,,,,,0x03,
6535,-79,-255,967,-210,-700,-280,,,,,,,0x03,
6544,-79,-255,966,-280,-700,-350,,,,,,,0x03,
6554,-79,-255,967,-210,-700,-350,,,,,,,0x03,
6563,-78,-253,967,-210,-700,-280,,,,,,,0x03,
6573,-79,-253,967,-350,-700,-350,,,,,,,0x03,
6583,-79,-253,967,-350,-700,-210,,,,,,,0x03,
6592,-78,-253,969,-420,-700,-210,,,,,,,0x03,
6602,-77,-253,968,-630,-700,-140,,,,,,,0x03,
6612,-78,-255,968,-630,-630,-70,,,,,,,0x03,
6621,-79,-256,967,-630,-630,-70,,,,,,,0x03,
6631,-79,-257,968,-630,-700,-70,,,,,,,0x03,
6641,-80,-258,966,-560,-630,-70,,,,,,,0x03,
6650,-79,-259,966,-490,-630,-140,,,,,,,0x03,
6660,-79,-259,966,-490,-630,-210,,,,,,,0x03,
6669,-78,-258,966,-280,-700,-210,,,,,,,0x03,
6679,-79,-258,966,-140,-700,-210,,,,,,,0x03,
6689,-79,-256,967,-140,-630,-280,,,,,,,0x03,
6698,-78,-255,967,-210,-700,-210,,,,,,,0x03,
6708,-79,-254,968,-140,-700,-210,,,,,,,0x03,
6718,-81,-254,968,-210,-700,-140,,,,,,,0x03,
6727,-79,-251,968,-280,-700,-140,,,,,,,0x03,
6737,-78,-252,970,-490,-630,-70,,,,,,,0x03,
6747,-80,-256,968,-560,-700,-70,,,,,,,0x03,
6756,-78,-257,967,-420,-700,-70,,,,,,,0x03,
6766,-80,-258,967,-490,-630,-70,,,,,,,0x03,
6775,-79,-259,967,-490,-630,-140,,,,,,,0x03,
6785,-79,-260,966,-280,-700,-140,,,,,,,0x03,
6795,-78,-259,967,-140,-700,-210,,,,,,,0x03,
6804,-79,-258,967,-70,-700,-210,,,,,,,0x03,
6814,-78,-257,966,70,-700,-210,,,,,,,0x03,
6824,-78,-255,967,70,-630,-210,,,,,,,0x03,
6833,-78,-254,968,0,-700,-140,,,,,,,0x03,
6843,-78,-254,967,-70,-770,-140,,,,,,,0x03,
6853,-79,-253,967,-70,-700,-140,,,,,,,0x03,
6862,-79,-253,968,-140,-700,-70,,,,,,,0x03,
6872,-79,-254,967,-420,-770,-70,,,,,,,0x03,
6881,-79,-255,966,-490,-770,-70,,,,,,,0x03,
6891,-80,-256,967,-420,-700,0,,,,,,,0x03,
6901,-80,-258,968,-490,-700,0,,,,,,,0x03,
6910,-80,-257,968,-420,-700,-70,,,,,,,0x03,
6920,-81,-258,967,-280,-770,-140,,,,,,,0x03,
6930,-78,-258,967,-280,-700,-210,,,,,,,0x03,
6939,-78,-258,967,-280,-700,-350,,,,,,,0x03,
6949,-79,-257,967,-210,-630,-420,,,,,,,0x03,
6959,-77,-256,967,-210,-630,-350,,,,,,,0x03,
6968,-77,-255,967,-210,-630,-350,,,,,,,0x03,
6978,-77,-255,968,-280,-630,-280,,,,,,,0x03,
6987,-78,-254,968,-420,-630,-140,,,,,,,0x03,
6997,-79,-255,968,-420,-630,-70,,,,,,,0x03,
7007,-77,-256,966,-420,-630,0,,,,,,,0x03,
7016,-80,-257,967,-490,-630,70,,,,,,,0x03,
7026,-80,-259,967,-490,-630,0,,,,,,,0x03,
7036,-80,-259,966,-350,-700,0,,,,,,,0x03,
7045,-80,-258,966,-210,-630,-140,,,,,,,0x03,
7055,-79,-259,968,-140,-630,-140,,,,,,,0x03,
7065,-81,-257,967,0,-700,-210,,,,,,,0x03,
7074,-79,-257,966,70,-700,-280,,,,,,,0x03,
7084,-79,-257,967,0,-700,-280,,,,,,,0x03,
7094,-81,-257,967,70,-700,-280,,,,,,,0x03,
7103,-79,-255,967,140,-700,-280,,,,,,,0x03,
7113,-78,-255,967,0,-700,-280,,,,,,,0x03,
7122,-79,-256,967,-70,-700,-280,,,,,,,0x03,
7132,-79,-256,967,-70,-700,-280,,,,,,,0x03,
7142,-77,-255,968,-140,-700,-210,,,,,,,0x03,
7151,-78,-257,967,-280,-700,-140,,,,,,,0x03,
7161,-78,-257,966,-280,-700,-210,,,,,,,0x03,
7171,-77,-256,968,-210,-700,-210,,,,,,,0x03,
7180,-77,-256,968,-280,-700,-140,,,,,,,0x03,
7190,-78,-256,967,-350,-700,-210,,,,,,,0x03,
7200,-78,-256,968,-350,-700,-140,,,,,,,0x03,
7209,-78,-258,968,-420,-700,-140,,,,,,,0x03,
7219,-78,-258,968,-350,-700,-70,,,,,,,0x03,
7228,-79,-259,968,-210,-630,-70,,,,,,,0x03,
7238,-79,-259,966,-140,-700,-70,,,,,,,0x03,
7248,-79,-258,966,-70,-700,-70,,,,,,,0x03,
7257,-78,-257,966,0,-700,0,,,,,,,0x03,
7267,-78,-259,966,70,-700,0,,,,,,,0x03,
7277,-78,-259,968,70,-700,0,,,,,,,0x03,
7286,-77,-256,967,140,-700,-70,,,,,,,0x03,
7296,-79,-256,968,140,-700,0,,,,,,,0x03,
7306,-79,-256,967,140,-700,70,,,,,,,0x03,
7315,-78,-256,968,140,-700,70,,,,,,,0x03,
7325,-78,-255,966,140,-700,0,,,,,,,0x03,
7334,-79,-255,967,70,-700,0,,,,,,,0x03,
7344,-80,-254,968,0,-700,0,,,,,,,0x03,
7354,-78,-254,968,0,-770,-70,,,,,,,0x03,
7363,-79,-255,969,0,-700,-70,,,,,,,0x03,
7373,-80,-255,969,-70,-700,-70,,,,,,,0x03,
7383,-79,-257,967,-70,-700,-70,,,,,,,0x03,
7392,-78,-257,967,-70,-770,-70,,,,,,,0x03,
7402,-78,-257,967,-70,-700,0,,,,,,,0x03,
7412,-79,-257,967,-140,-700,-70,,,,,,,0x03,
7421,-80,-256,966,-70,-700,-70,,,,,,,0x03,
7431,-79,-256,967,-70,-700,-70,,,,,,,0x03,
7440,-79,-256,967,-140,-700,-70,,,,,,,0x03,
7450,-81,-255,966,-70,-700,-140,,,,,,,0x03,
7460,-79,-255,967,-70,-700,-140,,,,,,,0x03,
7469,-79,-256,969,-140,-700,-210,,,,,,,0x03,
7479,-78,-256,967,-140,-700,-210,,,,,,,0x03,
7489,-79,-255,967,-210,-770,-140,,,,,,,0x03,
7498,-79,-256,968,-280,-770,-140,,,,,,,0x03,
7508,-78,-256,967,-280,-700,-140,,,,,,,0x03,
7518,-80,-256,967,-280,-700,-140,,,,,,,0x03,
7527,-80,-255,967,-420,-700,-140,,,,,,,0x03,
7537,-79,-256,968,-350,-770,-140,,,,,,,0x03,
7546,-78,-257,967,-280,-770,-140,,,,,,,0x03,
7556,-78,-257,968,-210,-700,-70,,,,,,,0x03,
7566,-78,-257,967,-210,-770,-70,,,,,,,0x03,
7575,-79,-258,967,-210,-700,-70,,,,,,,0x03,
7585,-79,-259,966,-210,-700,-70,,,,,,,0x03,
7595,-80,-257,966,-70,-770,-140,,,,,,,0x03,
7604,-79,-256,967,-70,-700,-210,,,,,,,0x03,
7614,-79,-255,968,-70,-700,-280,,,,,,,0x03,
7624,-79,-256,968,-210,-700,-280,,,,,,,0x03,
7633,-77,-254,968,-210,-700,-280,,,,,,,0x03,
7643,-77,-255,968,-350,-700,-280,,,,,,,0x03,
7653,-77,-255,967,-350,-630,-210,,,,,,,0x03,
7662,-77,-255,967,-420,-630,-210,,,,,,,0x03,
7672,-79,-254,967,-560,-700,-210,,,,,,,0x03,
7681,-79,-256,968,-560,-700,-140,,,,,,,0x03,
7691,-78,-257,966,-490,-700,-140,,,,,,,0x03,
7701,-78,-258,966,-490,-630,-140,,,,,,,0x03,
7710,-79,-259,966,-560,-630,-140,,,,,,,0x03,
7720,-80,-259,966,-350,-700,-140,,,,,,,0x03,
7730,-80,-260,967,-210,-700,-140,,,,,,,0x03,
7739,-79,-260,967,0,-700,-140,,,,,,,0x03,
7749,-80,-259,967,140,-700,-210,,,,,,,0x03,
7759,-79,-259,967,70,-700,-210,,,,,,,0x03,
7768,-80,-259,967,140,-700,-210,,,,,,,0x03,
7778,-78,-259,967,280,-700,-210,,,,,,,0x03,
7787,-79,-257,967,420,-770,-210,,,,,,,0x03,
7797,-78,-258,966,280,-700,-210,,,,,,,0x03,
7807,-78,-255,966,210,-770,-210,,,,,,,0x03,
7816,-77,-255,967,140,-700,-140,,,,,,,0x03,
7826,-79,-255,968,140,-770,-140,,,,,,,0x03,
7836,-77,-254,968,140,-770,-70,,,,,,,0x03,
7845,-77,-254,967,0,-770,-140,,,,,,,0x03,
7855,-78,-255,968,-140,-770,-70,,,,,,,0x03,
7865,-78,-255,968,-140,-770,-70,,,,,,,0x03,
7874,-78,-257,968,-210,-700,-70,,,,,,,0x03,
7884,-78,-256,968,-280,-700,-140,,,,,,,0x03,
7893,-78,-256,967,-210,-700,-70,,,,,,,0x03,
7903,-78,-256,967,-210,-700,-140,,,,,,,0x03,
7913,-78,-257,968,-280,-700,-70,,,,,,,0x03,
7922,-78,-258,967,-350,-770,-70,,,,,,,0x03,
7932,-78,-258,968,-210,-700,-70,,,,,,,0x03,
7942,-79,-258,967,-210,-700,-70,,,,,,,0x03,
7951,-80,-258,967,-140,-630,-70,,,,,,,0x03,
7961,-79,-258,967,-70,-700,-70,,,,,,,0x03,
7971,-78,-258,966,0,-700,-70,,,,,,,0x03,
7980,-78,-257,966,0,-700,-70,,,,,,,0x03,
7990,-79,-257,966,70,-700,-70,,,,,,,0x03,
7999,-80,-256,968,70,-770,-70,,,,,,,0x03,
8009,-78,-256,968,70,-770,-70,,,,,,,0x03,
8019,-79,-255,968,0,-700,0,,,,,,,0x03,
8028,-79,-256,968,0,-700,-70,,,,,,,0x03,
8038,-79,-257,968,-70,-630,-70,,,,,,,0x03,
8048,-79,-256,967,-70,-700,0,,,,,,,0x03,
8057,-79,-257,967,70,-700,0,,,,,,,0x03,
8067,-79,-256,967,70,-630,0,,,,,,,0x03,
8077,-80,-256,967,0,-630,-70,,,,,,,0x03,
8086,-79,-257,968,0,-700,-70,,,,,,,0x03,
8096,-79,-256,968,0,-630,-70,,,,,,,0x03,
8105,-79,-256,967,-70,-700,-70,,,,,,,0x03,
8115,-80,-254,966,70,-700,-70,,,,,,,0x03,
8125,-80,-254,968,0,-630,-140,,,,,,,0x03,
8134,-78,-254,967,-210,-700,-210,,,,,,,0x03,
8144,-78,-254,968,-350,-700,-210,,,,,,,0x03,
8154,-78,-254,968,-350,-700,-210,,,,,,,0x03,
8163,-78,-255,968,-420,-700,-140,,,,,,,0x03,
8173,-77,-256,968,-420,-700,-70,,,,,,,0x03,
8183,-78,-257,967,-560,-700,-70,,,,,,,0x03,
8192,-79,-257,967,-560,-630,0,,,,,,,0x03,
8202,-79,-258,966,-420,-700,0,,,,,,,0x03,
8212,-78,-257,968,-350,-630,-70,,,,,,,0x03,
8221,-78,-258,968,-350,-700,-70,,,,,,,0x03,
8231,-79,-258,966,-280,-770,0,,,,,,,0x03,
8240,-78,-258,967,-140,-770,0,,,,,,,0x03,
8250,-79,-258,967,-140,-700,0,,,,,,,0x03,
8260,-81,-258,966,-140,-770,-70,,,,,,,0x03,
8269,-79,-256,968,-70,-770,-70,,,,,,,0x03,
8279,-80,-255,969,-210,-700,-70,,,,,,,0x03,
8289,-80,-256,968,-210,-770,-140,,,,,,,0x03,
8298,-78,-255,968,-70,-770,-210,,,,,,,0x03,
8308,-77,-255,968,-140,-700,-210,,,,,,,0x03,
8318,-78,-256,967,-350,-630,-210,,,,,,,0x03,
8327,-79,-257,967,-350,-630,-210,,,,,,,0x03,
8337,-78,-256,968,-350,-630,-210,,,,,,,0x03,
8346,-78,-255,967,-280,-700,-210,,,,,,,0x03,
8356,-80,-256,969,-280,-630,-140,,,,,,,0x03,
8366,-79,-256,968,-420,-630,-140,,,,,,,0x03,
8375,-78,-257,967,-420,-630,-140,,,,,,,0x03,
8385,-79,-258,968,-420,-560,-140,,,,,,,0x03,
8395,-80,-259,967,-280,-630,-70,,,,,,,0x03,
8404,-80,-258,966,-70,-630,-70,,,,,,,0x03,
8414,-80,-258,966,-70,-630,-140,,,,,,,0x03,
8424,-80,-258,965,-70,-630,-140,,,,,,,0x03,
8433,-81,-259,966,-70,-700,-140,,,,,,,0x03,
8443,-79,-256,968,70,-770,-140,,,,,,,0x03,
8452,-78,-255,967,210,-700,-210,,,,,,,0x03,
8462,-79,-254,968,70,-770,-140,,,,,,,0x03,
8472,-80,-255,968,0,-700,-140,,,,,,,0x03,
8481,-78,-256,967,-70,-700,-140,,,,,,,0x03,
8491,-78,-256,967,-70,-700,-140,,,,,,,0x03,
8501,-80,-256,968,-70,-700,-70,,,,,,,0x03,
8510,-78,-257,967,0,-700,-140,,,,,,,0x03,
8520,-79,-258,966,0,-700,-210,,,,,,,0x03,
8530,-78,-258,966,-70,-770,-140,,,,,,,0x03,
8539,-77,-256,966,0,-770,-210,,,,,,,0x03,
8549,-78,-255,967,0,-770,-210,,,,,,,0x03,
8558,-78,-254,968,-70,-700,-210,,,,,,,0x03,
8568,-78,-255,969,-140,-770,-210,,,,,,,0x03,
8578,-77,-254,967,-140,-700,-140,,,,,,,0x03,
8587,-77,-254,968,-280,-700,-140,,,,,,,0x03,
8597,-79,-255,967,-420,-700,-140,,,,,,,0x03,
8607,-78,-256,966,-420,-700,-70,,,,,,,0x03,
8616,-79,-256,967,-490,-700,-70,,,,,,,0x03,
8626,-79,-259,966,-420,-700,-140,,,,,,,0x03,
8636,-78,-257,966,-210,-700,-140,,,,,,,0x03,
8645,-78,-258,966,-280,-700,-140,,,,,,,0x03,
8655,-79,-257,967,-280,-770,-210,,,,,,,0x03,
8664,-79,-256,967,-140,-770,-210,,,,,,,0x03,
8674,-78,-256,967,-70,-770,-140,,,,,,,0x03,
8684,-78,-256,968,-140,-700,-140,,,,,,,0x03,
8693,-79,-256,968,-280,-700,-140,,,,,,,0x03,
8703,-78,-254,967,-280,-700,-140,,,,,,,0x03,
8713,-77,-255,968,-350,-630,-140,,,,,,,0x03,
8722,-79,-256,967,-420,-700,-70,,,,,,,0x03,
8732,-78,-256,967,-490,-700,-70,,,,,,,0x03,
8742,-79,-256,967,-560,-700,-140,,,,,,,0x03,
8751,-78,-256,966,-490,-700,-140,,,,,,,0x03,
8761,-77,-252,966,-490,-630,-140,,,,,,,0x03,
8771,-78,-252,968,-1120,-700,-70,,,,,,,0x03,
8780,-80,-257,968,-1330,-770,0,,,,,,,0x03,
8790,-79,-260,969,-1050,-770,0,,,,,,,0x03,
8799,-79,-257,967,-910,-700,70,,,,,,,0x03,
8809,-78,-260,966,-980,-700,-70,,,,,,,0x03,
8819,-79,-263,965,-980,-700,-70,,,,,,,0x03,
8828,-80,-265,965,-770,-770,-70,,,,,,,0x03,
8838,-79,-264,965,-420,-770,-210,,,,,,,0x03,
8848,-79,-260,964,-70,-770,-210,,,,,,,0x03,
8857,-79,-257,966,-70,-700,-210,,,,,,,0x03,
8867,-79,-255,967,-210,-700,-210,,,,,,,0x03,
8877,-80,-254,966,-420,-770,-210,,,,,,,0x03,
8886,-78,-252,969,-420,-770,-210,,,,,,,0x03,
8896,-77,-254,970,-630,-770,-140,,,,,,,0x03,
8905,-78,-257,969,-630,-770,-70,,,,,,,0x03,
8915,-78,-260,967,-560,-770,0,,,,,,,0x03,
8925,-78,-263,966,-560,-700,0,,,,,,,0x03,
8934,-79,-265,965,-490,-700,-70,,,,,,,0x03,
8944,-80,-266,966,-210,-700,-140,,,,,,,0x03,
8954,-80,-264,967,-70,-700,-210,,,,,,,0x03,
8963,-79,-261,966,140,-700,-350,,,,,,,0x03,
8973,-78,-258,966,280,-630,-420,,,,,,,0x03,
8983,-77,-255,967,210,-630,-420,,,,,,,0x03,
8992,-76,-253,967,70,-630,-420,,,,,,,0x03,
9002,-77,-252,969,-140,-560,-350,,,,,,,0x03,
9011,-76,-253,969,-280,-630,-210,,,,,,,0x03,
9021,-76,-252,967,-490,-560,-70,,,,,,,0x03,
9031,-78,-254,967,-770,-560,0,,,,,,,0x03,
9040,-80,-257,966,-980,-560,0,,,,,,,0x03,
9050,-79,-261,966,-1120,-630,0,,,,,,,0x03,
9060,-79,-262,967,-1050,-630,70,,,,,,,0x03,
9069,-81,-262,967,-910,-630,0,,,,,,,0x03,
9079,-81,-264,966,-700,-700,-70,,,,,,,0x03,
9089,-80,-264,965,-490,-700,-140,,,,,,,0x03,
9098,-81,-262,965,-280,-700,-210,,,,,,,0x03,
9108,-80,-262,966,-210,-700,-280,,,,,,,0x03,
9117,-80,-261,966,-70,-700,-350,,,,,,,0x03,
9127,-80,-259,966,140,-700,-350,,,,,,,0x03,
9137,-79,-256,967,140,-630,-350,,,,,,,0x03,
9146,-79,-258,967,-70,-700,-280,,,,,,,0x03,
9156,-77,-258,967,-70,-700,-280,,,,,,,0x03,
9166,-78,-258,965,-70,-630,-210,,,,,,,0x03,
9175,-80,-259,965,-210,-630,-210,,,,,,,0x03,
9185,-78,-258,965,-210,-700,-210,,,,,,,0x03,
9195,-79,-257,966,-280,-700,-210,,,,,,,0x03,
9204,-79,-258,968,-350,-700,-210,,,,,,,0x03,
9214,-79,-259,968,-350,-700,-210,,,,,,,0x03,
9223,-78,-259,967,-280,-770,-280,,,,,,,0x03,
9233,-78,-259,966,-350,-700,-350,,,,,,,0x03,
9243,-77,-260,967,-490,-630,-350,,,,,,,0x03,
9252,-76,-259,966,-420,-700,-350,,,,,,,0x03,
9262,-77,-259,966,-420,-700,-280,,,,,,,0x03,
9272,-77,-258,967,-560,-630,-280,,,,,,,0x03,
9281,-77,-260,967,-630,-630,-210,,,,,,,0x03,
9291,-78,-260,967,-560,-630,-140,,,,,,,0x03,
9301,-77,-259,966,-560,-700,-70,,,,,,,0x03,
9310,-78,-259,965,-560,-630,-70,,,,,,,0x03,
9320,-78,-258,967,-560,-630,-70,,,,,,,0x03,
9330,-81,-264,966,-630,-700,0,,,,,,,0x03,
9339,-79,-267,966,-280,-770,-70,,,,,,,0x03,
9349,-78,-263,965,70,-700,-210,,,,,,,0x03,
9358,-80,-260,966,210,-700,-140,,,,,,,0x03,
9368,-80,-258,966,70,-700,-140,,,,,,,0x03,
9378,-78,-258,966,140,-770,-140,,,,,,,0x03,
9387,-78,-259,966,0,-770,-70,,,,,,,0x03,
9397,-79,-258,966,-70,-770,-140,,,,,,,0x03,
9407,-79,-258,966,-70,-700,-140,,,,,,,0x03,
9416,-79,-258,968,-140,-770,-140,,,,,,,0x03,
9426,-78,-258,968,-280,-700,-140,,,,,,,0x03,
9436,-78,-259,967,-350,-700,-70,,,,,,,0x03,
9445,-79,-258,967,-420,-630,-140,,,,,,,0x03,
9455,-79,-261,966,-630,-630,-140,,,,,,,0x03,
9464,-79,-260,965,-630,-630,-210,,,,,,,0x03,
9474,-79,-261,965,-630,-700,-210,,,,,,,0x03,
9484,-79,-260,965,-630,-630,-280,,,,,,,0x03,
9493,-78,-259,967,-630,-700,-280,,,,,,,0x03,
9503,-78,-259,966,-630,-700,-280,,,,,,,0x03,
9513,-78,-260,967,-490,-700,-280,,,,,,,0x03,
9522,-78,-261,965,-490,-700,-210,,,,,,,0x03,
9532,-79,-262,965,-490,-700,-210,,,,,,,0x03,
9542,-78,-262,967,-490,-700,-210,,,,,,,0x03,
9551,-77,-262,966,-490,-700,-210,,,,,,,0x03,
9561,-79,-261,965,-420,-700,-140,,,,,,,0x03,
9570,-79,-262,966,-280,-700,-70,,,,,,,0x03,
9580,-79,-262,966,-280,-700,-70,,,,,,,0x03,
9590,-79,-263,966,-140,-700,-70,,,,,,,0x03,
9599,-80,-261,966,-70,-700,-210,,,,,,,0x03,
9609,-80,-262,966,-140,-700,-210,,,,,,,0x03,
9619,-79,-260,965,-140,-700,-210,,,,,,,0x03,
9628,-79,-259,966,-140,-630,-280,,,,,,,0x03,
9638,-78,-260,966,-210,-630,-280,,,,,,,0x03,
9648,-77,-260,965,-210,-700,-210,,,,,,,0x03,
9657,-76,-258,965,-280,-630,-140,,,,,,,0x03,
9667,-76,-259,966,-420,-630,0,,,,,,,0x03,
9676,-78,-259,967,-560,-630,70,,,,,,,0x03,
9686,-78,-260,968,-560,-700,70,,,,,,,0x03,
9696,-79,-262,966,-560,-630,70,,,,,,,0x03,
9705,-81,-263,967,-560,-630,0,,,,,,,0x03,
9715,-80,-266,966,-420,-630,0,,,,,,,0x03,
9725,-81,-266,965,-210,-630,-70,,,,,,,0x03,
9734,-80,-266,963,0,-700,-140,,,,,,,0x03,
9744,-80,-265,965,210,-630,-210,,,,,,,0x03,
9754,-81,-263,965,350,-700,-280,,,,,,,0x03,
9763,-80,-261,964,420,-700,-280,,,,,,,0x03,
9773,-79,-259,965,490,-700,-280,,,,,,,0x03,
9782,-79,-257,967,350,-700,-280,,,,,,,0x03,
9792,-78,-257,968,350,-700,-210,,,,,,,0x03,
9802,-77,-258,967,280,-700,-210,,,,,,,0x03,
9811,-77,-259,967,140,-700,-140,,,,,,,0x03,
9821,-78,-260,966,70,-700,-70,,,,,,,0x03,
9831,-78,-262,966,0,-630,-70,,,,,,,0x03,
9840,-78,-262,964,70,-630,-140,,,,,,,0x03,
9850,-78,-261,965,140,-700,-140,,,,,,,0x03,
9860,-78,-259,967,70,-700,-140,,,,,,,0x03,
9869,-79,-259,966,70,-700,-140,,,,,,,0x03,
9879,-78,-259,966,0,-770,-140,,,,,,,0x03,
9889,-77,-258,965,-70,-770,-210,,,,,,,0x03,
9898,-77,-258,966,-210,-770,-140,,,,,,,0x03,
9908,-79,-258,967,-420,-700,-70,,,,,,,0x03,
9917,-79,-260,967,-420,-700,0,,,,,,,0x03,
9927,-79,-260,967,-490,-700,-70,,,,,,,0x03,
9937,-79,-261,966,-490,-700,0,,,,,,,0x03,
9946,-79,-262,967,-420,-700,0,,,,,,,0x03,
9956,-79,-263,966,-420,-630,70,,,,,,,0x03,
9966,-78,-264,966,-280,-700,0,,,,,,,0x03,
9975,-79,-265,965,-70,-700,0,,,,,,,0x03,
9985,-79,-263,965,70,-700,-70,,,,,,,0x03,
9995,-79,-261,966,70,-700,-140,,,,,,,0x03,
10004,-78,-261,965,140,-700,-140,,,,,,,0x03,
10014,-79,-259,967,210,-700,-70,,,,,,,0x03,
10023,-78,-258,967,140,-700,-70,,,,,,,0x03,
10033,-77,-258,967,70,-700,-70,,,,,,,0x03,
10043,-79,-258,967,0,-700,0,,,,,,,0x03,
10052,-80,-258,967,-70,-700,0,,,,,,,0x03,
10062,-78,-260,966,-210,-630,0,,,,,,,0x03,
10072,-79,-260,966,-280,-700,-70,,,,,,,0x03,
10081,-80,-261,965,-210,-700,-70,,,,,,,0x03,
10091,-80,-260,965,-280,-700,-70,,,,,,,0x03,
10101,-80,-255,960,-140,-700,-140,,,,,,,0x03,
10110,-77,-245,968,-700,-560,-280,,,,,,,0x03,
10120,-82,-254,971,-1540,-770,-70,,,,,,,0x03,
10129,-78,-256,970,-1400,-910,-140,,,,,,,0x03,
10139,-79,-257,969,-1190,-700,-70,,,,,,,0x03,
10149,-80,-262,967,-1470,-630,-70,,,,,,,0x03,
10158,-79,-266,964,-1610,-560,-140,,,,,,,0x03,
10168,-78,-271,963,-1680,-630,-70,,,,,,,0x03,
10178,-80,-272,964,-1260,-630,0,,,,,,,0x03,
10187,-80,-272,963,-630,-630,-210,,,,,,,0x03,
10197,-79,-268,964,-210,-630,-350,,,,,,,0x03,
10207,-79,-266,964,0,-700,-350,,,,,,,0x03,
10216,-77,-263,965,70,-770,-280,,,,,,,0x03,
10226,-77,-261,966,140,-700,-280,,,,,,,0x03,
10235,-77,-259,967,210,-770,-210,,,,,,,0x03,
10245,-78,-260,967,140,-840,-70,,,,,,,0x03,
10255,-79,-259,967,70,-840,-70,,,,,,,0x03,
10264,-79,-260,967,-70,-770,-70,,,,,,,0x03,
10274,-79,-263,966,-140,-770,-70,,,,,,,0x03,
10284,-78,-261,966,-140,-700,-140,,,,,,,0x03,
10293,-78,-263,966,-210,-700,-210,,,,,,,0x03,
10303,-77,-264,967,-140,-700,-210,,,,,,,0x03,
10313,-78,-263,966,-140,-700,-210,,,,,,,0x03,
10322,-77,-261,966,-70,-700,-210,,,,,,,0x03,
10332,-76,-261,966,-70,-630,-140,,,,,,,0x03,
10341,-79,-259,965,-210,-630,-140,,,,,,,0x03,
10351,-78,-260,966,-280,-630,-140,,,,,,,0x03,
10361,-77,-258,966,-350,-630,-70,,,,,,,0x03,
10370,-79,-262,966,-420,-630,-70,,,,,,,0x03,
10380,-79,-262,966,-420,-630,0,,,,,,,0x03,
10390,-79,-263,965,-420,-630,70,,,,,,,0x03,
10399,-80,-262,961,-350,-700,-70,,,,,,,0x03,
10409,-79,-257,963,-420,-560,-140,,,,,,,0x03,
10419,-79,-254,966,-980,-630,-140,,,,,,,0x03,
10428,-79,-256,970,-1260,-840,-70,,,,,,,0x03,
10438,-76,-261,970,-1190,-910,140,,,,,,,0x03,
10448,-78,-262,968,-980,-770,280,,,,,,,0x03,
10457,-79,-266,967,-1120,-770,70,,,,,,,0x03,
10467,-80,-274,965,-1190,-700,70,,,,,,,0x03,
10476,-79,-277,964,-980,-700,70,,,,,,,0x03,
10486,-80,-278,963,-350,-700,-70,,,,,,,0x03,
10496,-80,-275,963,420,-700,-210,,,,,,,0x03,
10505,-80,-269,964,700,-700,-350,,,,,,,0x03,
10515,-79,-266,965,840,-700,-350,,,,,,,0x03,
10525,-78,-264,966,980,-700,-350,,,,,,,0x03,
10534,-77,-260,965,1050,-770,-350,,,,,,,0x03,
10544,-78,-257,965,1050,-700,-280,,,,,,,0x03,
10554,-78,-255,966,770,-700,-280,,,,,,,0x03,
10563,-78,-257,967,490,-770,-140,,,,,,,0x03,
10573,-77,-257,967,210,-840,-70,,,,,,,0x03,
10582,-78,-259,966,70,-770,0,,,,,,,0x03,
10592,-77,-260,966,-70,-700,0,,,,,,,0x03,
10602,-78,-262,967,-210,-700,0,,,,,,,0x03,
10611,-78,-263,966,-280,-700,0,,,,,,,0x03,
10621,-79,-265,966,-140,-700,0,,,,,,,0x03,
10631,-78,-264,965,-70,-630,0,,,,,,,0x03,
10640,-79,-265,965,70,-700,-70,,,,,,,0x03,
10650,-79,-264,966,140,-700,-140,,,,,,,0x03,
10660,-79,-265,964,280,-700,-140,,,,,,,0x03,
10669,-80,-263,964,420,-700,-210,,,,,,,0x03,
10679,-79,-259,965,350,-630,-210,,,,,,,0x03,
10688,-79,-259,966,210,-700,-210,,,,,,,0x03,
10698,-78,-258,966,140,-700,-140,,,,,,,0x03,
10708,-78,-259,966,140,-700,-70,,,,,,,0x03,
10717,-80,-260,966,70,-630,-70,,,,,,,0x03,
10727,-79,-260,965,-70,-700,-70,,,,,,,0x03,
10737,-80,-261,966,-210,-630,0,,,,,,,0x03,
10746,-79,-263,966,-210,-700,0,,,,,,,0x03,
10756,-80,-263,966,-140,-770,-70,,,,,,,0x03,
10766,-80,-263,966,-70,-770,-70,,,,,,,0x03,
10775,-80,-262,966,-70,-700,-70,,,,,,,0x03,
10785,-79,-264,966,0,-770,-140,,,,,,,0x03,
10794,-79,-264,966,140,-700,-140,,,,,,,0x03,
10804,-79,-262,966,210,-630,-210,,,,,,,0x03,
10814,-79,-262,965,140,-630,-210,,,,,,,0x03,
10823,-78,-261,965,210,-700,-210,,,,,,,0x03,
10833,-78,-260,966,140,-700,-280,,,,,,,0x03,
10843,-78,-259,965,70,-700,-210,,,,,,,0x03,
10852,-78,-259,966,70,-770,-140,,,,,,,0x03,
10862,-78,-259,967,0,-700,-70,,,,,,,0x03,
10872,-78,-259,965,-70,-770,0,,,,,,,0x03,
10881,-77,-260,966,-140,-700,0,,,,,,,0x03,
10891,-78,-262,966,-210,-770,0,,,,,,,0x03,
10900,-79,-263,965,-140,-770,0,,,,,,,0x03,
10910,-79,-263,966,-70,-770,0,,,,,,,0x03,
10920,-79,-264,966,-70,-770,0,,,,,,,0x03,
10929,-79,-263,965,0,-700,-70,,,,,,,0x03,
10939,-79,-263,966,140,-770,-70,,,,,,,0x03,
10949,-79,-261,966,140,-700,-70,,,,,,,0x03,
10958,-78,-259,965,70,-700,-140,,,,,,,0x03,
10968,-79,-260,965,0,-700,-210,,,,,,,0x03,
10978,-78,-259,966,0,-700,-280,,,,,,,0x03,
10987,-78,-259,967,-210,-630,-210,,,,,,,0x03,
10997,-80,-259,967,-210,-630,-210,,,,,,,0x03,
11007,-78,-259,966,-210,-560,-210,,,,,,,0x03,
11016,-77,-260,966,-350,-560,-210,,,,,,,0x03,
11026,-79,-260,965,-490,-630,-210,,,,,,,0x03,
11035,-77,-259,965,-560,-560,-210,,,,,,,0x03,
11045,-79,-261,965,-630,-560,-210,,,,,,,0x03,
11055,-79,-262,965,-560,-630,-210,,,,,,,0x03,
11064,-80,-262,966,-490,-630,-210,,,,,,,0x03,
11074,-79,-263,966,-420,-630,-210,,,,,,,0x03,
11084,-79,-263,965,-280,-700,-210,,,,,,,0x03,
11093,-80,-264,965,-210,-630,-210,,,,,,,0x03,
11103,-80,-262,965,-210,-630,-210,,,,,,,0x03,
11113,-80,-263,966,-140,-630,-210,,,,,,,0x03,
11122,-79,-263,966,0,-700,-280,,,,,,,0x03,
11132,-78,-261,965,140,-700,-280,,,,,,,0x03,
11141,-79,-262,966,70,-630,-350,,,,,,,0x03,
11151,-80,-261,966,0,-630,-280,,,,,,,0x03,
11161,-79,-261,965,0,-700,-280,,,,,,,0x03,
11170,-78,-259,966,0,-630,-280,,,,,,,0x03,
11180,-80,-260,965,0,-560,-210,,,,,,,0x03,
11190,-78,-260,966,-70,-700,-210,,,,,,,0x03,
11199,-78,-260,966,-280,-700,-210,,,,,,,0x03,
11209,-78,-261,965,-280,-700,-210,,,,,,,0x03,
11219,-78,-261,965,-210,-700,-140,,,,,,,0x03,
11228,-78,-261,966,-350,-700,-210,,,,,,,0x03,
11238,-78,-262,965,-420,-700,-210,,,,,,,0x03,
11247,-79,-262,966,-350,-700,-210,,,,,,,0x03,
11257,-79,-261,966,-420,-700,-210,,,,,,,0x03,
11267,-79,-261,965,-420,-700,-210,,,,,,,0x03,
11276,-78,-262,966,-280,-700,-280,,,,,,,0x03,
11286,-78,-261,966,-350,-630,-210,,,,,,,0x03,
11296,-78,-263,965,-420,-700,-140,,,,,,,0x03,
11305,-78,-263,965,-210,-700,-140,,,,,,,0x03,
11315,-78,-263,965,-210,-700,-140,,,,,,,0x03,
11325,-78,-262,966,-140,-700,-140,,,,,,,0x03,
11334,-79,-262,965,-70,-700,-140,,,,,,,0x03,
11344,-77,-261,965,-70,-700,-140,,,,,,,0x03,
11353,-78,-260,965,-210,-700,-140,,,,,,,0x03,
11363,-78,-261,966,-280,-700,-70,,,,,,,0x03,
11373,-77,-261,966,-210,-700,-70,,,,,,,0x03,
11382,-77,-260,967,-350,-700,0,,,,,,,0x03,
11392,-78,-260,966,-350,-700,0,,,,,,,0x03,
11402,-77,-261,966,-350,-700,0,,,,,,,0x03,
11411,-79,-262,965,-490,-700,0,,,,,,,0x03,
11421,-80,-263,964,-490,-700,-70,,,,,,,0x03,
11431,-79,-262,965,-420,-700,-70,,,,,,,0x03,
11440,-79,-262,965,-490,-770,0,,,,,,,0x03,
11450,-80,-264,966,-350,-700,0,,,,,,,0x03,
11459,-79,-261,966,-280,-770,-70,,,,,,,0x03,
11469,-81,-263,966,-280,-770,-70,,,,,,,0x03,
11479,-80,-263,965,-350,-770,-70,,,,,,,0x03,
11488,-79,-263,964,-350,-700,-70,,,,,,,0x03,
11498,-82,-262,965,-350,-700,-70,,,,,,,0x03,
11508,-81,-260,966,-350,-700,-210,,,,,,,0x03,
11517,-79,-259,966,-420,-770,-210,,,,,,,0x03,
11527,-79,-260,967,-420,-770,-140,,,,,,,0x03,
11537,-78,-261,966,-560,-700,-140,,,,,,,0x03,
11546,-78,-262,965,-490,-700,-140,,,,,,,0x03,
11556,-78,-262,966,-560,-700,-210,,,,,,,0x03,
11566,-79,-262,966,-630,-770,-140,,,,,,,0x03,
11575,-78,-264,966,-630,-770,-140,,,,,,,0x03,
11585,-78,-264,965,-560,-770,-140,,,,,,,0x03,
11594,-78,-265,965,-490,-700,-140,,,,,,,0x03,
11604,-79,-265,964,-420,-700,-140,,,,,,,0x03,
11614,-80,-264,964,-420,-630,-210,,,,,,,0x03,
11623,-80,-261,966,-560,-630,-210,,,,,,,0x03,
11633,-79,-260,967,-630,-700,-280,,,,,,,0x03,
11643,-79,-261,967,-630,-700,-210,,,,,,,0x03,
11652,-78,-262,968,-700,-700,-280,,,,,,,0x03,
11662,-78,-264,966,-700,-630,-280,,,,,,,0x03,
11672,-75,-265,965,-630,-630,-210,,,,,,,0x03,
11681,-77,-266,965,-700,-630,-210,,,,,,,0x03,
11691,-78,-267,964,-630,-630,-210,,,,,,,0x03,
11700,-78,-266,964,-420,-630,-140,,,,,,,0x03,
11710,-78,-264,965,-280,-560,-140,,,,,,,0x03,
11720,-79,-264,964,-280,-630,-70,,,,,,,0x03,
11729,-78,-264,964,-280,-630,-140,,,,,,,0x03,
11739,-80,-264,965,-280,-630,-210,,,,,,,0x03,
11749,-80,-265,966,-140,-630,-210,,,,,,,0x03,
11758,-80,-264,964,-70,-630,-210,,,,,,,0x03,
11768,-80,-263,964,-70,-630,-210,,,,,,,0x03,
11778,-80,-264,965,-140,-700,-280,,,,,,,0x03,
11787,-78,-262,965,-70,-700,-280,,,,,,,0x03,
11797,-78,-262,966,-70,-700,-350,,,,,,,0x03,
11806,-78,-262,966,-210,-700,-350,,,,,,,0x03,
11816,-78,-261,965,-280,-630,-280,,,,,,,0x03,
11826,-79,-262,965,-280,-700,-280,,,,,,,0x03,
11835,-78,-264,965,-350,-700,-210,,,,,,,0x03,
11845,-77,-265,965,-420,-700,-210,,,,,,,0x03,
11855,-78,-265,965,-280,-700,-140,,,,,,,0x03,
11864,-78,-265,964,-280,-700,-140,,,,,,,0x03,
11874,-79,-263,965,-280,-700,-210,,,,,,,0x03,
11884,-79,-264,965,-280,-700,-210,,,,,,,0x03,
11893,-77,-265,965,-210,-770,-210,,,,,,,0x03,
11903,-78,-264,965,-70,-770,-210,,,,,,,0x03,
11912,-77,-265,965,-70,-700,-210,,,,,,,0x03,
11922,-78,-265,965,-140,-700,-210,,,,,,,0x03,
11932,-77,-264,966,-140,-700,-210,,,,,,,0x03,
11941,-76,-261,966,-70,-700,-140,,,,,,,0x03,
11951,-77,-263,966,-140,-700,-140,,,,,,,0x03,
11961,-78,-262,965,-210,-630,-70,,,,,,,0x03,
11970,-76,-264,965,-210,-700,-140,,,,,,,0x03,
11980,-78,-264,964,-280,-700,-70,,,,,,,0x03,
11990,-78,-263,965,-350,-700,0,,,,,,,0x03,
11999,-79,-264,966,-350,-700,-70,,,,,,,0x03,
12009,-79,-263,966,-210,-700,0,,,,,,,0x03,
12018,-79,-265,965,-210,-630,-70,,,,,,,0x03,
12028,-79,-266,964,-210,-700,-140,,,,,,,0x03,
12038,-79,-266,964,-280,-700,-210,,,,,,,0x03,
12047,-79,-266,965,-280,-700,-210,,,,,,,0x03,
12057,-79,-264,965,-280,-700,-210,,,,,,,0x03,
12067,-80,-263,965,-140,-700,-280,,,,,,,0x03,
12076,-79,-262,964,-210,-700,-280,,,,,,,0x03,
12086,-79,-263,965,-210,-700,-140,,,,,,,0x03,
12096,-80,-264,964,-350,-700,-210,,,,,,,0x03,
12105,-79,-264,965,-350,-770,-210,,,,,,,0x03,
12115,-79,-264,965,-280,-700,-210,,,,,,,0x03,
12125,-80,-265,965,-350,-700,-210,,,,,,,0x03,
12134,-78,-266,966,-420,-770,-140,,,,,,,0x03,
12144,-79,-265,965,-350,-770,-210,,,,,,,0x03,
12153,-79,-265,966,-350,-700,-280,,,,,,,0x03,
12163,-80,-266,966,-350,-700,-280,,,,,,,0x03,
12173,-79,-266,965,-280,-700,-280,,,,,,,0x03,
12182,-78,-266,965,-70,-700,-280,,,,,,,0x03,
12192,-78,-266,965,-70,-630,-280,,,,,,,0x03,
12202,-78,-265,964,-140,-630,-210,,,,,,,0x03,
12211,-78,-265,964,-70,-700,-210,,,,,,,0x03,
12221,-78,-264,965,-70,-700,-210,,,,,,,0x03,
12231,-78,-264,965,-70,-700,-140,,,,,,,0x03,
12240,-78,-263,965,0,-700,-70,,,,,,,0x03,
12250,-77,-263,965,-70,-700,-140,,,,,,,0x03,
12259,-78,-263,965,-210,-700,-70,,,,,,,0x03,
12269,-77,-264,966,-210,-770,-70,,,,,,,0x03,
12279,-77,-266,964,-140,-700,-70,,,,,,,0x03,
12288,-79,-265,965,-140,-700,-140,,,,,,,0x03,
12298,-78,-265,965,-280,-700,-140,,,,,,,0x03,
12308,-78,-265,966,-210,-700,-210,,,,,,,0x03,
12317,-78,-264,965,-210,-700,-210,,,,,,,0x03,
12327,-77,-264,965,-350,-630,-210,,,,,,,0x03,
12337,-78,-264,965,-280,-630,-210,,,,,,,0x03,
12346,-77,-262,966,-350,-630,-140,,,,,,,0x03,
12356,-77,-263,965,-420,-630,-140,,,,,,,0x03,
12365,-78,-263,965,-420,-630,0,,,,,,,0x03,
12375,-78,-265,966,-490,-630,70,,,,,,,0x03,
12385,-79,-266,965,-560,-630,0,,,,,,,0x03,
12394,-81,-267,964,-560,-630,70,,,,,,,0x03,
12404,-81,-267,964,-350,-630,0,,,,,,,0x03,
12414,-82,-267,964,-280,-630,-70,,,,,,,0x03,
12423,-82,-266,964,-210,-700,-140,,,,,,,0x03,
12433,-82,-267,965,-140,-700,-140,,,,,,,0x03,
12443,-81,-266,964,0,-700,-280,,,,,,,0x03,
12452,-79,-264,964,140,-770,-280,,,,,,,0x03,
12462,-79,-265,965,140,-700,-280,,,,,,,0x03,
12471,-79,-264,965,140,-770,-210,,,,,,,0x03,
12481,-77,-265,964,70,-700,-210,,,,,,,0x03,
12491,-79,-265,965,0,-700,-280,,,,,,,0x03,
12500,-79,-263,966,70,-700,-280,,,,,,,0x03,
12510,-78,-263,965,0,-700,-210,,,,,,,0x03,
12520,-76,-264,965,-70,-700,-210,,,,,,,0x03,
12529,-78,-265,965,-140,-700,-210,,,,,,,0x03,
12539,-77,-264,965,-210,-700,-280,,,,,,,0x03,
12549,-77,-264,965,-210,-700,-210,,,,,,,0x03,
12558,-77,-264,966,-350,-700,-210,,,,,,,0x03,
12568,-77,-265,965,-280,-700,-140,,,,,,,0x03,
12577,-77,-265,965,-280,-630,-210,,,,,,,0x03,
12587,-78,-265,965,-350,-630,-140,,,,,,,0x03,
12597,-78,-267,964,-280,-630,-140,,,,,,,0x03,
12606,-78,-266,963,-210,-700,-140,,,,,,,0x03,
12616,-77,-265,965,-210,-700,-140,,,,,,,0x03,
12626,-79,-264,964,-210,-700,-70,,,,,,,0x03,
12635,-79,-263,963,-140,-700,-70,,,,,,,0x03,
12645,-79,-261,964,-210,-700,-70,,,,,,,0x03,
12655,-78,-261,966,-560,-770,-70,,,,,,,0x03,
12664,-79,-264,966,-630,-770,0,,,,,,,0x03,
12674,-78,-265,967,-490,-770,70,,,,,,,0x03,
12684,-80,-266,965,-350,-700,70,,,,,,,0x03,
12693,-78,-267,965,-350,-630,0,,,,,,,0x03,
12703,-79,-270,964,-420,-630,-70,,,,,,,0x03,
12712,-79,-271,964,-280,-700,-140,,,,,,,0x03,
12722,-79,-270,964,140,-700,-210,,,,,,,0x03,
12732,-79,-268,963,280,-700,-280,,,,,,,0x03,
12741,-79,-265,964,210,-700,-210,,,,,,,0x03,
12751,-79,-262,965,140,-770,-210,,,,,,,0x03,
12761,-77,-261,965,140,-770,-140,,,,,,,0x03,
12770,-78,-261,966,140,-770,-70,,,,,,,0x03,
12780,-78,-262,965,0,-770,-70,,,,,,,0x03,
12790,-79,-264,965,-140,-770,-70,,,,,,,0x03,
12799,-79,-264,965,-210,-770,-70,,,,,,,0x03,
12809,-79,-267,966,-280,-700,-70,,,,,,,0x03,
12818,-78,-267,965,-140,-770,-70,,,,,,,0x03,
12828,-78,-265,965,-70,-700,-140,,,,,,,0x03,
12838,-78,-265,964,-140,-700,-210,,,,,,,0x03,
12847,-79,-266,965,-210,-700,-210,,,,,,,0x03,
12857,-78,-265,965,-140,-700,-140,,,,,,,0x03,
12867,-77,-264,964,-140,-700,-210,,,,,,,0x03,
12876,-78,-263,964,-140,-700,-140,,,,,,,0x03,
12886,-78,-264,965,-210,-770,-70,,,,,,,0x03,
12896,-78,-265,965,-280,-770,-70,,,,,,,0x03,
12905,-78,-265,965,-210,-700,-140,,,,,,,0x03,
12915,-76,-266,964,-280,-700,-140,,,,,,,0x03,
12924,-78,-266,965,-210,-700,-70,,,,,,,0x03,
12934,-79,-265,965,-280,-770,-70,,,,,,,0x03,
12944,-79,-266,965,-210,-700,-70,,,,,,,0x03,
12953,-79,-266,965,-140,-700,-70,,,,,,,0x03,
12963,-79,-266,965,-70,-770,-70,,,,,,,0x03,
12973,-79,-266,964,-70,-770,-210,,,,,,,0x03,
12982,-77,-266,965,-70,-770,-140,,,,,,,0x03,
12992,-78,-265,965,-70,-700,-210,,,,,,,0x03,
13002,-78,-264,966,-140,-700,-210,,,,,,,0x03,
13011,-78,-264,965,-70,-700,-210,,,,,,,0x03,
13021,-76,-262,966,-140,-630,-140,,,,,,,0x03,
13030,-79,-263,965,-350,-630,-140,,,,,,,0x03,
13040,-78,-263,965,-420,-700,-70,,,,,,,0x03,
13050,-78,-262,963,-490,-700,-140,,,,,,,0x03,
13059,-79,-260,962,-490,-630,-140,,,,,,,0x03,
13069,-78,-261,966,-980,-700,-140,,,,,,,0x03,
13079,-78,-265,967,-1120,-770,-70,,,,,,,0x03,
13088,-79,-267,967,-840,-770,-70,,,,,,,0x03,
13098,-78,-269,967,-700,-700,0,,,,,,,0x03,
13108,-79,-268,964,-630,-700,140,,,,,,,0x03,
13117,-78,-273,964,-560,-700,-70,,,,,,,0x03,
13127,-79,-273,964,-350,-700,-140,,,,,,,0x03,
13136,-80,-275,963,140,-770,-210,,,,,,,0x03,
13146,-79,-272,965,420,-700,-210,,,,,,,0x03,
13156,-79,-270,965,560,-700,-280,,,,,,,0x03,
13165,-80,-267,965,840,-770,-280,,,,,,,0x03,
13175,-78,-268,965,980,-770,-280,,,,,,,0x03,
13185,-78,-270,963,1190,-840,-280,,,,,,,0x03,
13194,-78,-270,965,1330,-770,-280,,,,,,,0x03,
13204,-78,-269,962,1400,-840,-280,,,,,,,0x03,
13214,-77,-266,963,1820,-910,-350,,,,,,,0x03,
13223,-78,-263,963,1610,-840,-420,,,,,,,0x03,
13233,-80,-258,963,1540,-840,-420,,,,,,,0x03,
13243,-77,-255,964,1330,-980,-420,,,,,,,0x03,
13252,-77,-255,967,910,-910,-280,,,,,,,0x03,
13262,-76,-254,969,490,-840,-210,,,,,,,0x03,
13271,-77,-253,968,280,-840,-70,,,,,,,0x03,
13281,-76,-253,967,-140,-770,0,,,,,,,0x03,
13291,-76,-257,968,-770,-700,70,,,,,,,0x03,
13300,-79,-263,966,-1120,-700,0,,,,,,,0x03,
13310,-79,-266,966,-980,-630,0,,,,,,,0x03,
13320,-79,-267,965,-840,-700,-70,,,,,,,0x03,
13329,-80,-268,965,-770,-560,-70,,,,,,,0x03,
13339,-80,-269,965,-700,-630,-210,,,,,,,0x03,
13349,-78,-268,963,-560,-630,-280,,,,,,,0x03,
13358,-78,-266,965,-350,-630,-280,,,,,,,0x03,
13368,-78,-266,965,-350,-700,-280,,,,,,,0x03,
13377,-78,-263,965,-70,-700,-350,,,,,,,0x03,
13387,-78,-262,966,-140,-700,-210,,,,,,,0x03,
13397,-78,-263,964,-210,-700,-140,,,,,,,0x03,
13406,-78,-265,964,-210,-700,-140,,,,,,,0x03,
13416,-78,-265,964,-280,-700,-140,,,,,,,0x03,
13426,-77,-266,966,-280,-700,-140,,,,,,,0x03,
13435,-77,-265,966,-70,-770,-70,,,,,,,0x03,
13445,-76,-264,965,0,-700,-70,,,,,,,0x03,
13455,-78,-267,965,0,-700,-70,,,,,,,0x03,
13464,-77,-267,964,70,-770,-70,,,,,,,0x03,
13474,-77,-265,965,210,-770,-140,,,,,,,0x03,
13483,-77,-265,965,280,-700,-70,,,,,,,0x03,
13493,-77,-263,965,280,-770,-70,,,,,,,0x03,
13503,-78,-261,965,140,-770,-70,,,,,,,0x03,
13512,-77,-261,966,0,-770,-70,,,,,,,0x03,
13522,-77,-261,966,-70,-700,-70,,,,,,,0x03,
13532,-78,-262,965,-210,-770,-70,,,,,,,0x03,
13541,-77,-263,964,-140,-700,-70,,,,,,,0x03,
13551,-78,-263,965,-280,-700,-70,,,,,,,0x03,
13561,-79,-264,964,-420,-700,-70,,,,,,,0x03,
13570,-79,-264,965,-350,-770,-70,,,,,,,0x03,
13580,-78,-264,965,-280,-770,-140,,,,,,,0x03,
13589,-79,-263,965,-280,-700,-140,,,,,,,0x03,
13599,-78,-265,965,-210,-770,-70,,,,,,,0x03,
13609,-79,-265,964,-70,-770,-70,,,,,,,0x03,
13618,-78,-266,967,-210,-700,-70,,,,,,,0x03,
13628,-78,-265,965,-140,-770,-70,,,,,,,0x03,
13638,-78,-262,965,70,-700,-140,,,,,,,0x03,
13647,-81,-263,966,-70,-700,-210,,,,,,,0x03,
13657,-78,-262,964,-70,-700,-210,,,,,,,0x03,
13667,-77,-261,965,-140,-770,-280,,,,,,,0x03,
13676,-78,-262,966,-350,-770,-280,,,,,,,0x03,
13686,-78,-261,965,-420,-700,-280,,,,,,,0x03,
13695,-77,-259,965,-490,-630,-280,,,,,,,0x03,
13705,-76,-258,966,-770,-560,-350,,,,,,,0x03,
13715,-77,-257,966,-1190,-560,-280,,,,,,,0x03,
13724,-77,-259,967,-1470,-560,-210,,,,,,,0x03,
13734,-77,-261,966,-1610,-630,-140,,,,,,,0x03,
13744,-78,-265,966,-1680,-560,-70,,,,,,,0x03,
13753,-78,-269,965,-1610,-560,0,,,,,,,0x03,
13763,-78,-271,963,-1540,-630,-70,,,,,,,0x03,
13773,-80,-274,963,-1330,-630,-70,,,,,,,0x03,
13782,-79,-271,965,-1050,-630,-140,,,,,,,0x03,
13792,-81,-272,965,-910,-700,-210,,,,,,,0x03,
13802,-78,-269,964,-630,-700,-280,,,,,,,0x03,
13811,-77,-269,964,-420,-700,-280,,,,,,,0x03,
13821,-78,-268,963,-280,-700,-280,,,,,,,0x03,
13830,-79,-263,964,-350,-700,-280,,,,,,,0x03,
13840,-80,-261,967,-560,-700,-350,,,,,,,0x03,
13850,-78,-264,967,-700,-770,-210,,,,,,,0x03,
13859,-79,-266,966,-700,-770,-140,,,,,,,0x03,
13869,-78,-270,965,-560,-700,-70,,,,,,,0x03,
13879,-77,-271,963,-490,-700,-70,,,,,,,0x03,
13888,-77,-271,964,-420,-700,-70,,,,,,,0x03,
13898,-78,-273,963,-350,-770,-140,,,,,,,0x03,
13908,-77,-271,963,-70,-700,-210,,,,,,,0x03,
13917,-77,-269,965,140,-700,-210,,,,,,,0x03,
13927,-78,-268,966,140,-770,-280,,,,,,,0x03,
13936,-77,-266,964,280,-770,-280,,,,,,,0x03,
13946,-77,-265,965,280,-770,-280,,,,,,,0x03,
13956,-77,-264,966,70,-700,-140,,,,,,,0x03,
13965,-77,-264,964,70,-770,-140,,,,,,,0x03,
13975,-76,-263,966,-70,-700,-70,,,,,,,0x03,
13985,-78,-265,965,-280,-700,-70,,,,,,,0x03,
13994,-77,-266,965,-210,-770,0,,,,,,,0x03,
14004,-76,-266,966,-140,-700,0,,,,,,,0x03,
14014,-77,-268,965,-280,-700,70,,,,,,,0x03,
14023,-76,-270,964,-280,-770,0,,,,,,,0x03,
14033,-77,-269,964,-210,-700,0,,,,,,,0x03,
14042,-77,-269,964,-140,-700,-70,,,,,,,0x03,
14052,-78,-267,963,-70,-700,0,,,,,,,0x03,
14062,-79,-267,964,0,-700,-70,,,,,,,0x03,
14071,-77,-266,966,0,-700,0,,,,,,,0x03,
14081,-78,-266,965,0,-770,0,,,,,,,0x03,
14091,-77,-266,965,70,-770,0,,,,,,,0x03,
14100,-78,-267,965,70,-770,70,,,,,,,0x03,
14110,-79,-267,965,0,-700,0,,,,,,,0x03,
14120,-80,-267,966,-70,-770,70,,,,,,,0x03,
14129,-79,-268,965,70,-770,70,,,,,,,0x03,
14139,-78,-267,964,210,-770,70,,,,,,,0x03,
14148,-78,-266,963,140,-770,0,,,,,,,0x03,
14158,-78,-265,966,140,-770,-70,,,,,,,0x03,
14168,-78,-265,966,140,-700,-70,,,,,,,0x03,
14177,-78,-265,966,140,-700,-70,,,,,,,0x03,
14187,-78,-266,963,280,-770,-140,,,,,,,0x03,
14197,-78,-264,965,140,-700,-140,,,,,,,0x03,
14206,-79,-264,965,0,-700,-140,,,,,,,0x03,
14216,-80,-266,967,0,-700,-210,,,,,,,0x03,
14226,-78,-266,966,70,-700,-140,,,,,,,0x03,
14235,-78,-268,964,140,-630,-140,,,,,,,0x03,
14245,-76,-267,962,140,-630,-210,,,,,,,0x03,
14254,-78,-265,964,-70,-630,-280,,,,,,,0x03,
14264,-78,-266,964,-140,-700,-210,,,,,,,0x03,
14274,-77,-264,966,0,-700,-210,,,,,,,0x03,
14283,-77,-263,967,0,-700,-140,,,,,,,0x03,
14293,-77,-263,965,0,-700,-140,,,,,,,0x03,
14303,-78,-267,966,-140,-700,-70,,,,,,,0x03,
14312,-80,-274,963,-70,-770,-70,,,,,,,0x03,
14322,-80,-271,963,350,-700,-140,,,,,,,0x03,
14332,-80,-269,964,490,-700,-280,,,,,,,0x03,
14341,-79,-266,963,420,-700,-280,,,,,,,0x03,
14351,-77,-263,965,350,-630,-350,,,,,,,0x03,
14361,-77,-261,965,350,-700,-350,,,,,,,0x03,
14370,-75,-259,966,280,-700,-350,,,,,,,0x03,
14380,-75,-257,967,0,-630,-280,,,,,,,0x03,
14389,-75,-259,967,-350,-630,-140,,,,,,,0x03,
14399,-75,-260,966,-560,-630,-70,,,,,,,0x03,
14409,-77,-263,965,-700,-630,70,,,,,,,0x03,
14418,-77,-266,964,-840,-630,70,,,,,,,0x03,
14428,-79,-268,964,-840,-560,0,,,,,,,0x03,
14438,-80,-270,964,-770,-630,0,,,,,,,0x03,
14447,-80,-270,963,-630,-560,-70,,,,,,,0x03,
14457,-80,-271,964,-420,-630,-140,,,,,,,0x03,
14467,-80,-269,964,-140,-630,-210,,,,,,,0x03,
14476,-79,-268,964,-70,-630,-280,,,,,,,0x03,
14486,-80,-268,965,70,-700,-280,,,,,,,0x03,
14495,-79,-265,964,70,-700,-280,,,,,,,0x03,
14505,-79,-265,965,70,-630,-280,,,,,,,0x03,
14515,-79,-264,965,0,-700,-280,,,,,,,0x03,
14524,-78,-264,965,70,-630,-280,,,,,,,0x03,
14534,-78,-264,965,-140,-700,-140,,,,,,,0x03,
14544,-76,-264,964,-140,-700,-140,,,,,,,0x03,
14553,-78,-265,965,-140,-700,-70,,,,,,,0x03,
14563,-78,-266,964,-210,-700,-70,,,,,,,0x03,
14573,-78,-266,964,-140,-700,-140,,,,,,,0x03,
14582,-78,-266,965,-140,-770,-210,,,,,,,0x03,
14592,-77,-266,965,-140,-770,-210,,,,,,,0x03,
14601,-78,-266,965,-140,-700,-210,,,,,,,0x03,
14611,-78,-265,966,-140,-700,-210,,,,,,,0x03,
14621,-77,-266,964,-280,-700,-210,,,,,,,0x03,
14630,-77,-265,965,-350,-630,-210,,,,,,,0x03,
14640,-77,-264,965,-350,-630,-210,,,,,,,0x03,
14650,-78,-263,965,-420,-630,-210,,,,,,,0x03,
