#Format version: 1.0
time[ms],accX[mg],accY[mg],accZ[mg],gyroX[mdps],gyroY[mdps],gyroZ[mdps],magnX[mG],magnY[mG],magnZ[mG],press[hPa],temp[°C],hum[0,-1005,141,-83,36470,6580,-18900,,,,,,,0x03,
10,-985,165,-92,27930,630,-11060,,,,,,,0x03,
19,-968,161,-102,21210,-4200,-4270,,,,,,,0x03,
29,-949,146,-108,17220,-7770,-1680,,,,,,,0x03,
39,-926,142,-109,14560,-9380,-1330,,,,,,,0x03,
48,-913,171,-101,12390,-8820,-560,,,,,,,0x03,
58,-899,199,-54,7350,-7980,1750,,,,,,,0x03,
68,-898,212,-15,-7490,-9100,7210,,,,,,,0x03,
77,-914,204,-30,-30100,-12110,14630,,,,,,,0x03,
87,-954,157,-104,-48370,-14560,20300,,,,,,,0x03,
97,-992,97,-165,-48300,-11760,20930,,,,,,,0x03,
106,-1016,64,-150,-31570,-6090,14420,,,,,,,0x03,
116,-1024,80,-104,-16940,-3850,4900,,,,,,,0x03,
126,-1030,111,-85,-12390,-4060,-490,,,,,,,0x03,
135,-983,178,-100,-11200,-6720,-2660,,,,,,,0x03,
145,-1068,62,-93,-8820,-6860,-4970,,,,,,,0x03,
155,-968,122,-60,-2100,-5110,-5180,,,,,,,0x03,
164,-965,134,-85,-770,-12390,-8890,,,,,,,0x03,
174,-954,156,-118,-280,-14280,-10570,,,,,,,0x03,
184,-937,178,-106,980,-14420,-11620,,,,,,,0x03,
193,-926,204,-106,-2240,-14420,-10780,,,,,,,0x03,
203,-919,224,-87,-4200,-14490,-8820,,,,,,,0x03,
213,-933,216,-86,-9800,-14420,-4480,,,,,,,0x03,
222,-954,195,-97,-16520,-12950,-1050,,,,,,,0x03,
232,-983,158,-104,-21560,-10430,1120,,,,,,,0x03,
242,-1005,123,-109,-23520,-8540,70,,,,,,,0x03,
251,-1072,43,-101,-21770,-4760,-1470,,,,,,,0x03,
261,-1056,38,-86,-16590,-1470,-9030,,,,,,,0x03,
271,-1035,29,-87,-9940,-1190,-15820,,,,,,,0x03,
280,-1081,-18,-55,-630,-420,-23170,,,,,,,0x03,
290,-1038,-6,-59,8120,770,-30170,,,,,,,0x03,
300,-988,44,-51,14210,490,-40670,,,,,,,0x03,
309,-973,100,-61,15610,1960,-45220,,,,,,,0x03,
319,-953,164,-74,15680,2030,-47110,,,,,,,0x03,
329,-927,226,-53,15050,2520,-45220,,,,,,,0x03,
338,-905,265,-26,10150,2520,-38640,,,,,,,0x03,
348,-902,272,-21,-630,-140,-28910,,,,,,,0x03,
358,-908,244,-46,-13650,-4130,-17710,,,,,,,0x03,
367,-935,187,-73,-23800,-6230,-7280,,,,,,,0x03,
377,-976,116,-95,-30030,-5670,-140,,,,,,,0x03,
387,-1019,63,-107,-32270,-4060,4200,,,,,,,0x03,
396,-1041,24,-94,-30660,-3360,6020,,,,,,,0x03,
406,-1055,0,-67,-28420,-2800,6580,,,,,,,0x03,
416,-1065,-11,-47,-28000,-3150,6020,,,,,,,0x03,
425,-1083,-14,-61,-28280,-4830,3710,,,,,,,0x03,
435,-1084,-6,-69,-24570,-6300,-420,,,,,,,0x03,
444,-1062,11,-69,-21490,-6930,-3570,,,,,,,0x03,
454,-1037,30,-84,-20720,-7490,-5110,,,,,,,0x03,
464,-1005,51,-90,-18550,-8400,-5810,,,,,,,0x03,
473,-963,74,-89,-15890,-10150,-6790,,,,,,,0x03,
483,-990,27,-94,-13300,-12530,-910,,,,,,,0x03,
493,-979,23,-104,-13720,-9450,-4900,,,,,,,0x03,
502,-958,23,-104,-9800,-10080,-5110,,,,,,,0x03,
512,-965,3,-110,-7070,-10010,-6160,,,,,,,0x03,
522,-941,10,-110,-4410,-9660,-8470,,,,,,,0x03,
531,-929,29,-128,-3290,-7700,-10010,,,,,,,0x03,
541,-912,53,-132,-700,-2520,-9170,,,,,,,0x03,
551,-923,65,-118,2100,5250,-7350,,,,,,,0x03,
560,-950,53,-64,4970,11760,-6440,,,,,,,0x03,
570,-971,36,-29,-210,17430,-5110,,,,,,,0x03,
580,-1108,-72,-79,-13510,25690,-2590,,,,,,,0x03,
589,-1171,-154,-135,-17010,35140,-9660,,,,,,,0x03,
599,-1221,-227,-207,-7910,46270,-26250,,,,,,,0x03,
609,-1209,-235,-194,18970,54670,-47180,,,,,,,0x03,
618,-1134,-152,-133,44520,50610,-68670,,,,,,,0x03,
628,-1072,-73,-110,59990,42070,-83720,,,,,,,0x03,
638,-1045,-46,-91,71680,33250,-90300,,,,,,,0x03,
647,-1054,-46,-78,79730,24150,-91000,,,,,,,0x03,
657,-1018,-57,-89,81130,18830,-89040,,,,,,,0x03,
667,-1015,-75,-128,83790,17500,-84070,,,,,,,0x03,
676,-1035,-109,-120,93310,18410,-76930,,,,,,,0x03,
686,-1027,-114,-50,97300,21000,-71960,,,,,,,0x03,
696,-1019,-107,-5,81480,21420,-67830,,,,,,,0x03,
705,-1023,-113,-13,58590,14000,-63210,,,,,,,0x03,
715,-991,-101,-16,37520,9940,-58380,,,,,,,0x03,
725,-964,-89,-23,15750,10710,-50470,,,,,,,0x03,
734,-965,-87,-66,70,8680,-41930,,,,,,,0x03,
744,-947,-65,-98,-4340,2940,-36960,,,,,,,0x03,
754,-923,-28,-105,-6580,-910,-34440,,,,,,,0x03,
763,-910,-1,-102,-14420,-560,-30030,,,,,,,0x03,
773,-905,-10,-125,-28560,-1540,-21630,,,,,,,0x03,
783,-922,-69,-194,-41790,-2590,-13720,,,,,,,0x03,
792,-926,-151,-222,-43960,-980,-8890,,,,,,,0x03,
802,-925,-245,-161,-38360,980,-7490,,,,,,,0x03,
812,-944,-330,-84,-35000,-910,-8750,,,,,,,0x03,
821,-974,-374,-69,-38010,-7210,-12880,,,,,,,0x03,
831,-974,-389,-73,-44310,-9170,-19390,,,,,,,0x03,
841,-1001,-411,-33,-58800,-3220,-25480,,,,,,,0x03,
850,-1016,-396,-79,-71120,-13440,-33810,,,,,,,0x03,
860,-1053,-397,-119,-70560,-23310,-41440,,,,,,,0x03,
870,-1058,-394,-128,-63420,-25480,-48580,,,,,,,0x03,
879,-1032,-377,-140,-54110,-28070,-58100,,,,,,,0x03,
889,-996,-371,-177,-39130,-30590,-65660,,,,,,,0x03,
899,-993,-376,-178,-15260,-28630,-71680,,,,,,,0x03,
908,-1007,-392,-149,8260,-22750,-80290,,,,,,,0x03,
918,-1018,-409,-134,29680,-18620,-92050,,,,,,,0x03,
928,-1003,-399,-110,50750,-15120,-105070,,,,,,,0x03,
937,-993,-370,-80,67480,-10710,-113960,,,,,,,0x03,
947,-974,-324,-59,77350,-7000,-118230,,,,,,,0x03,
957,-974,-287,-58,84280,-4550,-121170,,,,,,,0x03,
966,-962,-235,-41,92260,-3920,-121520,,,,,,,0x03,
976,-940,-179,-8,94640,-2870,-116270,,,,,,,0x03,
986,-958,-181,15,89670,-4970,-108570,,,,,,,0x03,
995,-928,-197,40,82600,-10430,-98560,,,,,,,0x03,
1005,-918,-233,68,70770,-20230,-92610,,,,,,,0x03,
1015,-917,-253,43,55720,-32480,-87710,,,,,,,0x03,
1024,-915,-268,11,46200,-39900,-80990,,,,,,,0x03,
1034,-898,-286,-7,44380,-42070,-74550,,,,,,,0x03,
1044,-918,-292,-8,46270,-43470,-66570,,,,,,,0x03,
1053,-922,-264,-15,52220,-46690,-55230,,,,,,,0x03,
1063,-877,-228,25,57890,-47250,-43470,,,,,,,0x03,
1073,-852,-218,68,52640,-46760,-29540,,,,,,,0x03,
1082,-843,-250,77,38640,-49980,-13860,,,,,,,0x03,
1092,-850,-290,60,25550,-55300,0,,,,,,,0x03,
1102,-848,-312,44,15610,-57610,10710,,,,,,,0x03,
1111,-846,-320,33,7210,-57190,18270,,,,,,,0x03,
1121,-838,-328,3,-280,-54740,24360,,,,,,,0x03,
1131,-907,-413,-48,-1330,-49560,29470,,,,,,,0x03,
1140,-885,-404,2,12880,-49280,25900,,,,,,,0x03,
1150,-889,-378,-10,17080,-47250,19670,,,,,,,0x03,
1160,-867,-392,-18,21700,-37520,15400,,,,,,,0x03,
1169,-886,-381,14,28700,-29470,13300,,,,,,,0x03,
1179,-890,-368,34,31150,-24360,15960,,,,,,,0x03,
1189,-889,-365,48,29540,-18340,20860,,,,,,,0x03,
1198,-891,-378,55,26110,-11830,23380,,,,,,,0x03,
1208,-910,-397,74,23100,-4340,19950,,,,,,,0x03,
1218,-912,-402,101,19040,3780,12950,,,,,,,0x03,
1227,-905,-384,128,12740,9170,6370,,,,,,,0x03,
1237,-897,-371,106,5040,8890,3570,,,,,,,0x03,
1247,-908,-362,66,-560,8330,3430,,,,,,,0x03,
1256,-901,-343,54,-3010,9800,560,,,,,,,0x03,
1266,-872,-328,10,-10570,6160,-840,,,,,,,0x03,
1276,-847,-332,-107,-29750,3360,1050,,,,,,,0x03,
1285,-858,-348,-62,-28140,14700,2240,,,,,,,0x03,
1295,-868,-325,117,-18410,20790,2590,,,,,,,0x03,
1304,-889,-287,192,-28700,16450,3570,,,,,,,0x03,
1314,-908,-319,143,-50960,12320,7560,,,,,,,0x03,
1324,-923,-373,150,-69020,10920,10570,,,,,,,0x03,
1333,-942,-385,129,-90650,11130,11760,,,,,,,0x03,
1343,-952,-381,28,-104790,10010,11200,,,,,,,0x03,
1353,-976,-414,-1,-93730,13510,10920,,,,,,,0x03,
1362,-998,-450,56,-74410,22330,10220,,,,,,,0x03,
1372,-1037,-485,44,-67480,27300,5740,,,,,,,0x03,
1382,-1048,-522,-10,-60900,30030,-1400,,,,,,,0x03,
1391,-1043,-546,-29,-46970,32690,-9660,,,,,,,0x03,
1401,-1030,-554,-27,-33040,32830,-16310,,,,,,,0x03,
1411,-1002,-556,-24,-20860,26460,-22120,,,,,,,0x03,
1420,-983,-532,-26,-8960,16660,-26880,,,,,,,0x03,
1430,-957,-478,-8,350,11550,-29960,,,,,,,0x03,
1440,-934,-421,30,2240,9800,-29610,,,,,,,0x03,
1449,-932,-388,20,-1750,7000,-26530,,,,,,,0x03,
1459,-929,-367,12,-3850,4270,-22890,,,,,,,0x03,
1469,-926,-353,2,-6650,3850,-19040,,,,,,,0x03,
1478,-928,-359,-23,-9380,6160,-15610,,,,,,,0x03,
1488,-935,-380,-40,-8470,8470,-11900,,,,,,,0x03,
1498,-947,-415,-69,-4480,10780,-8680,,,,,,,0x03,
1507,-947,-452,-72,2870,12530,-8050,,,,,,,0x03,
1517,-930,-453,-61,10570,13580,-9660,,,,,,,0x03,
1527,-902,-449,-44,17990,14000,-10430,,,,,,,0x03,
1536,-893,-447,-8,23450,11830,-8680,,,,,,,0x03,
1546,-888,-454,-27,25410,9030,-7210,,,,,,,0x03,
1556,-894,-461,-27,29470,8820,-7910,,,,,,,0x03,
1565,-899,-453,-11,30940,13510,-10570,,,,,,,0x03,
1575,-901,-461,-28,29260,19530,-14070,,,,,,,0x03,
1585,-869,-425,-12,27510,22820,-17150,,,,,,,0x03,
1594,-873,-424,-4,20580,31010,-17360,,,,,,,0x03,
1604,-891,-438,2,13930,37310,-16660,,,,,,,0x03,
1614,-826,-336,-87,13230,36540,-18060,,,,,,,0x03,
1623,-714,-234,35,10570,46340,9800,,,,,,,0x03,
1633,-896,-422,33,-8470,30240,24570,,,,,,,0x03,
1643,-860,-464,-122,-10640,13090,18760,,,,,,,0x03,
1652,-932,-528,-35,-1960,13020,20160,,,,,,,0x03,
1662,-962,-567,-3,280,12110,12250,,,,,,,0x03,
1672,-956,-543,-72,3010,5320,5390,,,,,,,0x03,
1681,-914,-439,-62,10570,5530,-420,,,,,,,0x03,
1691,-858,-413,-69,9590,10150,-2240,,,,,,,0x03,
1701,-909,-444,-61,11270,9520,5110,,,,,,,0x03,
1710,-920,-419,-40,14000,8190,12110,,,,,,,0x03,
1720,-914,-391,-99,13020,7490,17640,,,,,,,0x03,
1730,-930,-327,0,11480,7140,22050,,,,,,,0x03,
1739,-930,-359,4,910,8050,19600,,,,,,,0x03,
1749,-962,-444,-9,-11200,-420,18200,,,,,,,0x03,
1759,-986,-518,-16,-17710,-490,15330,,,,,,,0x03,
1768,-987,-527,-54,-16100,-700,9380,,,,,,,0x03,
1778,-965,-498,-106,-7420,70,700,,,,,,,0x03,
1788,-911,-451,-94,4410,3920,-5810,,,,,,,0x03,
1797,-916,-399,-43,11200,7350,-2800,,,,,,,0x03,
1807,-912,-322,29,-9870,25690,1120,,,,,,,0x03,
1817,-918,-349,88,-27580,13930,5740,,,,,,,0x03,
1826,-977,-373,-67,-49700,6230,14770,,,,,,,0x03,
1836,-961,-384,-74,-54740,210,16310,,,,,,,0x03,
1846,-957,-380,-107,-59360,-70,14420,,,,,,,0x03,
1855,-947,-374,-107,-61530,-840,14560,,,,,,,0x03,
1865,-960,-380,-78,-63000,-4970,16310,,,,,,,0x03,
1875,-928,-404,-73,-61530,-3220,15190,,,,,,,0x03,
1884,-906,-416,-84,-60550,1190,15540,,,,,,,0x03,
1894,-898,-410,-102,-59990,3150,13160,,,,,,,0x03,
1904,-863,-429,-132,-56350,5530,5320,,,,,,,0x03,
1913,-852,-394,-168,-45010,6580,4130,,,,,,,0x03,
1923,-885,-361,-145,-29890,6510,4130,,,,,,,0x03,
1933,-858,-460,-85,-22890,7280,2100,,,,,,,0x03,
1942,-833,-486,-145,-20440,7840,-840,,,,,,,0x03,
1952,-818,-502,-143,-5390,15610,-3080,,,,,,,0x03,
1962,-822,-522,-171,10990,25130,-2170,,,,,,,0x03,
1971,-826,-537,-167,9870,23800,5320,,,,,,,0x03,
1981,-957,-497,-132,910,17220,18550,,,,,,,0x03,
1991,-987,-386,-128,-14210,3010,30380,,,,,,,0x03,
2000,-907,-319,-159,-16590,-1190,33880,,,,,,,0x03,
2010,-890,-359,-189,-7770,840,29400,,,,,,,0x03,
2020,-903,-407,-175,-1400,140,22680,,,,,,,0x03,
2029,-930,-435,-149,4620,1400,15890,,,,,,,0x03,
2039,-949,-442,-138,8120,1960,13090,,,,,,,0x03,
2049,-948,-427,-132,10150,2730,13090,,,,,,,0x03,
2058,-955,-391,-134,11130,2660,14210,,,,,,,0x03,
2068,-955,-353,-135,9590,210,15050,,,,,,,0x03,
2078,-944,-331,-140,6160,-2940,15540,,,,,,,0x03,
2087,-927,-338,-133,3430,-4550,15540,,,,,,,0x03,
2097,-926,-346,-135,1190,-5040,15190,,,,,,,0x03,
2107,-927,-366,-149,-560,-6160,15330,,,,,,,0x03,
2116,-917,-380,-145,-1190,-7000,16380,,,,,,,0x03,
2126,-902,-390,-150,1190,-5880,16450,,,,,,,0x03,
2136,-878,-394,-169,8610,-3010,14280,,,,,,,0x03,
2145,-890,-386,-172,17150,-1050,10080,,,,,,,0x03,
2155,-904,-349,-153,22750,-140,6650,,,,,,,0x03,
2165,-921,-322,-130,25970,350,4130,,,,,,,0x03,
2174,-916,-321,-121,26390,910,3290,,,,,,,0x03,
2184,-918,-326,-133,24920,1260,3990,,,,,,,0x03,
2193,-926,-327,-121,22960,70,4410,,,,,,,0x03,
2203,-947,-330,-118,20020,-1330,5600,,,,,,,0x03,
2213,-952,-317,-121,16450,-2100,7000,,,,,,,0x03,
2222,-942,-319,-114,13720,-2800,6650,,,,,,,0x03,
2232,-943,-306,-114,9800,-3850,5600,,,,,,,0x03,
2242,-946,-289,-99,4830,-5390,5320,,,,,,,0x03,
2251,-953,-283,-90,-490,-7770,6720,,,,,,,0x03,
2261,-969,-288,-98,-6860,-10500,9380,,,,,,,0x03,
2271,-970,-313,-115,-10500,-12040,11410,,,,,,,0x03,
2280,-975,-344,-135,-9380,-12110,11900,,,,,,,0x03,
2290,-988,-361,-128,-4270,-11760,10850,,,,,,,0x03,
2300,-1007,-364,-111,-770,-12390,10010,,,,,,,0x03,
2309,-1035,-326,-113,490,-13440,10290,,,,,,,0x03,
2319,-1050,-280,-123,2660,-14770,11200,,,,,,,0x03,
2329,-1065,-212,-128,3220,-17500,12390,,,,,,,0x03,
2338,-1064,-187,-120,2940,-20300,13020,,,,,,,0x03,
2348,-1065,-201,-119,560,-22820,15330,,,,,,,0x03,
2358,-1043,-236,-140,-210,-23450,18480,,,,,,,0x03,
2367,-1042,-254,-129,4690,-22680,21000,,,,,,,0x03,
2377,-1063,-240,-105,10710,-21350,22610,,,,,,,0x03,
2387,-1107,-219,-53,15400,-21630,25200,,,,,,,0x03,
2396,-1118,-200,-6,16660,-22330,27090,,,,,,,0x03,
2406,-1126,-134,1,15820,-24430,32480,,,,,,,0x03,
2416,-1146,-93,23,14560,-27860,38920,,,,,,,0x03,
2425,-1151,-90,46,10920,-33110,44520,,,,,,,0x03,
2435,-1128,-118,40,8680,-36680,48020,,,,,,,0x03,
2445,-1049,-159,-6,10220,-38150,49350,,,,,,,0x03,
2454,-963,-172,-41,17850,-35420,46620,,,,,,,0x03,
2464,-900,-153,-122,19250,-27230,43120,,,,,,,0x03,
2474,-868,-35,-261,7560,-15330,41860,,,,,,,0x03,
2483,-844,55,-296,-2240,-4200,36400,,,,,,,0x03,
2493,-843,98,-263,-4970,2520,31010,,,,,,,0x03,
2503,-859,87,-183,3220,5180,31290,,,,,,,0x03,
2512,-865,41,-173,7350,7280,41090,,,,,,,0x03,
2522,-863,-11,-155,6020,8400,55230,,,,,,,0x03,
2532,-871,-67,-154,3360,8400,64400,,,,,,,0x03,
2541,-881,-97,-148,-70,8400,69580,,,,,,,0x03,
2551,-900,-116,-125,-4410,9800,73080,,,,,,,0x03,
2561,-916,-155,-103,-7770,11410,76790,,,,,,,0x03,
2570,-941,-208,-73,-7840,13090,80640,,,,,,,0x03,
2580,-959,-237,-49,-4830,15680,83650,,,,,,,0x03,
2590,-989,-220,-44,-2520,17640,85680,,,,,,,0x03,
2599,-1025,-174,-55,70,18340,86800,,,,,,,0x03,
2609,-1048,-135,-52,4550,18900,87780,,,,,,,0x03,
2619,-1048,-94,-65,5810,19810,90860,,,,,,,0x03,
2628,-1040,-113,-68,4760,20720,90930,,,,,,,0x03,
2638,-1019,-145,-64,3360,21210,85330,,,,,,,0x03,
2648,-1002,-179,-55,1260,21630,77910,,,,,,,0x03,
2657,-980,-206,-63,70,22330,70210,,,,,,,0x03,
2667,-958,-213,-65,1190,23030,61740,,,,,,,0x03,
2677,-954,-198,-44,2870,23170,54390,,,,,,,0x03,
2686,-951,-202,-19,2170,22610,50470,,,,,,,0x03,
2696,-959,-175,-2,-1470,21490,49910,,,,,,,0x03,
2706,-966,-169,7,-7350,19740,47320,,,,,,,0x03,
2715,-964,-181,15,-14210,17290,45010,,,,,,,0x03,
2725,-967,-174,18,-22190,14700,42560,,,,,,,0x03,
2735,-976,-179,0,-30730,12180,39760,,,,,,,0x03,
2744,-975,-189,-27,-37450,10150,36610,,,,,,,0x03,
2754,-972,-200,-48,-41650,9030,31710,,,,,,,0x03,
2764,-962,-211,-50,-43400,8120,24710,,,,,,,0x03,
2773,-972,-221,-56,-43050,7280,16380,,,,,,,0x03,
2783,-978,-226,-74,-40740,6440,7280,,,,,,,0x03,
2793,-986,-220,-70,-36400,5180,-910,,,,,,,0x03,
2802,-991,-202,-68,-32830,3010,-8750,,,,,,,0x03,
2812,-1007,-171,-84,-29400,560,-14630,,,,,,,0x03,
2822,-1019,-131,-98,-23800,-2170,-17360,,,,,,,0x03,
2831,-1011,-122,-81,-15470,-4900,-17710,,,,,,,0x03,
2841,-992,-137,-39,-2310,-4690,-20230,,,,,,,0x03,
2851,-991,-174,-57,3430,-4830,-22190,,,,,,,0x03,
2860,-969,-160,-69,4270,-4830,-18830,,,,,,,0x03,
2870,-916,-134,-101,6440,-4620,-16730,,,,,,,0x03,
2880,-875,-138,-116,11900,-4270,-16380,,,,,,,0x03,
2889,-850,-129,-125,18830,-3360,-16590,,,,,,,0x03,
2899,-828,-125,-162,24150,-2240,-17150,,,,,,,0x03,
2909,-808,-86,-254,19320,3290,-14420,,,,,,,0x03,
2918,-787,-40,-251,24430,9940,-13930,,,,,,,0x03,
2928,-813,-51,-152,38290,15540,-15960,,,,,,,0x03,
2938,-887,-112,-61,45500,16730,-13930,,,,,,,0x03,
2947,-989,-126,-77,38360,17220,-7350,,,,,,,0x03,
2957,-1043,-94,-99,31710,19880,-2590,,,,,,,0x03,
2967,-1092,-48,-122,28910,22400,420,,,,,,,0x03,
2976,-1146,5,-111,28840,25130,4900,,,,,,,0x03,
2986,-1175,53,-130,26810,26600,10920,,,,,,,0x03,
2996,-1189,111,-137,22470,24570,17640,,,,,,,0x03,
3005,-1199,133,-78,16730,19180,24080,,,,,,,0x03,
3015,-1224,104,-31,6230,11690,28350,,,,,,,0x03,
3025,-1222,62,-14,-6160,5110,31500,,,,,,,0x03,
3034,-1194,34,-62,-17360,980,34790,,,,,,,0x03,
3044,-1145,2,-96,-24430,-700,33600,,,,,,,0x03,
3053,-1070,-33,-152,-29330,-1610,29470,,,,,,,0x03,
3063,-987,-58,-195,-28560,-560,24220,,,,,,,0x03,
3073,-930,-52,-238,-22400,2590,15890,,,,,,,0x03,
3082,-902,-17,-245,-12320,6300,7420,,,,,,,0x03,
3092,-897,13,-241,70,10080,0,,,,,,,0x03,
3102,-907,46,-218,13860,14280,-6580,,,,,,,0x03,
3111,-934,88,-209,26460,16940,-11550,,,,,,,0x03,
3121,-962,123,-193,36400,17430,-12880,,,,,,,0x03,
3131,-997,149,-176,41720,16450,-10360,,,,,,,0x03,
3140,-1026,174,-169,41230,13230,-4970,,,,,,,0x03,
3150,-1022,166,-162,35140,8540,2240,,,,,,,0x03,
3160,-1002,133,-163,27580,4760,7490,,,,,,,0x03,
3169,-977,97,-175,20160,2100,9940,,,,,,,0x03,
3179,-957,68,-179,12250,-280,11060,,,,,,,0x03,
3189,-938,44,-181,4130,-2660,10990,,,,,,,0x03,
3198,-920,16,-160,-1960,-3430,9800,,,,,,,0x03,
3208,-910,-4,-170,-4060,-1890,7560,,,,,,,0x03,
3218,-901,-3,-192,-1260,1050,4690,,,,,,,0x03,
3227,-898,12,-222,2450,3710,1190,,,,,,,0x03,
3237,-886,21,-247,4690,5180,-2030,,,,,,,0x03,
3247,-862,9,-266,5460,6650,-4620,,,,,,,0x03,
3256,-810,-35,-254,6720,8190,-8470,,,,,,,0x03,
3266,-765,-101,-176,11900,11550,-14280,,,,,,,0x03,
3276,-747,-168,-97,27020,15820,-21280,,,,,,,0x03,
3285,-783,-131,-211,50750,22750,-26880,,,,,,,0x03,
3295,-783,-5,-308,78610,28560,-25130,,,,,,,0x03,
3305,-944,88,-236,103880,25060,-17850,,,,,,,0x03,
3314,-1184,168,-226,103810,22960,770,,,,,,,0x03,
3324,-1317,247,-186,89950,19880,14560,,,,,,,0x03,
3334,-1287,271,-158,65730,18200,19880,,,,,,,0x03,
3343,-1255,245,-124,36190,12180,24920,,,,,,,0x03,
3353,-1240,193,-114,7700,1120,30730,,,,,,,0x03,
3363,-1195,136,-127,-17500,-9310,35700,,,,,,,0x03,
3372,-1140,75,-129,-38150,-17500,36330,,,,,,,0x03,
3382,-1063,1,-128,-52220,-20510,29260,,,,,,,0x03,
3392,-995,-50,-179,-58800,-19810,20650,,,,,,,0x03,
3401,-916,-69,-234,-56000,-15330,12670,,,,,,,0x03,
3411,-846,-83,-226,-41720,-7770,3010,,,,,,,0x03,
3421,-851,-108,-190,-20090,560,-8890,,,,,,,0x03,
3430,-896,-73,-219,1540,6860,-18900,,,,,,,0x03,
3440,-959,45,-236,23450,10500,-21560,,,,,,,0x03,
3450,-1012,172,-255,41440,11410,-18410,,,,,,,0x03,
3459,-1081,225,-240,50750,9170,-10010,,,,,,,0x03,
3469,-1101,212,-198,49770,6020,-2240,,,,,,,0x03,
3479,-1101,186,-142,43260,980,3920,,,,,,,0x03,
3488,-1085,153,-144,30030,-3570,7560,,,,,,,0x03,
3498,-1049,118,-149,15190,-6370,11200,,,,,,,0x03,
3508,-997,66,-151,420,-6720,11830,,,,,,,0x03,
3517,-929,28,-190,-12460,-4620,8400,,,,,,,0x03,
3527,-874,-9,-217,-17430,-1540,2730,,,,,,,0x03,
3537,-852,-25,-259,-16520,1960,-3360,,,,,,,0x03,
3546,-837,-33,-259,-9100,3570,-8610,,,,,,,0x03,
3556,-867,-49,-234,1050,5460,-13160,,,,,,,0x03,
3566,-934,-51,-207,11690,7140,-16030,,,,,,,0x03,
3575,-1024,-44,-113,18760,6650,-13160,,,,,,,0x03,
3585,-1146,-46,-57,13720,4900,-4060,,,,,,,0x03,
3595,-1221,-44,-81,980,3010,6720,,,,,,,0x03,
3604,-1205,-9,-142,-10010,2380,12530,,,,,,,0x03,
3614,-1085,39,-204,-13720,2660,14070,,,,,,,0x03,
3624,-1011,75,-232,-8890,3080,11130,,,,,,,0x03,
3633,-968,95,-226,-980,3220,5180,,,,,,,0x03,
3643,-972,89,-206,5810,2730,910,,,,,,,0x03,
3653,-978,71,-194,9030,2310,-560,,,,,,,0x03,
3662,-986,50,-195,8960,2170,420,,,,,,,0x03,
3672,-981,34,-208,7350,2520,2170,,,,,,,0x03,
3682,-975,32,-220,6090,2870,3430,,,,,,,0x03,
3691,-975,37,-223,5600,2940,3710,,,,,,,0x03,
3701,-960,50,-228,6090,3080,2800,,,,,,,0x03,
3711,-963,67,-215,5880,2660,2940,,,,,,,0x03,
3720,-971,74,-213,2870,2100,3290,,,,,,,0x03,
3730,-982,67,-210,-1750,1540,3430,,,,,,,0x03,
3740,-984,61,-213,-7490,1050,3150,,,,,,,0x03,
3749,-996,44,-211,-12670,770,2170,,,,,,,0x03,
3759,-1015,14,-201,-16100,770,910,,,,,,,0x03,
3769,-1030,-16,-203,-19040,1400,350,,,,,,,0x03,
3778,-1037,-38,-213,-20650,2800,420,,,,,,,0x03,
3788,-1045,-55,-199,-19110,3920,70,,,,,,,0x03,
3798,-1049,-76,-183,-18620,4620,-1610,,,,,,,0x03,
3807,-1048,-97,-212,-24710,5880,-3430,,,,,,,0x03,
3817,-1035,-104,-235,-29890,8120,-6300,,,,,,,0x03,
3827,-1026,-120,-210,-30730,10640,-10920,,,,,,,0x03,
3836,-1033,-112,-230,-33670,13020,-14420,,,,,,,0x03,
3846,-1040,-78,-263,-34020,15540,-15680,,,,,,,0x03,
3856,-1043,-46,-246,-26320,17150,-16100,,,,,,,0x03,
3865,-1090,-18,-193,-16310,17150,-15260,,,,,,,0x03,
3875,-1129,2,-161,-9030,15610,-13510,,,,,,,0x03,
3885,-1148,25,-155,-2590,13370,-10710,,,,,,,0x03,
3894,-1129,40,-170,4690,10640,-7630,,,,,,,0x03,
3904,-1111,64,-196,14280,7350,-3290,,,,,,,0x03,
3913,-1072,78,-218,22680,3290,1330,,,,,,,0x03,
3923,-1044,86,-253,28140,-1820,6510,,,,,,,0x03,
3933,-1020,93,-256,33040,-7140,8890,,,,,,,0x03,
3942,-974,102,-279,33670,-13230,9660,,,,,,,0x03,
3952,-955,96,-278,36540,-17990,10640,,,,,,,0x03,
3962,-920,78,-268,38710,-21140,9030,,,,,,,0x03,
3971,-895,57,-264,38500,-22260,7840,,,,,,,0x03,
3981,-879,26,-249,37730,-21490,6300,,,,,,,0x03,
3991,-861,-2,-240,34860,-19880,3850,,,,,,,0x03,
4000,-837,-17,-235,31430,-17920,1610,,,,,,,0x03,
4010,-808,-32,-214,29960,-15540,-2450,,,,,,,0x03,
4020,-794,-53,-175,28490,-13650,-7980,,,,,,,0x03,
4029,-807,-67,-158,24290,-12810,-12250,,,,,,,0x03,
4039,-813,-79,-152,18130,-12040,-16870,,,,,,,0x03,
4049,-838,-101,-164,12180,-11690,-21000,,,,,,,0x03,
4058,-864,-132,-170,8960,-10850,-23660,,,,,,,0x03,
4068,-886,-149,-184,8120,-9940,-25620,,,,,,,0x03,
4078,-912,-159,-192,9940,-8750,-28490,,,,,,,0x03,
4087,-933,-158,-201,13930,-7280,-32270,,,,,,,0x03,
4097,-954,-140,-195,19670,-6090,-35910,,,,,,,0x03,
4107,-974,-118,-176,24360,-5250,-38920,,,,,,,0x03,
4116,-996,-100,-168,25620,-4900,-40740,,,,,,,0x03,
4126,-999,-88,-180,22820,-4480,-41440,,,,,,,0x03,
4136,-998,-80,-216,17360,-4060,-40460,,,,,,,0x03,
4145,-986,-64,-267,11340,-1890,-38780,,,,,,,0x03,
4155,-980,-47,-287,10150,1960,-37170,,,,,,,0x03,
4165,-984,-36,-282,11620,5880,-35490,,,,,,,0x03,
4174,-999,-25,-281,12250,9170,-31220,,,,,,,0x03,
4184,-1006,-4,-293,10780,12390,-24640,,,,,,,0x03,
4194,-1010,21,-308,7840,15820,-15890,,,,,,,0x03,
4203,-1007,37,-312,6160,18970,-8120,,,,,,,0x03,
4213,-1006,34,-313,4270,21350,-1750,,,,,,,0x03,
4223,-1011,38,-324,3850,23870,4200,,,,,,,0x03,
4232,-1004,52,-329,6790,26670,8120,,,,,,,0x03,
4242,-1019,71,-321,9940,28980,12040,,,,,,,0x03,
4252,-1031,99,-298,12390,30940,15960,,,,,,,0x03,
4261,-1038,116,-283,12670,32060,21070,,,,,,,0x03,
4271,-1035,109,-292,10080,32690,26810,,,,,,,0x03,
4281,-1023,100,-301,7630,33040,31850,,,,,,,0x03,
4290,-1001,94,-298,6790,33740,34860,,,,,,,0x03,
4300,-977,104,-287,7070,33460,35490,,,,,,,0x03,
4310,-965,105,-278,8260,32970,34790,,,,,,,0x03,
4319,-957,93,-250,9730,32060,34160,,,,,,,0x03,
4329,-944,81,-245,10360,31500,33250,,,,,,,0x03,
4339,-920,67,-233,13440,30800,31850,,,,,,,0x03,
4348,-895,46,-210,18060,30660,28840,,,,,,,0x03,
4358,-868,8,-174,22610,30170,24080,,,,,,,0x03,
4368,-841,-44,-135,26600,29050,18410,,,,,,,0x03,
4377,-808,-72,-145,30450,27440,13510,,,,,,,0x03,
4387,-782,-77,-183,36680,28000,6440,,,,,,,0x03,
4397,-752,-86,-173,51450,29330,-5390,,,,,,,0x03,
4406,-741,-91,-259,62160,31780,-16730,,,,,,,0x03,
4416,-688,-37,-233,51870,39760,-20160,,,,,,,0x03,
4426,-726,-74,-67,63560,38010,-18620,,,,,,,0x03,
4435,-903,-169,69,70420,19740,-10080,,,,,,,0x03,
4445,-1065,-116,-216,38780,5110,5040,,,,,,,0x03,
4455,-1109,101,-406,21210,3080,22330,,,,,,,0x03,
4464,-1245,304,-345,2170,5390,33880,,,,,,,0x03,
4474,-1542,529,-474,-35140,9730,38780,,,,,,,0x03,
4484,-1578,632,-360,-65450,10640,56770,,,,,,,0x03,
4493,-1540,547,-166,-113400,-7560,80150,,,,,,,0x03,
4503,-1501,392,-161,-161700,-20720,83930,,,,,,,0x03,
4513,-1377,320,-301,-190120,-24570,78960,,,,,,,0x03,
4522,-1229,225,-315,-197680,-27510,76090,,,,,,,0x03,
4532,-1104,103,-364,-196910,-23380,67130,,,,,,,0x03,
4542,-1021,-16,-455,-186690,-21280,58940,,,,,,,0x03,
4551,-928,-117,-440,-167440,-22610,55090,,,,,,,0x03,
4561,-889,-211,-410,-142100,-20440,49980,,,,,,,0x03,
4571,-885,-262,-431,-114170,-18060,37940,,,,,,,0x03,
4580,-921,-262,-362,-82460,-18130,21070,,,,,,,0x03,
4590,-998,-183,-341,-60060,-20020,3360,,,,,,,0x03,
4600,-1082,-59,-302,-42420,-24080,-6300,,,,,,,0x03,
4609,-1129,41,-255,-29540,-29470,-9730,,,,,,,0x03,
4619,-1135,109,-243,-19110,-34370,-12110,,,,,,,0x03,
4629,-1091,150,-223,-9310,-38360,-17150,,,,,,,0x03,
4638,-1022,166,-242,1050,-41440,-27160,,,,,,,0x03,
4648,-964,172,-233,12880,-42280,-37870,,,,,,,0x03,
4658,-922,153,-248,20300,-40880,-45500,,,,,,,0x03,
4667,-891,138,-271,27160,-38780,-47390,,,,,,,0x03,
4677,-879,107,-257,35210,-37450,-47390,,,,,,,0x03,
4687,-875,70,-226,39900,-36470,-46970,,,,,,,0x03,
4696,-885,47,-210,40110,-36260,-45010,,,,,,,0x03,
4706,-898,36,-169,39130,-37310,-41580,,,,,,,0x03,
4716,-937,57,-168,35700,-39760,-37170,,,,,,,0x03,
4725,-985,89,-107,35420,-44240,-31430,,,,,,,0x03,
4735,-1049,99,-54,32760,-49560,-25410,,,,,,,0x03,
4745,-1086,101,-32,24150,-54390,-17290,,,,,,,0x03,
4754,-1077,44,-26,11690,-58380,-12110,,,,,,,0x03,
4764,-1046,-4,-74,-140,-59990,-10570,,,,,,,0x03,
4774,-1013,-24,-107,-9310,-58240,-11830,,,,,,,0x03,
4783,-958,-8,-144,-13930,-54110,-16030,,,,,,,0x03,
4793,-891,11,-175,-15330,-48370,-22610,,,,,,,0x03,
4802,-842,77,-263,-14560,-39690,-27090,,,,,,,0x03,
4812,-788,151,-292,-11130,-27790,-27370,,,,,,,0x03,
4822,-737,130,-265,-4060,-17710,-25340,,,,,,,0x03,
4831,-758,116,-281,-1120,-11270,-24710,,,,,,,0x03,
4841,-716,82,-338,-1190,-7910,-19390,,,,,,,0x03,
4851,-678,63,-340,5740,-5110,-15820,,,,,,,0x03,
4860,-695,68,-316,15820,-980,-12950,,,,,,,0x03,
4870,-726,59,-250,25060,1820,-7140,,,,,,,0x03,
4880,-776,42,-181,30730,2310,-210,,,,,,,0x03,
4889,-835,21,-126,33040,1260,6020,,,,,,,0x03,
4899,-867,10,-103,30030,770,12880,,,,,,,0x03,
4909,-877,10,-123,23520,490,18760,,,,,,,0x03,
4918,-885,-6,-99,18690,-350,21000,,,,,,,0x03,
4928,-896,-5,-108,17360,-350,20720,,,,,,,0x03,
4938,-897,13,-125,18130,-140,21070,,,,,,,0x03,
4947,-897,51,-168,19880,1330,22750,,,,,,,0x03,
4957,-879,98,-195,21280,3850,24780,,,,,,,0x03,
4967,-880,125,-206,24570,6860,23240,,,,,,,0x03,
4976,-901,141,-180,34020,9100,19460,,,,,,,0x03,
4986,-941,161,-148,45010,10500,18480,,,,,,,0x03,
4996,-977,204,-138,55720,10220,20580,,,,,,,0x03,
5005,-1018,236,-115,60060,8820,23380,,,,,,,0x03,
5015,-1066,242,-100,56630,6510,27650,,,,,,,0x03,
5025,-1082,231,-89,45850,3780,32760,,,,,,,0x03,
5034,-1070,204,-129,29680,2660,36610,,,,,,,0x03,
5044,-1012,180,-240,9590,4900,37940,,,,,,,0x03,
5054,-897,185,-397,-15120,10640,36680,,,,,,,0x03,
5063,-792,209,-414,-40670,22260,32970,,,,,,,0x03,
5073,-743,153,-265,-52920,38640,19810,,,,,,,0x03,
5083,-788,155,-255,-40040,48510,9870,,,,,,,0x03,
5092,-897,261,-176,-350,47460,10920,,,,,,,0x03,
5102,-1025,447,-136,41930,38570,16450,,,,,,,0x03,
5112,-1107,640,-212,69650,30520,31710,,,,,,,0x03,
5121,-1068,729,-357,80500,24990,51450,,,,,,,0x03,
5131,-981,755,-406,79100,24640,67830,,,,,,,0x03,
5141,-881,648,-408,69580,37310,69370,,,,,,,0x03,
5150,-778,449,-289,46830,49700,58800,,,,,,,0x03,
5160,-658,173,-264,15750,55510,38290,,,,,,,0x03,
5170,-464,-158,-72,-1120,60620,13510,,,,,,,0x03,
5179,-345,-534,5,-5740,70840,-12530,,,,,,,0x03,
5189,-512,-667,-99,-70,70140,-28070,,,,,,,0x03,
5199,-815,-367,-388,21140,67690,-26670,,,,,,,0x03,
5208,-1004,19,-212,76930,58240,-17500,,,,,,,0x03,
5218,-1031,265,-75,105700,41720,-9940,,,,,,,0x03,
5228,-1202,411,-97,98770,31920,490,,,,,,,0x03,
5237,-1365,494,-134,84490,30520,9100,,,,,,,0x03,
5247,-1573,621,-157,70420,29610,11690,,,,,,,0x03,
5257,-1763,703,-22,50260,24570,13650,,,,,,,0x03,
5266,-1727,648,59,-420,12390,24570,,,,,,,0x03,
5276,-1517,522,-4,-64610,-3360,36890,,,,,,,0x03,
5286,-1382,383,-89,-114870,-12320,33810,,,,,,,0x03,
5295,-1134,273,-186,-152320,-21070,32970,,,,,,,0x03,
5305,-988,191,-277,-174860,-23450,32620,,,,,,,0x03,
5315,-869,72,-317,-187810,-21840,31990,,,,,,,0x03,
5324,-810,-55,-361,-191520,-10150,30450,,,,,,,0x03,
5334,-780,-127,-416,-179690,3220,22680,,,,,,,0x03,
5344,-754,-112,-420,-148820,10290,10220,,,,,,,0x03,
5353,-795,-13,-372,-110600,12390,-910,,,,,,,0x03,
5363,-861,76,-328,-74620,10640,-9800,,,,,,,0x03,
5373,-902,152,-300,-49280,9240,-14280,,,,,,,0x03,
5382,-938,193,-266,-32130,8540,-17430,,,,,,,0x03,
5392,-954,182,-251,-21700,7910,-23730,,,,,,,0x03,
5402,-945,148,-268,-15750,7560,-32620,,,,,,,0x03,
5411,-919,148,-276,-8260,9450,-40950,,,,,,,0x03,
5421,-888,159,-248,3920,12880,-48020,,,,,,,0x03,
5431,-863,158,-200,21630,14700,-53130,,,,,,,0x03,
5440,-837,121,-156,45780,12670,-57400,,,,,,,0x03,
5450,-778,-31,-88,70630,6510,-64820,,,,,,,0x03,
5460,-674,-254,-90,83230,-5670,-70770,,,,,,,0x03,
5469,-706,-369,-175,78120,-18410,-68530,,,,,,,0x03,
5479,-624,-361,-288,67200,-20720,-69790,,,,,,,0x03,
5489,-558,-291,-390,58240,-18760,-68250,,,,,,,0x03,
5498,-523,-165,-449,59570,-13720,-71960,,,,,,,0x03,
5508,-688,-139,-403,72520,-5530,-77070,,,,,,,0x03,
5518,-896,-97,-368,58520,6440,-71890,,,,,,,0x03,
5527,-993,21,-353,32550,19390,-69510,,,,,,,0x03,
5537,-1123,113,-245,14700,19670,-66150,,,,,,,0x03,
5547,-1266,122,-131,1890,13440,-64820,,,,,,,0x03,
5556,-1380,131,-47,-5950,7070,-58170,,,,,,,0x03,
5566,-1431,229,-101,-8400,3570,-44240,,,,,,,0x03,
5576,-1416,353,-188,-9590,2590,-28700,,,,,,,0x03,
5585,-1364,427,-272,-16170,560,-14980,,,,,,,0x03,
5595,-1288,429,-335,-30870,-2520,-3360,,,,,,,0x03,
5605,-1228,375,-356,-49700,-4340,4130,,,,,,,0x03,
5614,-1155,294,-369,-65660,-1750,5250,,,,,,,0x03,
5624,-1119,208,-398,-75950,1820,3640,,,,,,,0x03,
5634,-1052,125,-395,-82600,2940,4970,,,,,,,0x03,
5643,-990,52,-378,-82250,4410,4130,,,,,,,0x03,
5653,-916,1,-385,-72380,7070,2800,,,,,,,0x03,
5662,-855,-36,-395,-53410,9730,-1610,,,,,,,0x03,
5672,-818,-78,-365,-32060,12670,-6300,,,,,,,0x03,
5682,-802,-96,-376,-9870,16240,-10220,,,,,,,0x03,
5691,-787,-87,-373,12600,18690,-12040,,,,,,,0x03,
5701,-791,-84,-342,33180,19810,-14490,,,,,,,0x03,
5711,-824,-66,-352,49350,18760,-16380,,,,,,,0x03,
5720,-868,-7,-339,61530,17710,-14630,,,,,,,0x03,
5730,-935,58,-311,68040,15610,-12600,,,,,,,0x03,
5740,-1019,114,-278,66220,11760,-9030,,,,,,,0x03,
5749,-1089,163,-251,58660,7000,-2590,,,,,,,0x03,
5759,-1131,198,-234,46270,1820,5040,,,,,,,0x03,
5769,-1159,214,-235,30800,-2100,11900,,,,,,,0x03,
5778,-1142,197,-244,15400,-4830,14840,,,,,,,0x03,
5788,-1092,150,-261,1260,-5950,13930,,,,,,,0x03,
5798,-1025,101,-284,-9100,-5460,10220,,,,,,,0x03,
5807,-955,62,-297,-13720,-3150,3500,,,,,,,0x03,
5817,-898,27,-326,-14840,770,-4270,,,,,,,0x03,
5827,-871,2,-347,-13090,3640,-11270,,,,,,,0x03,
5836,-837,-27,-354,-9030,5530,-15540,,,,,,,0x03,
5846,-806,-43,-363,-2240,7630,-18830,,,,,,,0x03,
5856,-791,-45,-371,6370,9590,-22330,,,,,,,0x03,
5865,-796,-36,-370,16310,10780,-24780,,,,,,,0x03,
5875,-827,-7,-359,24500,11270,-24570,,,,,,,0x03,
5885,-867,45,-354,28420,10780,-20440,,,,,,,0x03,
5894,-977,101,-301,27230,9520,-12320,,,,,,,0x03,
5904,-1042,136,-258,17150,9380,-4760,,,,,,,0x03,
5914,-1095,146,-233,3920,5530,3780,,,,,,,0x03,
5923,-1113,124,-218,-9800,1120,10080,,,,,,,0x03,
5933,-1096,87,-228,-20930,-1330,11900,,,,,,,0x03,
5943,-1056,65,-256,-28770,-1750,10430,,,,,,,0x03,
5952,-1006,53,-287,-33670,-1120,6370,,,,,,,0x03,
5962,-955,35,-316,-35420,70,1890,,,,,,,0x03,
5972,-926,12,-333,-34230,1820,-1750,,,,,,,0x03,
5981,-918,-8,-343,-30310,3500,-4410,,,,,,,0x03,
5991,-924,-20,-344,-25130,4900,-5110,,,,,,,0x03,
6001,-934,-21,-335,-20090,5670,-4200,,,,,,,0x03,
6010,-951,-13,-322,-15890,5810,-2800,,,,,,,0x03,
6020,-966,2,-312,-12530,4900,-1540,,,,,,,0x03,
6030,-982,22,-303,-10500,3710,0,,,,,,,0x03,
6039,-981,32,-309,-9870,2520,1190,,,,,,,0x03,
6049,-973,34,-313,-9660,1540,1540,,,,,,,0x03,
6059,-969,26,-320,-9240,1400,700,,,,,,,0x03,
6068,-964,24,-324,-8890,1050,-840,,,,,,,0x03,
6078,-951,16,-325,-8330,980,-2590,,,,,,,0x03,
6088,-951,13,-330,-7350,1120,-4410,,,,,,,0x03,
6097,-956,9,-332,-5950,1190,-5880,,,,,,,0x03,
6107,-957,6,-336,-4620,1330,-6720,,,,,,,0x03,
6117,-961,11,-336,-3710,1470,-7140,,,,,,,0x03,
6126,-960,17,-334,-3640,1750,-7280,,,,,,,0x03,
6136,-962,22,-334,-4060,1820,-7700,,,,,,,0x03,
6146,-955,22,-328,-4410,1540,-8820,,,,,,,0x03,
6155,-958,20,-334,-5390,1680,-9590,,,,,,,0x03,
6165,-962,12,-331,-6300,1610,-10220,,,,,,,0x03,
6175,-972,13,-331,-7490,1890,-10850,,,,,,,0x03,
6184,-952,16,-338,-8540,2870,-11410,,,,,,,0x03,
6194,-955,24,-339,-8680,2170,-11270,,,,,,,0x03,
6204,-949,34,-341,-9030,2170,-11900,,,,,,,0x03,
6213,-948,43,-338,-10010,1540,-11830,,,,,,,0x03,
6223,-948,42,-331,-11200,630,-11060,,,,,,,0x03,
6233,-960,34,-327,-12810,-350,-10570,,,,,,,0x03,
6242,-962,17,-322,-14350,-1540,-10290,,,,,,,0x03,
6252,-961,-1,-321,-15540,-1610,-9450,,,,,,,0x03,
6262,-965,-16,-318,-15820,-2170,-8190,,,,,,,0x03,
6271,-950,-25,-322,-15610,-2100,-7770,,,,,,,0x03,
6281,-953,-37,-310,-13300,-2310,-7840,,,,,,,0x03,
6291,-950,-42,-311,-11970,-2380,-8330,,,,,,,0x03,
6300,-943,-36,-311,-10640,-2310,-7420,,,,,,,0x03,
6310,-941,-32,-311,-9170,-1610,-6790,,,,,,,0x03,
6320,-943,-35,-317,-7350,-1120,-6440,,,,,,,0x03,
6329,-955,-43,-320,-5600,-280,-5740,,,,,,,0x03,
6339,-956,-48,-323,-3570,910,-5460,,,,,,,0x03,
6349,-968,-55,-319,-560,910,-4760,,,,,,,0x03,
6358,-969,-61,-315,2380,560,-3990,,,,,,,0x03,
6368,-967,-66,-323,4550,-70,-3080,,,,,,,0x03,
6378,-954,-74,-333,6790,-350,-2170,,,,,,,0x03,
6387,-942,-77,-340,10010,-210,-2240,,,,,,,0x03,
6397,-934,-73,-344,13860,-70,-2800,,,,,,,0x03,
6407,-927,-64,-348,17920,-70,-3290,,,,,,,0x03,
6416,-922,-62,-349,21980,-140,-3710,,,,,,,0x03,
6426,-921,-63,-353,25690,-280,-3780,,,,,,,0x03,
6436,-919,-63,-349,29610,-420,-4060,,,,,,,0x03,
6445,-926,-53,-346,32410,-980,-3850,,,,,,,0x03,
6455,-934,-40,-337,34160,-1540,-2800,,,,,,,0x03,
6465,-938,-35,-331,34580,-2100,-1260,,,,,,,0x03,
6474,-943,-30,-328,33880,-2730,420,,,,,,,0x03,
6484,-943,-24,-324,32900,-3150,1960,,,,,,,0x03,
6494,-942,-20,-321,31360,-3360,2590,,,,,,,0x03,
6503,-943,-16,-323,29260,-3430,2800,,,,,,,0x03,
6513,-943,-6,-322,27300,-3290,3150,,,,,,,0x03,
6522,-947,5,-318,24780,-3080,3290,,,,,,,0x03,
6532,-950,17,-314,22260,-2940,3290,,,,,,,0x03,
6542,-953,24,-310,19460,-2940,3290,,,,,,,0x03,
6551,-953,27,-313,16240,-3080,3360,,,,,,,0x03,
6561,-955,24,-314,13580,-3010,3220,,,,,,,0x03,
6571,-961,18,-314,10710,-2940,3080,,,,,,,0x03,
6580,-963,15,-314,8750,-2730,2800,,,,,,,0x03,
6590,-963,21,-317,7070,-2730,2310,,,,,,,0x03,
6600,-961,28,-321,5810,-2660,1680,,,,,,,0x03,
6609,-960,26,-317,4690,-2520,1400,,,,,,,0x03,
6619,-956,22,-314,3220,-2520,1260,,,,,,,0x03,
6629,-951,15,-314,1820,-2450,840,,,,,,,0x03,
6638,-947,9,-313,840,-2450,210,,,,,,,0x03,
6648,-941,5,-311,280,-2590,-630,,,,,,,0x03,
6658,-939,2,-310,-140,-2800,-1050,,,,,,,0x03,
6667,-941,-1,-308,-70,-3080,-1330,,,,,,,0x03,
6677,-946,-10,-306,350,-3220,-1400,,,,,,,0x03,
6687,-949,-16,-306,910,-3430,-1330,,,,,,,0x03,
6696,-954,-18,-305,1750,-3500,-1540,,,,,,,0x03,
6706,-959,-23,-302,2100,-3640,-1960,,,,,,,0x03,
6716,-961,-22,-304,1960,-3640,-2450,,,,,,,0x03,
6725,-964,-24,-302,2030,-3500,-3150,,,,,,,0x03,
6735,-967,-29,-301,1330,-3430,-3080,,,,,,,0x03,
6745,-966,-38,-303,770,-3360,-2940,,,,,,,0x03,
6754,-962,-42,-306,280,-3220,-2800,,,,,,,0x03,
6764,-959,-46,-306,210,-3010,-2870,,,,,,,0x03,
6774,-955,-50,-311,210,-2730,-3360,,,,,,,0x03,
6783,-951,-52,-315,490,-2450,-3780,,,,,,,0x03,
6793,-949,-58,-317,1120,-2030,-4270,,,,,,,0x03,
6803,-949,-63,-315,1680,-1680,-4760,,,,,,,0x03,
6812,-949,-66,-314,2100,-1330,-4760,,,,,,,0x03,
6822,-952,-61,-311,2520,-1190,-4340,,,,,,,0x03,
6832,-955,-60,-308,2660,-1400,-3780,,,,,,,0x03,
6841,-956,-60,-307,2730,-1540,-3080,,,,,,,0x03,
6851,-954,-62,-307,2450,-1750,-2170,,,,,,,0x03,
6861,-948,-59,-310,2310,-1820,-1400,,,,,,,0x03,
6870,-943,-58,-312,2660,-1820,-1190,,,,,,,0x03,
6880,-940,-59,-310,3080,-1680,-1050,,,,,,,0x03,
6890,-944,-58,-312,3430,-1610,-420,,,,,,,0x03,
6899,-942,-58,-313,3990,-1680,420,,,,,,,0x03,
6909,-947,-57,-311,5110,-1610,910,,,,,,,0x03,
6919,-953,-53,-306,6020,-1610,1260,,,,,,,0x03,
6928,-957,-45,-303,6370,-1750,1610,,,,,,,0x03,
6938,-962,-37,-300,6580,-1960,1750,,,,,,,0x03,
6948,-970,-36,-287,6300,-2380,1680,,,,,,,0x03,
6957,-982,-38,-275,4970,-3360,1680,,,,,,,0x03,
6967,-1000,-27,-275,2450,-4410,2660,,,,,,,0x03,
6977,-1014,-17,-274,-420,-5670,3990,,,,,,,0x03,
6986,-1022,-8,-273,-3640,-6230,5670,,,,,,,0x03,
6996,-1023,8,-280,-7210,-6440,6720,,,,,,,0x03,
7006,-1015,23,-287,-10290,-6020,6930,,,,,,,0x03,
7015,-1009,34,-289,-12320,-5530,7630,,,,,,,0x03,
7025,-1000,14,-281,-14280,-5460,7630,,,,,,,0x03,
7035,-997,-11,-273,-16380,-5670,7000,,,,,,,0x03,
7044,-1001,-34,-283,-17990,-5950,5810,,,,,,,0x03,
7054,-998,-43,-295,-17850,-4970,4690,,,,,,,0x03,
7064,-997,-28,-311,-17360,-4340,4830,,,,,,,0x03,
7073,-992,-12,-306,-17920,-4550,4620,,,,,,,0x03,
7083,-993,-9,-298,-19250,-4760,3850,,,,,,,0x03,
7093,-988,-10,-306,-21000,-5530,3290,,,,,,,0x03,
7102,-976,-5,-315,-22050,-5460,2450,,,,,,,0x03,
7112,-964,-5,-303,-21140,-5740,210,,,,,,,0x03,
7122,-951,-2,-315,-18900,-5250,-2170,,,,,,,0x03,
7131,-937,10,-332,-16450,-5950,-3080,,,,,,,0x03,
7141,-930,7,-326,-13790,-6720,-4270,,,,,,,0x03,
7151,-925,-5,-329,-10920,-6650,-5670,,,,,,,0x03,
7160,-912,-12,-328,-7140,-6440,-6300,,,,,,,0x03,
7170,-907,-14,-325,-3220,-5670,-7280,,,,,,,0x03,
7180,-910,-16,-319,770,-5110,-8400,,,,,,,0x03,
7189,-917,-8,-319,3990,-4760,-8610,,,,,,,0x03,
7199,-927,-3,-315,6020,-4410,-8610,,,,,,,0x03,
7209,-938,-5,-308,7210,-4340,-8750,,,,,,,0x03,
7218,-944,-5,-299,7000,-4200,-8750,,,,,,,0x03,
7228,-952,-2,-289,6090,-4200,-8750,,,,,,,0x03,
7238,-960,-3,-275,4200,-4620,-8050,,,,,,,0x03,
7247,-961,-9,-269,1890,-5040,-6580,,,,,,,0x03,
7257,-965,-8,-273,210,-5250,-4410,,,,,,,0x03,
7267,-966,-8,-279,-1260,-5390,-2520,,,,,,,0x03,
7276,-971,-13,-273,-2590,-5390,-910,,,,,,,0x03,
7286,-974,-22,-268,-3360,-5250,700,,,,,,,0x03,
7296,-975,-26,-275,-3430,-4620,1960,,,,,,,0x03,
7305,-977,-25,-277,-3920,-4200,2450,,,,,,,0x03,
7315,-994,-23,-270,-3920,-3850,1960,,,,,,,0x03,
7325,-1021,-3,-273,-4060,-4060,2310,,,,,,,0x03,
7334,-1048,14,-267,-5530,-4410,3850,,,,,,,0x03,
7344,-1078,19,-266,-8190,-4900,5600,,,,,,,0x03,
7354,-1102,27,-256,-10920,-5390,7490,,,,,,,0x03,
7363,-1126,28,-247,-12250,-4970,7490,,,,,,,0x03,
7373,-1173,61,-248,-12810,-6370,9240,,,,,,,0x03,
7383,-1230,109,-236,-15820,-7140,10430,,,,,,,0x03,
7392,-1290,173,-251,-23100,-8680,14140,,,,,,,0x03,
7402,-1348,238,-259,-35420,-11410,21140,,,,,,,0x03,
7411,-1379,290,-271,-54950,-14770,29960,,,,,,,0x03,
7421,-1370,300,-276,-78120,-18970,38360,,,,,,,0x03,
7431,-1296,282,-301,-100030,-22680,43260,,,,,,,0x03,
7440,-1205,249,-333,-112490,-25620,44870,,,,,,,0x03,
7450,-1115,211,-376,-114240,-26320,43610,,,,,,,0x03,
7460,-1004,172,-364,-106680,-24570,41160,,,,,,,0x03,
7469,-918,117,-319,-89390,-22820,36330,,,,,,,0x03,
7479,-888,76,-284,-71680,-23800,29610,,,,,,,0x03,
7489,-852,58,-278,-56980,-26250,25270,,,,,,,0x03,
7498,-787,37,-283,-41860,-28140,23870,,,,,,,0x03,
7508,-722,8,-295,-28210,-28910,23310,,,,,,,0x03,
7518,-648,-30,-300,-15120,-27930,21420,,,,,,,0x03,
7527,-576,-66,-292,-2030,-25620,17360,,,,,,,0x03,
7537,-509,-106,-274,12600,-22050,10920,,,,,,,0x03,
7547,-520,-122,-257,27510,-18410,3640,,,,,,,0x03,
7556,-506,-107,-252,38780,-15750,1400,,,,,,,0x03,
7566,-486,-133,-199,47390,-14070,-70,,,,,,,0x03,
7576,-521,-154,-224,48370,-12180,840,,,,,,,0x03,
7585,-550,-142,-306,43050,-7980,5040,,,,,,,0x03,
7595,-569,-127,-287,42490,840,10990,,,,,,,0x03,
7605,-635,-128,-207,46830,6160,14000,,,,,,,0x03,
7614,-741,-108,-150,51380,7210,16660,,,,,,,0x03,
7624,-836,-97,-104,51870,6090,21070,,,,,,,0x03,
7634,-913,-74,-118,48510,2660,24150,,,,,,,0x03,
7643,-982,-36,-117,46970,-560,24430,,,,,,,0x03,
7653,-1060,-7,-96,46760,-5250,23660,,,,,,,0x03,
7663,-1174,45,-109,42280,-9800,23660,,,,,,,0x03,
7672,-1244,167,-118,33880,-10640,26880,,,,,,,0x03,
7682,-1310,239,-63,21350,-11200,32550,,,,,,,0x03,
7692,-1336,264,-107,1400,-12600,36610,,,,,,,0x03,
7701,-1296,253,-142,-17080,-12040,38360,,,,,,,0x03,
7711,-1253,198,-153,-28420,-11550,32270,,,,,,,0x03,
7721,-1229,167,-154,-33810,-11130,22610,,,,,,,0x03,
7730,-1207,157,-174,-36610,-11200,15190,,,,,,,0x03,
7740,-1177,160,-179,-36120,-11690,11270,,,,,,,0x03,
7750,-1143,145,-172,-33880,-13090,7910,,,,,,,0x03,
7759,-1117,133,-183,-30100,-15470,3710,,,,,,,0x03,
7769,-1093,102,-156,-22820,-17710,-1750,,,,,,,0x03,
7779,-1077,80,-164,-16730,-19880,-7910,,,,,,,0x03,
7788,-1060,82,-150,-10080,-20370,-13440,,,,,,,0x03,
7798,-1047,88,-152,-4970,-20930,-18970,,,,,,,0x03,
7808,-1046,109,-176,-3080,-21420,-22050,,,,,,,0x03,
7817,-1045,105,-163,-2380,-21280,-23170,,,,,,,0x03,
7827,-1044,97,-166,-4410,-20440,-24360,,,,,,,0x03,
7837,-1052,77,-167,-7070,-19670,-25410,,,,,,,0x03,
7846,-1052,58,-163,-7490,-20020,-26180,,,,,,,0x03,
7856,-1026,59,-164,-4970,-21140,-25130,,,,,,,0x03,
7866,-1019,66,-141,-350,-22330,-24150,,,,,,,0x03,
7875,-959,83,-159,4340,-22330,-24290,,,,,,,0x03,
7885,-950,96,-151,10080,-25970,-21770,,,,,,,0x03,
7895,-941,99,-152,15540,-27720,-22190,,,,,,,0x03,
7904,-892,89,-177,22120,-28280,-24780,,,,,,,0x03,
7914,-896,78,-155,29540,-30100,-25340,,,,,,,0x03,
7924,-903,104,-168,35350,-29470,-26040,,,,,,,0x03,
7933,-907,115,-155,38640,-28350,-25760,,,,,,,0x03,
7943,-905,124,-161,39480,-26530,-23940,,,,,,,0x03,
7953,-896,130,-157,38430,-24430,-21700,,,,,,,0x03,
7962,-889,132,-167,36960,-21980,-20650,,,,,,,0x03,
7972,-875,128,-146,35280,-19670,-19810,,,,,,,0x03,
7982,-873,125,-154,33880,-16660,-18760,,,,,,,0x03,
7991,-877,127,-154,31430,-14140,-16800,,,,,,,0x03,
8001,-871,128,-155,28280,-12110,-13930,,,,,,,0x03,
8011,-873,121,-143,24220,-10080,-10920,,,,,,,0x03,
8020,-887,106,-136,20720,-8400,-8260,,,,,,,0x03,
8030,-905,91,-117,18130,-7630,-5460,,,,,,,0x03,
8040,-933,81,-106,16520,-7350,-2800,,,,,,,0x03,
8049,-954,80,-90,15190,-7980,-420,,,,,,,0x03,
8059,-972,82,-84,14000,-8820,910,,,,,,,0x03,
8069,-991,82,-72,12670,-9660,840,,,,,,,0x03,
8078,-1007,89,-73,11130,-10010,420,,,,,,,0x03,
8088,-1018,103,-63,8470,-10710,-210,,,,,,,0x03,
8098,-1025,107,-68,4760,-11340,-1680,,,,,,,0x03,
8107,-1027,105,-66,70,-11690,-2170,,,,,,,0x03,
8117,-1026,107,-79,-2940,-11550,-2730,,,,,,,0x03,
8127,-1015,112,-99,-5460,-10850,-3430,,,,,,,0x03,
8136,-1000,118,-120,-7210,-9520,-4060,,,,,,,0x03,
8146,-979,119,-137,-8960,-7210,-4830,,,,,,,0x03,
8156,-957,113,-146,-10920,-5040,-6230,,,,,,,0x03,
8165,-940,99,-146,-11550,-2520,-8050,,,,,,,0x03,
8175,-935,96,-139,-9800,-420,-9170,,,,,,,0x03,
8185,-935,94,-137,-7350,980,-8750,,,,,,,0x03,
8194,-935,94,-132,-4480,2100,-7490,,,,,,,0x03,
8204,-941,93,-122,-1750,3010,-5810,,,,,,,0x03,
8214,-953,93,-116,420,3640,-3990,,,,,,,0x03,
8223,-969,86,-102,1610,3710,-2240,,,,,,,0x03,
8233,-983,74,-92,2240,3150,-1120,,,,,,,0x03,
8243,-999,54,-79,2240,2380,-210,,,,,,,0x03,
8252,-1014,33,-74,1750,1330,280,,,,,,,0x03,
8262,-1024,19,-64,1820,0,140,,,,,,,0x03,
8271,-1030,16,-55,3080,-1190,-770,,,,,,,0x03,
8281,-1036,32,-59,5390,-1890,-1260,,,,,,,0x03,
8291,-1038,56,-62,7000,-2380,-1050,,,,,,,0x03,
8300,-1036,77,-71,7490,-2590,-630,,,,,,,0x03,
8310,-1022,91,-84,6440,-2730,-140,,,,,,,0x03,
8320,-1011,89,-86,4410,-2450,-210,,,,,,,0x03,
8329,-1001,84,-93,2380,-1680,-560,,,,,,,0x03,
8339,-995,73,-92,280,-840,-770,,,,,,,0x03,
8349,-994,56,-86,-1050,-140,-700,,,,,,,0x03,
8358,-995,44,-80,-1260,70,-910,,,,,,,0x03,
8368,-996,49,-82,-630,210,-420,,,,,,,0x03,
8378,-998,63,-90,140,70,210,,,,,,,0x03,
8387,-1000,84,-100,420,-560,910,,,,,,,0x03,
8397,-993,111,-118,840,-770,2520,,,,,,,0x03,
8407,-977,159,-147,2310,-210,4830,,,,,,,0x03,
8416,-952,211,-179,4130,1470,7770,,,,,,,0x03,
8426,-917,239,-168,5040,5320,12600,,,,,,,0x03,
8436,-876,183,-185,770,10290,16800,,,,,,,0x03,
8445,-831,102,-215,-11270,13720,19040,,,,,,,0x03,
8455,-810,-5,-195,-19880,15960,15960,,,,,,,0x03,
8465,-828,-66,-157,-22190,16730,11480,,,,,,,0x03,
8474,-855,-76,-137,-17920,17220,10080,,,,,,,0x03,
8484,-871,-27,-147,-11270,17360,12740,,,,,,,0x03,
8494,-872,44,-159,-3640,17220,16030,,,,,,,0x03,
8503,-868,135,-198,4760,18620,19320,,,,,,,0x03,
8513,-849,199,-243,11690,22330,22820,,,,,,,0x03,
8523,-811,217,-257,10500,27090,25690,,,,,,,0x03,
8532,-779,131,-255,9590,33950,24150,,,,,,,0x03,
8542,-772,88,-315,8890,40180,21560,,,,,,,0x03,
8552,-774,46,-242,12880,43680,15890,,,,,,,0x03,
8561,-836,27,-164,27230,45220,9590,,,,,,,0x03,
8571,-926,35,-106,40880,43120,9520,,,,,,,0x03,
8581,-993,35,-25,53620,38150,14630,,,,,,,0x03,
8590,-1122,23,14,61670,29680,21070,,,,,,,0x03,
8600,-1243,62,60,60410,18760,24010,,,,,,,0x03,
8610,-1400,144,128,54600,7280,28420,,,,,,,0x03,
8619,-1524,242,141,37380,-5250,35630,,,,,,,0x03,
8629,-1569,260,135,10430,-16730,47040,,,,,,,0x03,
8639,-1469,205,12,-19040,-22400,53620,,,,,,,0x03,
8648,-1278,153,-118,-41790,-22330,47390,,,,,,,0x03,
8658,-1105,112,-201,-52360,-18130,26600,,,,,,,0x03,
8668,-998,125,-247,-54180,-11900,3150,,,,,,,0x03,
8677,-936,142,-257,-53900,-5950,-12390,,,,,,,0x03,
8687,-866,140,-297,-54460,-210,-18620,,,,,,,0x03,
8697,-783,93,-350,-53830,4830,-17710,,,,,,,0x03,
8706,-680,20,-389,-51660,12320,-16940,,,,,,,0x03,
8716,-593,-59,-402,-44450,23100,-21560,,,,,,,0x03,
8726,-531,-122,-395,-29260,35420,-32130,,,,,,,0x03,
8735,-506,-183,-346,-4550,48440,-47180,,,,,,,0x03,
8745,-509,-184,-339,23030,56420,-62230,,,,,,,0x03,
8755,-461,-235,-254,50330,61180,-75250,,,,,,,0x03,
8764,-543,-266,-243,71050,59220,-81690,,,,,,,0x03,
8774,-621,-104,-382,97020,54670,-73850,,,,,,,0x03,
8784,-811,-13,-277,134540,46970,-60900,,,,,,,0x03,
8793,-1013,79,-198,142310,38360,-41090,,,,,,,0x03,
8803,-1167,141,-38,141890,32480,-17290,,,,,,,0x03,
8813,-1324,198,18,129290,23380,4130,,,,,,,0x03,
8822,-1448,341,-43,106260,13580,20510,,,,,,,0x03,
8832,-1555,453,35,89250,8680,36050,,,,,,,0x03,
8842,-1611,432,72,59640,5110,52920,,,,,,,0x03,
8851,-1481,271,-27,17710,-6020,68740,,,,,,,0x03,
8861,-1251,120,-183,-17780,-12180,67480,,,,,,,0x03,
8871,-1072,24,-345,-36120,-6300,43890,,,,,,,0x03,
8880,-921,-18,-414,-35980,5670,12670,,,,,,,0x03,
8890,-833,-41,-345,-22960,20440,-17360,,,,,,,0x03,
8900,-773,-106,-298,-9520,30170,-38080,,,,,,,0x03,
8909,-699,-180,-334,3780,31850,-46620,,,,,,,0x03,
8919,-589,-237,-331,25900,31570,-49770,,,,,,,0x03,
8929,-611,-230,-332,54810,24640,-47530,,,,,,,0x03,
8938,-716,-154,-307,83300,19530,-37870,,,,,,,0x03,
8948,-999,-27,-359,100660,22540,-25550,,,,,,,0x03,
8958,-1089,147,-397,106750,26530,-24920,,,,,,,0x03,
8967,-1166,340,-359,103250,30100,-23380,,,,,,,0x03,
8977,-1254,432,-247,86310,26810,-16170,,,,,,,0x03,
8987,-1291,410,-142,55020,17220,-4480,,,,,,,0x03,
8996,-1222,276,-117,16660,4970,5740,,,,,,,0x03,
9006,-1091,96,-139,-10640,-4060,5880,,,,,,,0x03,
9016,-1020,-41,-239,-18130,-3360,-1750,,,,,,,0x03,
9025,-944,-90,-267,-16660,2100,-8190,,,,,,,0x03,
9035,-931,-108,-313,-11900,5320,-12110,,,,,,,0x03,
9045,-915,-119,-353,-5880,6930,-8960,,,,,,,0x03,
9054,-941,-118,-334,2660,9380,-4620,,,,,,,0x03,
9064,-984,-84,-317,8890,12670,-3920,,,,,,,0x03,
9074,-1023,-23,-310,12320,15540,-3080,,,,,,,0x03,
9083,-1057,21,-292,10990,14700,-1260,,,,,,,0x03,
9093,-1078,31,-275,7210,12320,-910,,,,,,,0x03,
9103,-1059,25,-286,1470,8960,-2520,,,,,,,0x03,
9112,-989,15,-318,-3080,5180,-5250,,,,,,,0x03,
9122,-916,-1,-329,-2450,1400,-8960,,,,,,,0x03,
9131,-823,-44,-338,4480,-210,-14350,,,,,,,0x03,
9141,-783,-86,-348,14770,490,-19740,,,,,,,0x03,
9151,-765,-113,-369,26250,1680,-21910,,,,,,,0x03,
9160,-831,-113,-380,38220,2940,-23100,,,,,,,0x03,
9170,-917,-85,-367,47320,5180,-25200,,,,,,,0x03,
9180,-1082,-32,-345,50120,9520,-21070,,,,,,,0x03,
9189,-1143,70,-272,37940,12880,-10990,,,,,,,0x03,
9199,-1206,143,-190,16310,13230,3150,,,,,,,0x03,
9209,-1240,152,-182,-3920,7700,14910,,,,,,,0x03,
9218,-1206,108,-242,-21700,630,20860,,,,,,,0x03,
9228,-1103,42,-304,-35490,-4200,19320,,,,,,,0x03,
9238,-1014,-19,-321,-42420,-7700,11200,,,,,,,0x03,
9247,-954,-57,-328,-42280,-8190,1400,,,,,,,0x03,
9257,-926,-89,-301,-37730,-7070,-5600,,,,,,,0x03,
9267,-948,-94,-306,-31290,-3710,-9590,,,,,,,0x03,
9276,-987,-83,-352,-22750,-700,-8260,,,,,,,0x03,
9286,-1017,-45,-350,-16870,350,-2450,,,,,,,0x03,
9296,-1080,4,-335,-16870,1260,3150,,,,,,,0x03,
9305,-1141,62,-333,-22190,2100,7350,,,,,,,0x03,
9315,-1224,136,-326,-36400,910,14770,,,,,,,0x03,
9325,-1282,166,-315,-60900,-770,24220,,,,,,,0x03,
9334,-1274,159,-278,-97930,-6720,39620,,,,,,,0x03,
9344,-1287,155,-265,-131810,-16100,52430,,,,,,,0x03,
9354,-1265,150,-281,-152110,-22540,59080,,,,,,,0x03,
9363,-1252,135,-292,-162820,-27930,62440,,,,,,,0x03,
9373,-1218,121,-323,-167300,-32760,63630,,,,,,,0x03,
9383,-1188,90,-319,-158340,-31920,60410,,,,,,,0x03,
9392,-1137,28,-337,-141190,-31220,51030,,,,,,,0x03,
9402,-1071,-40,-335,-134260,-37590,38990,,,,,,,0x03,
9412,-1012,-100,-361,-123550,-38640,24220,,,,,,,0x03,
9421,-942,-131,-374,-99260,-35490,9940,,,,,,,0x03,
9431,-908,-142,-375,-70700,-28490,2590,,,,,,,0x03,
9441,-845,-120,-353,-44660,-18130,-140,,,,,,,0x03,
9450,-744,-115,-354,-23940,-10920,-1890,,,,,,,0x03,
9460,-656,-111,-398,-9100,-6930,-5810,,,,,,,0x03,
9470,-589,-101,-408,7000,-6720,-14560,,,,,,,0x03,
9479,-555,-85,-349,29330,-9520,-24150,,,,,,,0x03,
9489,-588,-85,-264,52290,-16170,-26880,,,,,,,0x03,
9499,-653,-76,-210,69020,-21980,-24710,,,,,,,0x03,
9508,-721,-32,-199,77140,-24850,-18690,,,,,,,0x03,
9518,-766,18,-185,83160,-25760,-8820,,,,,,,0x03,
9528,-796,57,-176,84350,-27020,3920,,,,,,,0x03,
9537,-820,91,-191,78260,-28210,16170,,,,,,,0x03,
9547,-824,143,-208,72100,-30100,25900,,,,,,,0x03,
9557,-840,170,-198,73640,-29680,33320,,,,,,,0x03,
9566,-845,154,-181,75110,-27720,38920,,,,,,,0x03,
9576,-843,130,-178,72800,-27160,42210,,,,,,,0x03,
9586,-837,91,-171,70980,-25410,41860,,,,,,,0x03,
9595,-831,65,-163,69580,-23030,36890,,,,,,,0x03,
9605,-822,56,-167,69020,-20860,28630,,,,,,,0x03,
9615,-804,39,-194,67830,-18060,18480,,,,,,,0x03,
9624,-777,3,-222,65730,-13580,8680,,,,,,,0x03,
9634,-733,-49,-226,58240,-7420,-70,,,,,,,0x03,
9644,-676,-96,-384,29400,5530,-9030,,,,,,,0x03,
9653,-575,-49,-484,18270,21560,-20720,,,,,,,0x03,
9663,-486,-19,-233,87640,34860,-36470,,,,,,,0x03,
9673,-740,-106,-101,160370,28840,-49490,,,,,,,0x03,
9682,-1025,56,-377,181020,31780,-60270,,,,,,,0x03,
9692,-1113,314,-373,208250,44030,-65450,,,,,,,0x03,
9702,-1452,558,-355,198030,47390,-57050,,,,,,,0x03,
9711,-1608,726,-377,167510,50050,-46200,,,,,,,0x03,
9721,-1635,742,-204,97650,43050,-10780,,,,,,,0x03,
9731,-1621,740,-204,8050,23520,26110,,,,,,,0x03,
9740,-1534,570,-193,-43540,7700,37730,,,,,,,0x03,
9750,-1345,375,-189,-88970,-5670,34650,,,,,,,0x03,
9760,-1159,174,-184,-124040,-18410,26530,,,,,,,0x03,
9769,-1013,12,-223,-143080,-26390,17780,,,,,,,0x03,
9779,-893,-96,-260,-145740,-25760,11130,,,,,,,0x03,
9789,-789,-167,-308,-133350,-19110,4340,,,,,,,0x03,
9798,-701,-212,-358,-106260,-11830,-2450,,,,,,,0x03,
9808,-634,-224,-395,-71820,-6510,-7910,,,,,,,0x03,
9818,-633,-193,-399,-37520,-1050,-13860,,,,,,,0x03,
9827,-681,-116,-398,-7560,4900,-22050,,,,,,,0x03,
9837,-763,6,-384,10500,8610,-25760,,,,,,,0x03,
9847,-861,99,-342,22190,10290,-22960,,,,,,,0x03,
9856,-962,147,-283,31290,10290,-18270,,,,,,,0x03,
9866,-1061,184,-243,33530,8960,-12600,,,,,,,0x03,
9876,-1133,205,-213,27650,7140,-5390,,,,,,,0x03,
9885,-1159,210,-193,13650,4130,3150,,,,,,,0x03,
9895,-1143,188,-191,-4550,-210,10640,,,,,,,0x03,
9905,-1090,151,-208,-23100,-4620,14140,,,,,,,0x03,
9914,-1036,92,-225,-37660,-8330,13860,,,,,,,0x03,
9924,-993,43,-235,-47530,-9030,11200,,,,,,,0x03,
9934,-964,15,-241,-52080,-8050,7630,,,,,,,0x03,
9943,-941,11,-262,-53620,-7210,4270,,,,,,,0x03,
9953,-932,5,-259,-52360,-5670,1470,,,,,,,0x03,
9963,-926,-8,-271,-46200,-3500,-1750,,,,,,,0x03,
9972,-948,1,-276,-35630,-420,-4830,,,,,,,0x03,
9982,-1010,35,-260,-24430,1680,-7140,,,,,,,0x03,
9991,-1083,106,-263,-15890,2800,-8120,,,,,,,0x03,
10001,-1183,181,-271,-12880,1120,-5950,,,,,,,0x03,
10011,-1275,249,-276,-18480,-2800,140,,,,,,,0x03,
10020,-1353,273,-232,-29750,-8330,9730,,,,,,,0x03,
10030,-1368,266,-205,-48160,-15680,19670,,,,,,,0x03,
10040,-1322,224,-175,-66990,-24150,27790,,,,,,,0x03,
10049,-1237,196,-189,-80010,-31430,30730,,,,,,,0x03,
10059,-1157,167,-204,-86800,-38990,27160,,,,,,,0x03,
10069,-1083,128,-180,-87500,-45220,21000,,,,,,,0x03,
10078,-1026,75,-167,-80780,-44310,13370,,,,,,,0x03,
10088,-991,32,-184,-74130,-40390,4830,,,,,,,0x03,
10098,-944,14,-223,-71890,-36820,-2800,,,,,,,0x03,
10107,-893,23,-271,-65450,-32760,-8400,,,,,,,0x03,
10117,-838,22,-280,-53270,-26810,-11690,,,,,,,0x03,
10127,-791,14,-302,-40320,-16730,-14070,,,,,,,0x03,
10136,-739,-1,-313,-29260,-8120,-17360,,,,,,,0x03,
10146,-692,-5,-358,-22820,-3220,-21770,,,,,,,0x03,
10156,-648,-7,-366,-15260,-980,-27720,,,,,,,0x03,
10165,-641,-21,-341,-6720,-1260,-33600,,,,,,,0x03,
10175,-676,-40,-298,2870,-1400,-35840,,,,,,,0x03,
10185,-734,-46,-216,15750,-560,-35770,,,,,,,0x03,
10194,-776,-39,-184,26530,1820,-33670,,,,,,,0x03,
10204,-828,-23,-143,33810,2660,-26390,,,,,,,0x03,
10214,-881,16,-130,34860,2800,-16100,,,,,,,0x03,
10223,-914,58,-149,32760,2660,-6720,,,,,,,0x03,
10233,-934,83,-177,30870,2940,2170,,,,,,,0x03,
10243,-950,84,-191,30450,3220,11200,,,,,,,0x03,
10252,-967,81,-173,28350,2800,19950,,,,,,,0x03,
10262,-987,94,-195,23380,2590,26810,,,,,,,0x03,
10272,-1000,117,-208,20650,3150,29890,,,,,,,0x03,
10281,-1023,143,-213,19180,3920,30800,,,,,,,0x03,
10291,-1029,166,-209,17500,4690,30870,,,,,,,0x03,
10301,-1032,190,-219,14770,5530,30100,,,,,,,0x03,
10310,-1029,208,-225,13160,6300,28490,,,,,,,0x03,
10320,-1017,224,-234,12810,7490,26390,,,,,,,0x03,
10330,-1001,231,-241,13020,9030,24080,,,,,,,0x03,
10339,-975,238,-255,13930,10640,21490,,,,,,,0x03,
10349,-953,236,-261,16100,12180,17430,,,,,,,0x03,
10359,-934,252,-266,18970,13790,15120,,,,,,,0x03,
10368,-929,245,-260,21420,15400,12460,,,,,,,0x03,
10378,-918,254,-252,22400,17150,10710,,,,,,,0x03,
10388,-905,273,-247,22050,18760,9730,,,,,,,0x03,
10397,-888,282,-238,20720,19740,10570,,,,,,,0x03,
10407,-867,289,-244,17780,21490,13790,,,,,,,0x03,
10417,-863,277,-242,15400,22750,17500,,,,,,,0x03,
10426,-851,266,-237,13230,24570,19390,,,,,,,0x03,
10436,-860,281,-230,10710,26810,18200,,,,,,,0x03,
10446,-831,281,-231,7070,28840,14910,,,,,,,0x03,
10455,-863,286,-242,3710,30100,18830,,,,,,,0x03,
10465,-891,234,-236,980,31010,20020,,,,,,,0x03,
10475,-896,125,-247,280,31360,17010,,,,,,,0x03,
10484,-915,105,-238,2800,30520,20370,,,,,,,0x03,
10494,-955,80,-218,5810,30590,19950,,,,,,,0x03,
10504,-977,89,-214,7910,29750,17080,,,,,,,0x03,
10513,-980,98,-198,10920,28560,11200,,,,,,,0x03,
10523,-999,108,-176,12950,27020,5600,,,,,,,0x03,
10533,-995,120,-150,12110,24430,1540,,,,,,,0x03,
10542,-998,130,-154,8470,21630,-1680,,,,,,,0x03,
10552,-991,98,-153,6650,19250,-6580,,,,,,,0x03,
10562,-961,58,-145,6090,17010,-11340,,,,,,,0x03,
10571,-940,31,-154,5390,14490,-14840,,,,,,,0x03,
10581,-917,17,-185,6090,11620,-19250,,,,,,,0x03,
10591,-902,5,-203,10150,9660,-24220,,,,,,,0x03,
10600,-883,-14,-199,14770,7980,-29120,,,,,,,0x03,
10610,-878,-38,-197,17500,6580,-32340,,,,,,,0x03,
10620,-861,-58,-236,14490,8050,-34790,,,,,,,0x03,
10629,-843,-56,-246,15190,7840,-37310,,,,,,,0x03,
10639,-827,-60,-236,20860,6720,-41370,,,,,,,0x03,
10649,-847,-63,-221,24010,5180,-42910,,,,,,,0x03,
10658,-883,-54,-298,17010,5040,-42840,,,,,,,0x03,
10668,-858,-9,-430,6020,7700,-41930,,,,,,,0x03,
10678,-862,64,-501,3010,13160,-40180,,,,,,,0x03,
10687,-855,107,-483,11060,18900,-40460,,,,,,,0x03,
10697,-923,113,-439,17570,23940,-36890,,,,,,,0x03,
10707,-947,123,-411,17780,26670,-30940,,,,,,,0x03,
10716,-960,113,-348,21070,25760,-25760,,,,,,,0x03,
10726,-1001,89,-302,25270,23240,-20790,,,,,,,0x03,
10736,-1035,64,-283,27860,19810,-16870,,,,,,,0x03,
10745,-1056,51,-267,29890,16240,-12600,,,,,,,0x03,
10755,-1053,37,-277,31500,14140,-9030,,,,,,,0x03,
10765,-1016,24,-314,30800,12950,-5810,,,,,,,0x03,
10774,-997,22,-346,29960,11690,-1960,,,,,,,0x03,
10784,-1020,43,-351,28000,9870,-3080,,,,,,,0x03,
10794,-1007,53,-345,24220,8680,-12670,,,,,,,0x03,
10803,-1014,71,-352,21210,8260,-22260,,,,,,,0x03,
10813,-999,48,-344,19880,7280,-27510,,,,,,,0x03,
10823,-1003,27,-333,18830,8120,-27160,,,,,,,0x03,
10832,-1001,33,-351,14630,8750,-27650,,,,,,,0x03,
10842,-1006,54,-374,11690,9730,-29330,,,,,,,0x03,
10852,-1002,80,-377,12390,11480,-31780,,,,,,,0x03,
10861,-998,110,-363,12530,12250,-31220,,,,,,,0x03,
10871,-1017,114,-345,7210,11340,-25970,,,,,,,0x03,
10880,-1000,87,-335,-1050,10290,-19950,,,,,,,0x03,
10890,-991,38,-342,-6720,8960,-15260,,,,,,,0x03,
10900,-973,10,-353,-13020,7000,-11690,,,,,,,0x03,
10909,-946,1,-378,-20720,4620,-10360,,,,,,,0x03,
10919,-937,-30,-387,-23590,2450,-10920,,,,,,,0x03,
10929,-911,-61,-382,-21000,1960,-12040,,,,,,,0x03,
10938,-899,-81,-383,-19110,4130,-11270,,,,,,,0x03,
10948,-891,-92,-373,-14280,6510,-9520,,,,,,,0x03,
10958,-888,-85,-372,-4200,9100,-9520,,,,,,,0x03,
10967,-888,-99,-397,7140,10920,-12250,,,,,,,0x03,
10977,-902,-134,-418,21420,14210,-16240,,,,,,,0x03,
10987,-933,-144,-428,31920,19460,-20440,,,,,,,0x03,
10996,-933,-104,-434,40740,23870,-27860,,,,,,,0x03,
11006,-939,-59,-429,49560,27160,-33950,,,,,,,0x03,
11016,-943,-39,-429,51730,29890,-33670,,,,,,,0x03,
11025,-919,-18,-433,49630,31080,-30170,,,,,,,0x03,
11035,-971,-24,-442,45220,30730,-25690,,,,,,,0x03,
11045,-965,-7,-443,40460,27930,-20720,,,,,,,0x03,
11054,-962,12,-419,35070,26670,-16450,,,,,,,0x03,
11064,-978,-2,-373,36470,28280,-11830,,,,,,,0x03,
11074,-996,6,-313,37030,24150,-6650,,,,,,,0x03,
11083,-1002,26,-346,25060,19180,1050,,,,,,,0x03,
11093,-1002,-5,-369,14490,14980,10220,,,,,,,0x03,
11103,-985,-42,-418,3500,10500,14980,,,,,,,0x03,
11112,-948,-65,-420,-3290,8820,14840,,,,,,,0x03,
11122,-926,-80,-417,-2310,8400,12670,,,,,,,0x03,
11132,-917,-89,-438,2940,9380,10430,,,,,,,0x03,
11141,-907,-93,-468,6230,10710,7700,,,,,,,0x03,
11151,-885,-96,-464,9660,10570,3500,,,,,,,0x03,
11161,-872,-101,-465,13790,12110,0,,,,,,,0x03,
11170,-847,-94,-468,20370,14140,-3080,,,,,,,0x03,
11180,-839,-94,-487,29190,17290,-4270,,,,,,,0x03,
11190,-857,-111,-509,35630,17570,-4410,,,,,,,0x03,
11199,-868,-126,-511,39970,17990,-6370,,,,,,,0x03,
11209,-890,-127,-496,39900,18060,-7490,,,,,,,0x03,
11219,-901,-112,-501,39130,17430,-8260,,,,,,,0x03,
11228,-892,-88,-479,45220,17640,-10010,,,,,,,0x03,
11238,-955,-88,-464,47250,15400,-9520,,,,,,,0x03,
11248,-927,-89,-440,43120,11830,-6650,,,,,,,0x03,
11257,-916,-117,-467,38220,10360,-4130,,,,,,,0x03,
11267,-891,-127,-467,32200,8820,-3080,,,,,,,0x03,
11277,-871,-106,-452,27720,8890,-4130,,,,,,,0x03,
11286,-854,-109,-476,19950,7630,-3430,,,,,,,0x03,
11296,-845,-139,-486,16030,6370,-3010,,,,,,,0x03,
11306,-837,-163,-494,15960,7070,-4900,,,,,,,0x03,
11315,-847,-181,-503,17990,8960,-7840,,,,,,,0x03,
11325,-860,-185,-463,21280,11200,-12040,,,,,,,0x03,
11335,-863,-188,-466,20650,13650,-14980,,,,,,,0x03,
11344,-866,-169,-476,23660,16660,-16940,,,,,,,0x03,
11354,-872,-151,-450,29750,19530,-18270,,,,,,,0x03,
11364,-868,-145,-453,31080,20860,-17430,,,,,,,0x03,
11373,-859,-153,-450,33040,21910,-16100,,,,,,,0x03,
11383,-865,-154,-434,35910,23030,-15330,,,,,,,0x03,
11393,-890,-148,-422,33950,22610,-13860,,,,,,,0x03,
11402,-893,-147,-408,27370,19950,-12390,,,,,,,0x03,
11412,-896,-158,-414,19460,17010,-10850,,,,,,,0x03,
11422,-905,-167,-428,11410,14210,-8750,,,,,,,0x03,
11431,-904,-173,-423,7070,12530,-7070,,,,,,,0x03,
11441,-907,-168,-434,4060,11270,-5390,,,,,,,0x03,
11451,-906,-161,-419,3920,10780,-3640,,,,,,,0x03,
11460,-902,-158,-405,2170,9800,-1120,,,,,,,0x03,
11470,-909,-149,-412,-2660,7560,1960,,,,,,,0x03,
11480,-906,-140,-447,-7980,4550,5460,,,,,,,0x03,
11489,-909,-130,-498,-11270,70,8470,,,,,,,0x03,
11499,-926,-111,-579,-11200,-1540,10360,,,,,,,0x03,
11509,-922,-112,-562,-2030,70,9380,,,,,,,0x03,
11518,-899,-122,-480,5320,350,7840,,,,,,,0x03,
11528,-888,-115,-480,-2030,-3780,9310,,,,,,,0x03,
11538,-867,-128,-508,-9870,-6370,9940,,,,,,,0x03,
11547,-847,-142,-528,-13650,-6440,8050,,,,,,,0x03,
11557,-840,-133,-523,-12530,-5530,5600,,,,,,,0x03,
11567,-845,-127,-494,-10430,-4410,4480,,,,,,,0x03,
11576,-852,-121,-498,-11690,-4830,5880,,,,,,,0x03,
11586,-861,-116,-493,-11480,-5460,7420,,,,,,,0x03,
11596,-863,-128,-472,-10570,-6230,8400,,,,,,,0x03,
11605,-877,-124,-498,-12180,-7910,9730,,,,,,,0x03,
11615,-871,-120,-507,-11760,-7980,9590,,,,,,,0x03,
11625,-859,-120,-499,-10500,-7630,8890,,,,,,,0x03,
11634,-850,-129,-474,-9520,-7280,8540,,,,,,,0x03,
11644,-857,-140,-477,-11620,-6930,8540,,,,,,,0x03,
11654,-861,-139,-497,-12880,-5810,7980,,,,,,,0x03,
11663,-863,-142,-485,-11340,-3850,6650,,,,,,,0x03,
11673,-879,-139,-464,-11130,-2380,6020,,,,,,,0x03,
11683,-889,-129,-455,-13510,-1610,6160,,,,,,,0x03,
11692,-893,-117,-464,-17780,-1820,7560,,,,,,,0x03,
11702,-889,-119,-482,-21560,-1960,9100,,,,,,,0x03,
11712,-875,-127,-498,-22960,-1260,9380,,,,,,,0x03,
11721,-864,-131,-504,-22120,-350,8680,,,,,,,0x03,
11731,-869,-128,-506,-20510,280,7490,,,,,,,0x03,
11740,-877,-124,-499,-17850,-70,6230,,,,,,,0x03,
11750,-880,-121,-500,-16380,-420,4550,,,,,,,0x03,
11760,-878,-120,-498,-14560,-1050,2940,,,,,,,0x03,
11769,-884,-123,-500,-12600,-2310,1400,,,,,,,0x03,
11779,-885,-131,-503,-10150,-2870,-490,,,,,,,0x03,
11789,-883,-137,-495,-6790,-2380,-2800,,,,,,,0x03,
11798,-890,-137,-481,-4480,-2450,-4410,,,,,,,0x03,
11808,-903,-135,-476,-4060,-3220,-5320,,,,,,,0x03,
11818,-906,-133,-481,-4550,-4270,-5250,,,,,,,0x03,
11827,-910,-129,-484,-4410,-5740,-4480,,,,,,,0x03,
11837,-916,-125,-482,-4410,-7910,-3430,,,,,,,0x03,
11847,-919,-122,-490,-4550,-9940,-2170,,,,,,,0x03,
11856,-929,-128,-487,-3430,-11410,-1050,,,,,,,0x03,
11866,-941,-127,-473,-4130,-13650,0,,,,,,,0x03,
11876,-946,-116,-485,-9030,-16940,1610,,,,,,,0x03,
11885,-953,-104,-515,-14070,-20790,3850,,,,,,,0x03,
11895,-955,-88,-527,-15750,-22820,5250,,,,,,,0x03,
11905,-955,-75,-530,-16940,-24220,6230,,,,,,,0x03,
11914,-957,-57,-506,-16800,-26600,7210,,,,,,,0x03,
11924,-968,-40,-458,-18130,-30870,9870,,,,,,,0x03,
11934,-1001,-29,-437,-23800,-34230,14000,,,,,,,0x03,
11943,-1003,-20,-405,-31220,-38010,17570,,,,,,,0x03,
11953,-990,-15,-371,-35210,-41090,20790,,,,,,,0x03,
11963,-992,-21,-351,-40530,-44310,24850,,,,,,,0x03,
11972,-985,-24,-364,-43470,-45710,27790,,,,,,,0x03,
11982,-973,-68,-249,-34440,-47040,27720,,,,,,,0x03,
11992,-997,-115,-153,-36190,-52080,30240,,,,,,,0x03,
12001,-1035,-145,-164,-43540,-57400,32270,,,,,,,0x03,
12011,-1039,-149,-140,-42560,-61250,30030,,,,,,,0x03,
12021,-1054,-157,-82,-36470,-66360,27440,,,,,,,0x03,
12030,-1094,-134,-89,-33880,-72870,27720,,,,,,,0x03,
12040,-1117,-115,-106,-27160,-78610,28280,,,,,,,0x03,
12050,-1123,-83,-64,-19950,-84140,28000,,,,,,,0x03,
12059,-1114,-56,-45,-17290,-89950,28770,,,,,,,0x03,
12069,-1110,-35,-32,-14140,-95130,31150,,,,,,,0x03,
12079,-1139,-14,-27,-12110,-100030,34230,,,,,,,0x03,
12088,-1123,0,4,-12040,-104720,37380,,,,,,,0x03,
12098,-1123,10,8,-17920,-110950,41650,,,,,,,0x03,
12108,-1127,22,5,-25200,-116480,45150,,,,,,,0x03,
12117,-1109,43,-11,-32620,-121520,48090,,,,,,,0x03,
12127,-1111,60,-47,-37800,-125790,48440,,,,,,,0x03,
12137,-1101,69,-65,-35630,-129500,45990,,,,,,,0x03,
12146,-1031,52,-57,-28910,-132790,43050,,,,,,,0x03,
12156,-1036,88,-44,-20440,-135380,38220,,,,,,,0x03,
12166,-1019,122,-33,-13580,-138530,32130,,,,,,,0x03,
12175,-1028,96,-29,-7840,-143080,28910,,,,,,,0x03,
12185,-1034,42,-55,-2590,-144830,25830,,,,,,,0x03,
12195,-1004,-4,-78,5880,-144130,21700,,,,,,,0x03,
12204,-980,-28,-95,15820,-141120,15540,,,,,,,0x03,
12214,-948,-13,-114,24010,-138110,7560,,,,,,,0x03,
12224,-918,5,-86,30380,-137410,-770,,,,,,,0x03,
12233,-916,-2,-32,33390,-138530,-8820,,,,,,,0x03,
12243,-942,1,-24,33600,-140420,-13720,,,,,,,0x03,
12253,-952,14,-56,34090,-137340,-15820,,,,,,,0x03,
12262,-916,57,-104,36750,-131040,-18060,,,,,,,0x03,
12272,-868,71,-130,38220,-124810,-21770,,,,,,,0x03,
12282,-811,66,-113,45920,-122010,-21770,,,,,,,0x03,
12291,-771,68,-66,52640,-118860,-24290,,,,,,,0x03,
12301,-789,56,-19,58030,-115010,-27020,,,,,,,0x03,
12311,-813,62,13,63840,-111020,-24990,,,,,,,0x03,
12320,-878,69,25,67270,-105280,-20580,,,,,,,0x03,
12330,-912,88,35,65240,-99190,-19110,,,,,,,0x03,
12340,-949,97,55,57260,-94360,-18620,,,,,,,0x03,
12349,-968,114,87,45570,-91630,-15820,,,,,,,0x03,
12359,-953,126,178,32690,-88620,-11830,,,,,,,0x03,
12369,-922,133,204,17570,-84070,-6370,,,,,,,0x03,
12378,-918,133,125,2170,-78960,-1050,,,,,,,0x03,
12388,-898,155,85,-8260,-71610,630,,,,,,,0x03,
12398,-886,149,88,-14000,-63140,-630,,,,,,,0x03,
12407,-896,142,86,-20160,-57050,-2030,,,,,,,0x03,
12417,-895,122,101,-26180,-52570,-4200,,,,,,,0x03,
12427,-923,101,147,-31990,-50400,-7630,,,,,,,0x03,
12436,-938,88,173,-42630,-49280,-9870,,,,,,,0x03,
12446,-911,85,190,-52430,-45780,-11690,,,,,,,0x03,
12456,-902,75,173,-62020,-42910,-14630,,,,,,,0x03,
12465,-895,65,164,-70140,-41370,-17430,,,,,,,0x03,
12475,-898,53,197,-73780,-40040,-20650,,,,,,,0x03,
12485,-881,30,267,-74690,-40040,-24220,,,,,,,0x03,
12494,-898,15,305,-75670,-39270,-25340,,,,,,,0x03,
12504,-907,12,297,-76160,-36890,-25340,,,,,,,0x03,
12514,-909,14,245,-75250,-33390,-23520,,,,,,,0x03,
12523,-899,14,223,-67830,-28770,-21700,,,,,,,0x03,
12533,-895,25,240,-57120,-24150,-20300,,,,,,,0x03,
12543,-905,9,262,-45360,-20440,-20230,,,,,,,0x03,
12552,-907,-21,286,-33670,-17220,-21280,,,,,,,0x03,
12562,-905,-42,309,-23450,-14770,-22260,,,,,,,0x03,
12572,-902,-41,323,-15610,-12740,-22120,,,,,,,0x03,
12581,-920,-37,330,-9170,-11480,-21140,,,,,,,0x03,
12591,-915,-41,374,420,-10080,-21560,,,,,,,0x03,
12600,-909,-39,499,16870,-9520,-21140,,,,,,,0x03,
12610,-978,-24,795,43190,-12110,-16520,,,,,,,0x03,
12620,-1124,-51,953,42140,-24920,-10080,,,,,,,0x03,
12629,-1192,-6,628,-280,-34020,7000,,,,,,,0x03,
12639,-1132,56,309,-24080,-25270,23870,,,,,,,0x03,
12649,-1004,104,195,-16730,-12740,28630,,,,,,,0x03,
12658,-919,56,280,-2380,-4200,25130,,,,,,,0x03,
12668,-905,-40,422,4130,0,17710,,,,,,,0x03,
12678,-945,-67,448,910,910,11550,,,,,,,0x03,
12687,-959,-41,440,-2800,2030,7980,,,,,,,0x03,
12697,-953,-33,464,-4690,2310,5390,,,,,,,0x03,
12707,-941,-51,496,-8820,1470,3010,,,,,,,0x03,
12716,-932,-67,492,-15820,-490,1820,,,,,,,0x03,
12726,-910,-70,447,-18900,-2590,910,,,,,,,0x03,
12736,-881,-86,415,-13160,-4690,-560,,,,,,,0x03,
12745,-877,-70,428,-3920,-6510,-2240,,,,,,,0x03,
12755,-893,-38,449,1890,-7840,-3150,,,,,,,0x03,
12765,-898,-19,459,2170,-8750,-4970,,,,,,,0x03,
12774,-907,-2,462,-420,-9660,-6090,,,,,,,0x03,
12784,-894,-22,454,-4480,-9450,-7910,,,,,,,0x03,
12794,-883,-34,448,-6650,-9940,-6720,,,,,,,0x03,
12803,-872,-36,455,-7140,-9660,-5810,,,,,,,0x03,
12813,-875,-32,461,-7770,-9870,-4200,,,,,,,0x03,
12823,-880,-26,449,-7490,-9660,-3010,,,,,,,0x03,
12832,-881,-3,456,-4830,-9520,-3010,,,,,,,0x03,
12842,-891,4,482,-3360,-9100,-3080,,,,,,,0x03,
12852,-888,0,480,-5600,-7980,-3360,,,,,,,0x03,
12861,-894,-16,479,-8050,-7210,-3780,,,,,,,0x03,
12871,-904,-8,480,-9450,-6300,-3990,,,,,,,0x03,
12881,-913,3,481,-10640,-5950,-3010,,,,,,,0x03,
12890,-914,7,475,-13020,-5110,-140,,,,,,,0x03,
12900,-919,7,463,-14840,-4550,2380,,,,,,,0x03,
12910,-918,-1,461,-15610,-4060,3290,,,,,,,0x03,
12919,-910,-4,461,-16520,-3360,2940,,,,,,,0x03,
12929,-895,-3,466,-18270,-2520,2100,,,,,,,0x03,
12939,-906,0,462,-19880,-2240,2240,,,,,,,0x03,
12948,-907,-6,471,-20440,-1960,2030,,,,,,,0x03,
12958,-907,-21,475,-21350,-2170,2100,,,,,,,0x03,
12968,-899,-23,482,-22610,-2450,2590,,,,,,,0x03,
12977,-889,-27,473,-24430,-3430,2520,,,,,,,0x03,
12987,-870,-36,472,-24640,-4270,2520,,,,,,,0x03,
12997,-874,-45,480,-23730,-5320,2590,,,,,,,0x03,
13006,-885,-52,477,-23240,-6650,1820,,,,,,,0x03,
13016,-879,-65,481,-21140,-7910,560,,,,,,,0x03,
13026,-889,-58,495,-19460,-9310,700,,,,,,,0x03,
13035,-892,-40,497,-19250,-10990,700,,,,,,,0x03,
13045,-895,-32,513,-20440,-12110,840,,,,,,,0x03,
13055,-904,-35,517,-23800,-12810,770,,,,,,,0x03,
13064,-902,-36,507,-27090,-12670,770,,,,,,,0x03,
13074,-921,-30,499,-29330,-12740,1540,,,,,,,0x03,
13084,-912,-34,485,-30940,-11200,1190,,,,,,,0x03,
13093,-896,-48,470,-31360,-10080,2590,,,,,,,0x03,
13103,-895,-67,465,-31430,-7420,3080,,,,,,,0x03,
13113,-885,-93,473,-30310,-5180,1680,,,,,,,0x03,
13122,-882,-104,523,-27440,-3220,-1050,,,,,,,0x03,
13132,-905,-111,584,-27160,-2240,-6370,,,,,,,0x03,
13142,-920,-122,632,-27580,-1960,-6300,,,,,,,0x03,
13151,-935,-127,652,-30940,-1120,-2730,,,,,,,0x03,
13161,-958,-137,635,-39970,-1190,-1540,,,,,,,0x03,
13171,-974,-141,596,-62090,-1540,-1330,,,,,,,0x03,
13180,-967,-191,536,-93590,-3570,-7630,,,,,,,0x03,
13190,-927,-171,491,-114940,-4480,-3010,,,,,,,0x03,
13200,-929,-147,442,-127610,-3570,7770,,,,,,,0x03,
13209,-902,-143,408,-133140,-630,16100,,,,,,,0x03,
13219,-878,-157,316,-135450,3850,20720,,,,,,,0x03,
13229,-850,-191,259,-132020,8260,21140,,,,,,,0x03,
13238,-827,-235,254,-125090,12600,14140,,,,,,,0x03,
13248,-820,-249,265,-115640,16240,1050,,,,,,,0x03,
13258,-832,-261,291,-102830,18480,-12670,,,,,,,0x03,
13267,-841,-297,336,-89740,18760,-24010,,,,,,,0x03,
13277,-854,-326,374,-79660,18060,-30520,,,,,,,0x03,
13287,-865,-330,378,-73500,17080,-32620,,,,,,,0x03,
13296,-861,-305,335,-69860,16590,-31290,,,,,,,0x03,
13306,-826,-266,281,-65240,17570,-29190,,,,,,,0x03,
13316,-781,-265,279,-56420,19180,-29050,,,,,,,0x03,
13325,-778,-288,283,-44940,20440,-31360,,,,,,,0x03,
13335,-796,-305,336,-28840,20930,-35840,,,,,,,0x03,
13345,-819,-335,401,-13930,20090,-39270,,,,,,,0x03,
13354,-849,-351,450,-2730,17920,-38010,,,,,,,0x03,
13364,-895,-345,471,5180,14770,-32550,,,,,,,0x03,
13374,-908,-314,464,10150,12390,-28280,,,,,,,0x03,
13383,-910,-287,462,14630,10640,-23800,,,,,,,0x03,
13393,-907,-262,455,15330,9450,-18620,,,,,,,0x03,
13403,-899,-233,423,12110,8750,-13790,,,,,,,0x03,
13412,-893,-217,392,8540,8960,-10010,,,,,,,0x03,
13422,-877,-215,359,5250,9730,-7210,,,,,,,0x03,
13432,-863,-211,346,3990,11270,-6510,,,,,,,0x03,
13441,-853,-218,360,3990,12250,-7700,,,,,,,0x03,
13451,-861,-229,370,4690,12600,-8960,,,,,,,0x03,
13461,-869,-242,401,7140,12180,-9310,,,,,,,0x03,
13470,-875,-250,416,9100,10780,-9310,,,,,,,0x03,
13480,-869,-273,435,11690,8960,-9310,,,,,,,0x03,
13489,-897,-282,446,13580,6720,-9380,,,,,,,0x03,
13499,-899,-273,448,13370,5320,-10500,,,,,,,0x03,
13509,-895,-258,435,11200,4270,-10430,,,,,,,0x03,
13518,-885,-243,414,7840,3850,-10920,,,,,,,0x03,
13528,-882,-223,401,3360,3850,-12110,,,,,,,0x03,
13538,-883,-205,382,-2730,4270,-12950,,,,,,,0x03,
13547,-871,-198,378,-9380,4690,-13230,,,,,,,0x03,
13557,-860,-199,378,-16450,5040,-13440,,,,,,,0x03,
13567,-851,-211,376,-22540,4970,-13790,,,,,,,0x03,
13576,-854,-232,380,-26950,4760,-14770,,,,,,,0x03,
13586,-861,-257,386,-29890,4480,-15400,,,,,,,0x03,
13596,-862,-274,383,-31360,4270,-14910,,,,,,,0x03,
13605,-866,-280,370,-31220,4200,-14700,,,,,,,0x03,
13615,-870,-273,360,-29540,4620,-14630,,,,,,,0x03,
13625,-868,-261,358,-27160,5180,-13720,,,,,,,0x03,
13634,-866,-259,344,-25200,5530,-13020,,,,,,,0x03,
13644,-861,-262,332,-22820,6230,-13160,,,,,,,0x03,
13654,-859,-260,322,-21000,7140,-13650,,,,,,,0x03,
13663,-856,-255,317,-20300,8330,-13370,,,,,,,0x03,
13673,-854,-267,333,-19880,9450,-13230,,,,,,,0x03,
13683,-858,-292,356,-20160,10150,-13090,,,,,,,0x03,
13692,-866,-317,389,-20020,10430,-12390,,,,,,,0x03,
13702,-876,-351,413,-19740,10010,-10780,,,,,,,0x03,
13712,-888,-379,428,-19320,9030,-8400,,,,,,,0x03,
13721,-897,-385,416,-18970,8330,-5250,,,,,,,0x03,
13731,-898,-378,376,-18270,8820,-1330,,,,,,,0x03,
13741,-898,-360,328,-16800,10010,2520,,,,,,,0x03,
13750,-887,-333,299,-13720,11970,4970,,,,,,,0x03,
13760,-881,-310,272,-10080,14420,6160,,,,,,,0x03,
13770,-878,-292,256,-6160,16170,7630,,,,,,,0x03,
13779,-884,-270,224,-2030,18270,8890,,,,,,,0x03,
13789,-895,-246,234,6370,19530,9310,,,,,,,0x03,
13799,-925,-230,278,18830,20580,9870,,,,,,,0x03,
13808,-965,-216,315,32410,18970,12880,,,,,,,0x03,
13818,-997,-194,321,41160,17780,19670,,,,,,,0x03,
13828,-1022,-179,289,40600,18410,29540,,,,,,,0x03,
13837,-1012,-223,286,32970,20930,37170,,,,,,,0x03,
13847,-1012,-266,255,20930,24290,40390,,,,,,,0x03,
13857,-1011,-301,223,12040,27860,38010,,,,,,,0x03,
13866,-998,-335,245,9520,31430,31360,,,,,,,0x03,
13876,-971,-402,308,4340,34230,23590,,,,,,,0x03,
13886,-955,-461,319,-8750,35070,14770,,,,,,,0x03,
13895,-970,-496,293,-18340,34160,5740,,,,,,,0x03,
13905,-979,-497,154,-18690,32760,910,,,,,,,0x03,
13915,-966,-535,140,-3080,30100,-3290,,,,,,,0x03,
13924,-972,-582,201,3220,30240,-10290,,,,,,,0x03,
13934,-1030,-569,164,-7980,33320,-17430,,,,,,,0x03,
13944,-1021,-580,171,-16170,36260,-25130,,,,,,,0x03,
13953,-979,-551,155,-23800,37800,-29750,,,,,,,0x03,
13963,-887,-503,144,-29820,39130,-28210,,,,,,,0x03,
13973,-835,-363,11,-32340,40740,-22890,,,,,,,0x03,
13982,-746,-296,20,-10990,42630,-20160,,,,,,,0x03,
13992,-747,-323,51,8330,43120,-9940,,,,,,,0x03,
14002,-810,-364,75,21700,43120,2450,,,,,,,0x03,
14011,-867,-406,42,29050,44240,14560,,,,,,,0x03,
14021,-892,-438,-3,34300,46970,24290,,,,,,,0x03,
14031,-885,-470,-33,42980,51170,26880,,,,,,,0x03,
14040,-878,-434,-16,53410,55440,23310,,,,,,,0x03,
14050,-902,-352,-1,58240,59850,17990,,,,,,,0x03,
14060,-912,-294,51,57610,64610,10710,,,,,,,0x03,
14069,-889,-266,54,49420,68880,5390,,,,,,,0x03,
14079,-897,-213,-45,37660,75110,7630,,,,,,,0x03,
14089,-852,-291,341,54810,74130,7770,,,,,,,0x03,
14098,-949,-413,393,67830,63630,-770,,,,,,,0x03,
14108,-1054,-353,263,54110,58940,4200,,,,,,,0x03,
14118,-991,-384,312,48020,56700,9940,,,,,,,0x03,
14127,-947,-561,374,36680,51870,-140,,,,,,,0x03,
14137,-975,-733,353,21350,46060,-22610,,,,,,,0x03,
14147,-1039,-803,304,12950,41650,-45780,,,,,,,0x03,
14156,-1051,-765,339,19950,37030,-67690,,,,,,,0x03,
14166,-1044,-717,435,28560,29190,-86170,,,,,,,0x03,
14176,-1094,-578,370,13790,19530,-93590,,,,,,,0x03,
14185,-1098,-398,293,-1330,12040,-88970,,,,,,,0x03,
14195,-1035,-309,298,-14630,6650,-78750,,,,,,,0x03,
14205,-983,-299,209,-35630,1610,-68950,,,,,,,0x03,
14214,-916,-294,91,-47460,140,-62160,,,,,,,0x03,
14224,-837,-291,39,-47600,3710,-58800,,,,,,,0x03,
14234,-804,-256,5,-47110,10220,-56700,,,,,,,0x03,
14243,-744,-234,-60,-45290,18270,-62230,,,,,,,0x03,
14253,-762,-205,-36,-33670,24360,-66220,,,,,,,0x03,
14263,-779,-215,-13,-22050,28910,-57680,,,,,,,0x03,
14272,-795,-264,-2,-9800,27230,-44240,,,,,,,0x03,
14282,-757,-276,-2,9940,24850,-27510,,,,,,,0x03,
14292,-764,-288,53,35000,20510,-11480,,,,,,,0x03,
14301,-823,-299,119,50890,16940,-1190,,,,,,,0x03,
14311,-871,-285,106,55300,13790,7910,,,,,,,0x03,
14321,-865,-254,70,55510,12740,15680,,,,,,,0x03,
14330,-851,-224,33,54320,12600,20230,,,,,,,0x03,
14340,-849,-245,53,54390,11830,21490,,,,,,,0x03,
14349,-872,-321,66,54320,9660,20510,,,,,,,0x03,
14359,-893,-391,73,57330,9730,15960,,,,,,,0x03,
14369,-914,-381,112,63560,10150,6370,,,,,,,0x03,
14378,-953,-323,153,66990,8540,-4130,,,,,,,0x03,
14388,-999,-267,192,63420,4830,-9730,,,,,,,0x03,
14398,-1026,-237,183,52430,1260,-8890,,,,,,,0x03,
14407,-1032,-213,158,39620,-350,-4900,,,,,,,0x03,
14417,-1000,-206,144,28000,140,210,,,,,,,0x03,
14427,-971,-217,121,16940,910,5880,,,,,,,0x03,
14436,-952,-223,103,7350,1470,9030,,,,,,,0x03,
14446,-949,-228,85,-490,2450,10150,,,,,,,0x03,
14456,-952,-234,66,-5460,4270,10990,,,,,,,0x03,
14465,-950,-253,53,-7420,6930,11900,,,,,,,0x03,
14475,-957,-273,24,-8890,9730,12250,,,,,,,0x03,
14485,-943,-274,19,-8610,12040,11060,,,,,,,0x03,
14494,-927,-288,-10,-10500,13440,9240,,,,,,,0x03,
14504,-919,-313,-39,-11410,16240,7000,,,,,,,0x03,
14514,-900,-362,-34,-11270,18410,3850,,,,,,,0x03,
14523,-898,-407,-9,-10150,18340,-840,,,,,,,0x03,
14533,-925,-435,39,-5460,17780,-5320,,,,,,,0x03,
14543,-977,-437,85,1050,15820,-7980,,,,,,,0x03,
14552,-1036,-397,110,8960,13720,-6650,,,,,,,0x03,
14562,-1075,-312,120,13510,12880,-1400,,,,,,,0x03,
14572,-1109,-230,55,11690,16240,7980,,,,,,,0x03,
14581,-1102,-190,-66,5390,23100,18340,,,,,,,0x03,
14591,-1046,-229,-105,-1330,28350,22680,,,,,,,0x03,
14601,-1004,-317,-149,-11760,32130,17990,,,,,,,0x03,
14610,-980,-347,-243,-23380,38080,10990,,,,,,,0x03,
14620,-947,-317,-263,-29680,46620,4130,,,,,,,0x03,
14630,-913,-320,-217,-38920,52290,0,,,,,,,0x03,
14639,-913,-390,-256,-50330,57330,630,,,,,,,0x03,
14649,-905,-496,-311,-54530,62300,1330,,,,,,,0x03,
14659,-877,-562,-321,-48720,67060,-2170,,,,,,,0x03,
14668,-858,-587,-328,-32410,73150,-9730,,,,,,,0x03,
14678,-823,-567,-279,-14700,78400,-17080,,,,,,,0x03,
14688,-795,-566,-244,-3850,85330,-18200,,,,,,,0x03,
14697,-758,-547,-306,-13790,91980,-14070,,,,,,,0x03,
14707,-705,-521,-392,-35560,97090,-8960,,,,,,,0x03,
14717,-630,-499,-319,-47950,95270,-5950,,,,,,,0x03,
14726,-730,-605,-82,-26180,91420,-9240,,,,,,,0x03,
14736,-843,-653,48,1260,90370,-6440,,,,,,,0x03,
14746,-897,-646,38,7350,88130,2870,,,,,,,0x03,
14755,-924,-605,44,10780,83860,15960,,,,,,,0x03,
14765,-925,-604,89,17710,76860,21980,,,,,,,0x03,
14775,-971,-625,193,25620,68110,21140,,,,,,,0x03,
14784,-1062,-651,306,28000,54670,19180,,,,,,,0x03,
14794,-1153,-646,299,20510,37660,20650,,,,,,,0x03,
14804,-1198,-640,280,15050,23310,23170,,,,,,,0x03,
14813,-1201,-644,266,13020,10710,22190,,,,,,,0x03,
14823,-1157,-632,242,8400,-1330,16800,,,,,,,0x03,
14833,-1092,-601,107,-3990,-13090,10220,,,,,,,0x03,
14842,-997,-546,-101,-20580,-21840,5390,,,,,,,0x03,
14852,-869,-518,-228,-29680,-22820,2520,,,,,,,0x03,
14862,-757,-526,-259,-31640,-17290,-2590,,,,,,,0x03,
14871,-700,-553,-259,-29680,-10710,-12180,,,,,,,0x03,
14881,-710,-570,-266,-23590,-5810,-23590,,,,,,,0x03,
14891,-754,-529,-287,-15400,-1680,-31710,,,,,,,0x03,
14900,-799,-459,-272,-4130,3360,-33950,,,,,,,0x03,
14910,-816,-386,-264,4410,7140,-33390,,,,,,,0x03,
14920,-839,-346,-268,12320,7910,-31780,,,,,,,0x03,
14929,-860,-327,-258,21000,7840,-30730,,,,,,,0x03,
14939,-860,-335,-260,26950,8120,-28980,,,,,,,0x03,
14949,-864,-345,-262,33180,7980,-28910,,,,,,,0x03,
14958,-854,-332,-283,40530,8190,-29680,,,,,,,0x03,
14968,-848,-314,-295,51380,8050,-29540,,,,,,,0x03,
14978,-846,-303,-310,65380,8610,-29330,,,,,,,0x03,
14987,-852,-311,-240,80710,9240,-27510,,,,,,,0x03,
14997,-840,-321,-208,87920,8820,-22540,,,,,,,0x03,
15007,-833,-331,-164,88480,7560,-18830,,,,,,,0x03,
15016,-820,-341,-154,81550,6860,-16730,,,,,,,0x03,
15026,-837,-337,-152,73010,5250,-14630,,,,,,,0x03,
15036,-857,-353,-147,63700,4620,-10990,,,,,,,0x03,
15045,-891,-393,-141,54320,4410,-6230,,,,,,,0x03,
15055,-942,-426,-125,45570,5180,-2660,,,,,,,0x03,
15065,-992,-437,-91,36050,5600,-980,,,,,,,0x03,
15074,-1034,-424,-58,24990,4760,210,,,,,,,0x03,
15084,-1064,-392,-36,11410,2730,3710,,,,,,,0x03,
15094,-1066,-355,-25,-3780,490,9170,,,,,,,0x03,
15103,-1053,-328,-18,-22400,-2310,15540,,,,,,,0x03,
15113,-1018,-332,-79,-43820,-4130,20650,,,,,,,0x03,
15123,-965,-384,-117,-57470,-4830,21910,,,,,,,0x03,
15132,-907,-455,-151,-66290,-5110,20160,,,,,,,0x03,
15142,-867,-527,-209,-69860,-4690,16380,,,,,,,0x03,
15152,-842,-573,-238,-65310,-3430,10360,,,,,,,0x03,
15161,-829,-594,-261,-56350,-1960,2660,,,,,,,0x03,
15171,-822,-593,-251,-44030,0,-5390,,,,,,,0x03,
15181,-824,-574,-234,-33250,770,-11900,,,,,,,0x03,
15190,-842,-549,-216,-24430,770,-15470,,,,,,,0x03,
15200,-869,-514,-194,-18550,280,-16030,,,,,,,0x03,
15209,-885,-486,-179,-16240,-700,-13720,,,,,,,0x03,
15219,-895,-479,-174,-16870,-1610,-10080,,,,,,,0x03,
15229,-902,-476,-176,-19180,-2730,-6930,,,,,,,0x03,
15238,-907,-474,-182,-21770,-3920,-5040,,,,,,,0x03,
15248,-895,-484,-201,-24290,-4900,-4130,,,,,,,0x03,
15258,-889,-494,-213,-24430,-5390,-3780,,,,,,,0x03,
15267,-898,-494,-217,-23660,-5740,-4830,,,,,,,0x03,
15277,-909,-488,-214,-23100,-5810,-5810,,,,,,,0x03,
15287,-918,-488,-192,-22400,-5810,-6090,,,,,,,0x03,
15296,-936,-484,-180,-23660,-6370,-5320,,,,,,,0x03,
15306,-948,-473,-174,-26670,-6930,-4060,,,,,,,0x03,
15316,-954,-459,-159,-33390,-7560,-1400,,,,,,,0x03,
15325,-952,-448,-171,-45570,-7700,2380,,,,,,,0x03,
15335,-934,-430,-192,-56210,-7630,5180,,,,,,,0x03,
15345,-918,-434,-208,-63490,-8050,6790,,,,,,,0x03,
15354,-917,-445,-227,-68250,-8540,8610,,,,,,,0x03,
15364,-921,-463,-242,-69720,-9240,9870,,,,,,,0x03,
15374,-922,-467,-253,-69510,-10150,11410,,,,,,,0x03,
15383,-945,-460,-252,-69580,-11200,11480,,,,,,,0x03,
15393,-977,-431,-287,-66640,-12460,4550,,,,,,,0x03,
15403,-935,-459,-236,-63000,-12950,-840,,,,,,,0x03,
15412,-936,-453,-254,-65240,-13930,3010,,,,,,,0x03,
15422,-919,-430,-264,-64680,-14700,7000,,,,,,,0x03,
15432,-902,-427,-265,-62930,-14840,9800,,,,,,,0x03,
15441,-880,-423,-264,-64190,-14910,9590,,,,,,,0x03,
15451,-870,-424,-279,-66780,-14910,6650,,,,,,,0x03,
15461,-862,-435,-288,-67480,-14700,4200,,,,,,,0x03,
15470,-843,-436,-320,-64470,-14560,1820,,,,,,,0x03,
15480,-800,-467,-308,-56840,-13860,-280,,,,,,,0x03,
15490,-783,-505,-306,-51100,-13790,-3570,,,,,,,0x03,
15499,-779,-515,-319,-45430,-13790,-10360,,,,,,,0x03,
15509,-781,-500,-319,-36400,-13580,-17360,,,,,,,0x03,
15519,-766,-491,-320,-26180,-13160,-21140,,,,,,,0x03,
15528,-740,-489,-317,-13930,-12390,-23030,,,,,,,0x03,
15538,-753,-490,-316,-420,-12040,-26810,,,,,,,0x03,
15548,-765,-462,-304,11830,-10710,-31640,,,,,,,0x03,
15557,-765,-420,-291,22120,-9030,-35350,,,,,,,0x03,
15567,-767,-376,-290,29190,-7140,-36540,,,,,,,0x03,
15577,-751,-346,-280,35420,-5110,-35140,,,,,,,0x03,
15586,-742,-326,-278,41580,-3220,-32060,,,,,,,0x03,
15596,-742,-316,-280,48510,-910,-29400,,,,,,,0x03,
15606,-743,-309,-285,56280,2170,-26950,,,,,,,0x03,
15615,-740,-293,-282,62790,5670,-24430,,,,,,,0x03,
15625,-723,-294,-284,68810,9310,-22680,,,,,,,0x03,
15635,-708,-304,-269,75040,12740,-22120,,,,,,,0x03,
15644,-707,-320,-248,80150,15330,-22540,,,,,,,0x03,
15654,-711,-351,-235,84070,16870,-22470,,,,,,,0x03,
15664,-706,-366,-202,86940,17010,-19600,,,,,,,0x03,
15673,-704,-368,-162,84910,16730,-10290,,,,,,,0x03,
15683,-818,-387,-162,77000,15470,4760,,,,,,,0x03,
15693,-881,-420,-144,69860,13580,12740,,,,,,,0x03,
15702,-905,-452,-148,61530,13370,17780,,,,,,,0x03,
15712,-904,-490,-139,56910,13930,21070,,,,,,,0x03,
15722,-916,-492,-116,52150,13580,23940,,,,,,,0x03,
15731,-942,-473,-103,42140,11620,25970,,,,,,,0x03,
15741,-966,-443,-101,29260,8820,27790,,,,,,,0x03,
15751,-968,-438,-85,17080,6230,29890,,,,,,,0x03,
15760,-989,-455,-67,4830,2800,31570,,,,,,,0x03,
15770,-1008,-449,-103,-11550,-910,31920,,,,,,,0x03,
15780,-1012,-447,-139,-23730,-3360,31850,,,,,,,0x03,
15789,-1009,-456,-173,-32340,-4690,31290,,,,,,,0x03,
15799,-984,-463,-219,-41650,-5040,29330,,,,,,,0x03,
15809,-944,-485,-254,-47040,-4340,26320,,,,,,,0x03,
15818,-909,-516,-266,-47180,-2520,21280,,,,,,,0x03,
15828,-876,-540,-258,-43120,-770,13300,,,,,,,0x03,
15838,-861,-532,-254,-35490,490,5110,,,,,,,0x03,
15847,-861,-506,-223,-24500,1190,-140,,,,,,,0x03,
15857,-874,-498,-225,-16590,630,350,,,,,,,0x03,
15867,-870,-496,-227,-9870,350,2940,,,,,,,0x03,
15876,-851,-490,-228,-4550,350,4550,,,,,,,0x03,
15886,-846,-479,-236,-980,420,4060,,,,,,,0x03,
15896,-856,-466,-228,1680,630,3010,,,,,,,0x03,
15905,-875,-461,-212,2940,910,1750,,,,,,,0x03,
15915,-903,-460,-201,3010,350,700,,,,,,,0x03,
15925,-925,-458,-185,3080,-840,1050,,,,,,,0x03,
15934,-935,-453,-182,770,-1960,2800,,,,,,,0x03,
15944,-928,-447,-187,-1680,-2590,3430,,,,,,,0x03,
15954,-916,-435,-193,-3710,-2940,2940,,,,,,,0x03,
15963,-905,-426,-200,-5320,-3290,2240,,,,,,,0x03,
15973,-904,-434,-207,-6020,-3570,1470,,,,,,,0x03,
15983,-904,-442,-209,-5950,-3640,630,,,,,,,0x03,
15992,-896,-445,-217,-4970,-3850,-140,,,,,,,0x03,
16002,-889,-450,-221,-3150,-3920,-840,,,,,,,0x03,
16012,-876,-461,-226,-980,-3780,-1680,,,,,,,0x03,
16021,-858,-460,-232,3150,-3290,-3220,,,,,,,0x03,
16031,-856,-456,-227,7630,-2800,-4270,,,,,,,0x03,
16041,-853,-448,-222,10290,-2170,-5250,,,,,,,0x03,
16050,-853,-444,-222,10990,-1540,-5460,,,,,,,0x03,
16060,-854,-451,-214,11550,-1120,-6090,,,,,,,0x03,
16070,-869,-455,-204,12460,-1050,-6860,,,,,,,0x03,
16079,-885,-457,-193,12600,-1260,-7560,,,,,,,0x03,
16089,-899,-453,-194,10990,-1540,-7490,,,,,,,0x03,
16098,-907,-448,-197,8750,-1750,-6720,,,,,,,0x03,
16108,-901,-449,-200,6370,-1960,-5390,,,,,,,0x03,
16118,-902,-445,-200,4060,-2380,-3570,,,,,,,0x03,
16127,-899,-436,-203,1050,-2870,-1190,,,,,,,0x03,
16137,-892,-444,-207,-2590,-3640,630,,,,,,,0x03,
16147,-893,-455,-213,-6090,-4480,1540,,,,,,,0x03,
16156,-904,-454,-224,-8050,-5180,1680,,,,,,,0x03,
16166,-898,-445,-224,-8400,-5740,770,,,,,,,0x03,
16176,-907,-447,-207,-9310,-6580,210,,,,,,,0x03,
16185,-917,-442,-204,-11270,-7630,210,,,,,,,0x03,
16195,-922,-437,-202,-13020,-8610,910,,,,,,,0x03,
16205,-927,-437,-211,-14420,-9380,1680,,,,,,,0x03,
16214,-922,-444,-213,-14770,-9590,1540,,,,,,,0x03,
16224,-912,-444,-221,-14910,-9450,1260,,,,,,,0x03,
16234,-908,-444,-217,-14280,-9100,0,,,,,,,0x03,
16243,-894,-450,-210,-13930,-8820,-2240,,,,,,,0x03,
16253,-892,-452,-208,-12740,-8890,-4130,,,,,,,0x03,
16263,-887,-456,-205,-10500,-8820,-6020,,,,,,,0x03,
16272,-888,-457,-199,-7770,-8820,-7420,,,,,,,0x03,
16282,-886,-461,-197,-5810,-8890,-7770,,,,,,,0x03,
16292,-892,-466,-193,-4690,-9170,-7070,,,,,,,0x03,
16301,-897,-467,-202,-4760,-9520,-5670,,,,,,,0x03,
16311,-908,-454,-220,-5250,-9870,-3920,,,,,,,0x03,
16321,-915,-441,-223,-5180,-9940,-1610,,,,,,,0x03,
16330,-927,-419,-218,-3500,-9660,140,,,,,,,0x03,
16340,-934,-393,-204,560,-9030,1330,,,,,,,0x03,
16350,-946,-372,-188,3220,-8960,3710,,,,,,,0x03,
16359,-958,-356,-189,2170,-9660,8260,,,,,,,0x03,
16369,-956,-342,-206,-420,-10220,13090,,,,,,,0x03,
16379,-952,-324,-226,-2660,-10640,17010,,,,,,,0x03,
16388,-947,-305,-228,-4480,-10780,21560,,,,,,,0x03,
16398,-945,-274,-257,-6580,-11130,27300,,,,,,,0x03,
16408,-941,-236,-264,-5460,-10990,33040,,,,,,,0x03,
16417,-947,-206,-241,-3570,-10430,38710,,,,,,,0x03,
16427,-977,-192,-246,-3850,-9730,45360,,,,,,,0x03,
16437,-999,-192,-238,-1330,-8890,51590,,,,,,,0x03,
16446,-1003,-210,-195,3080,-7980,55860,,,,,,,0x03,
16456,-1021,-232,-169,4130,-7910,58730,,,,,,,0x03,
16466,-1047,-248,-169,3220,-7700,60620,,,,,,,0x03,
16475,-1050,-262,-144,5460,-6650,59500,,,,,,,0x03,
16485,-1017,-253,-133,5460,-5670,55720,,,,,,,0x03,
16495,-992,-249,-129,5880,-5180,51030,,,,,,,0x03,
16504,-975,-234,-105,6300,-5740,44730,,,,,,,0x03,
16514,-955,-231,-78,3010,-7630,39410,,,,,,,0x03,
16524,-939,-243,-79,-4130,-10710,35980,,,,,,,0x03,
16533,-930,-282,-79,-10430,-13230,33110,,,,,,,0x03,
16543,-923,-347,-94,-14980,-15260,30170,,,,,,,0x03,
16553,-911,-394,-108,-16450,-16520,27300,,,,,,,0x03,
16562,-888,-423,-106,-13230,-17360,24570,,,,,,,0x03,
16572,-872,-434,-130,-9240,-18060,22820,,,,,,,0x03,
16582,-859,-412,-156,-2590,-17990,21070,,,,,,,0x03,
16591,-844,-388,-144,4480,-17570,19110,,,,,,,0x03,
16601,-844,-369,-158,6020,-17570,17850,,,,,,,0x03,
16611,-870,-359,-152,6510,-17080,16030,,,,,,,0x03,
16620,-917,-319,-208,1470,-17710,16730,,,,,,,0x03,
16630,-964,-260,-231,210,-18060,18550,,,,,,,0x03,
16640,-1019,-205,-198,-2030,-19600,21490,,,,,,,0x03,
16649,-1126,-146,-191,-9730,-23520,26670,,,,,,,0x03,
16659,-1289,-77,-140,-15050,-27720,34020,,,,,,,0x03,
16669,-1261,-2,-120,-27020,-34020,46340,,,,,,,0x03,
16678,-1213,64,-130,-42000,-41300,59990,,,,,,,0x03,
16688,-1083,134,-120,-53620,-49630,69510,,,,,,,0x03,
16698,-1059,171,-61,-63280,-58170,73150,,,,,,,0x03,
16707,-1098,144,-155,-89740,-65730,77560,,,,,,,0x03,
16717,-1150,123,-625,-128660,-62510,92540,,,,,,,0x03,
16727,-1138,62,-782,-132790,-42560,101290,,,,,,,0x03,
16736,-990,13,-659,-124880,-19250,96950,,,,,,,0x03,
16746,-896,6,-564,-116550,-3850,83580,,,,,,,0x03,
16756,-830,58,-447,-100310,5530,73990,,,,,,,0x03,
16765,-777,124,-347,-81970,10500,79520,,,,,,,0x03,
16775,-749,127,-259,-66710,12110,91700,,,,,,,0x03,
16785,-759,45,-201,-55860,11550,105140,,,,,,,0x03,
16794,-783,-114,-170,-45640,10150,117670,,,,,,,0x03,
16804,-846,-293,-124,-31220,9240,128590,,,,,,,0x03,
16814,-886,-434,-87,-13720,9380,136710,,,,,,,0x03,
16823,-916,-494,-65,5110,9870,140840,,,,,,,0x03,
16833,-874,-501,-52,21980,10640,142240,,,,,,,0x03,
16843,-837,-425,-50,37450,12180,141960,,,,,,,0x03,
16852,-788,-308,-24,52570,14140,131460,,,,,,,0x03,
16862,-772,-237,18,63980,14770,118580,,,,,,,0x03,
16872,-805,-236,48,72310,14350,109480,,,,,,,0x03,
16881,-820,-240,65,77000,14140,99260,,,,,,,0x03,
16891,-857,-238,68,79380,14770,88200,,,,,,,0x03,
16901,-899,-247,53,77560,15680,82810,,,,,,,0x03,
16910,-898,-274,24,74270,16940,79940,,,,,,,0x03,
16920,-872,-302,15,72310,18130,77280,,,,,,,0x03,
16930,-811,-289,-193,59360,18830,69930,,,,,,,0x03,
16939,-641,-252,-129,60830,25270,48860,,,,,,,0x03,
16949,-574,-296,44,69860,24080,22750,,,,,,,0x03,
16958,-758,-329,-76,60550,16940,2940,,,,,,,0x03,
16968,-940,-255,-239,52780,16590,-7700,,,,,,,0x03,
16978,-936,-108,-277,44800,21980,-7910,,,,,,,0x03,
16987,-961,74,-379,35210,28070,-350,,,,,,,0x03,
16997,-1029,284,-387,40740,33670,3640,,,,,,,0x03,
17007,-1136,498,-288,49210,31290,9590,,,,,,,0x03,
17016,-1286,669,-169,49140,20650,24780,,,,,,,0x03,
17026,-1517,778,13,38430,5670,49070,,,,,,,0x03,
17036,-1739,816,90,7490,-3570,84000,,,,,,,0x03,
17045,-1689,639,55,-35910,-5880,114310,,,,,,,0x03,
17055,-1399,327,-134,-80780,-6650,120820,,,,,,,0x03,
17065,-1128,114,-275,-97020,-4550,98210,,,,,,,0x03,
17074,-939,-2,-312,-85540,-910,54390,,,,,,,0x03,
17084,-886,26,-305,-64470,4270,13930,,,,,,,0x03,
17094,-847,150,-277,-43890,9170,-20230,,,,,,,0x03,
17103,-858,254,-254,-28910,13650,-37940,,,,,,,0x03,
17113,-860,311,-279,-19040,15610,-38570,,,,,,,0x03,
17123,-851,332,-290,-6370,15680,-32550,,,,,,,0x03,
17132,-818,321,-283,7910,17220,-31430,,,,,,,0x03,
17142,-809,301,-280,21070,18200,-31080,,,,,,,0x03,
17152,-828,307,-258,31570,18410,-27160,,,,,,,0x03,
17161,-840,326,-265,33880,17290,-20510,,,,,,,0x03,
17171,-837,312,-276,28840,16100,-15400,,,,,,,0x03,
17181,-824,251,-295,18200,16170,-14280,,,,,,,0x03,
17190,-805,155,-266,8750,17920,-17990,,,,,,,0x03,
17200,-817,85,-251,4760,19600,-25970,,,,,,,0x03,
17210,-866,104,-255,8050,20510,-34510,,,,,,,0x03,
17219,-918,204,-264,16310,20370,-38920,,,,,,,0x03,
17229,-958,327,-244,25060,19670,-39130,,,,,,,0x03,
17239,-972,385,-199,28980,17640,-33740,,,,,,,0x03,
17248,-973,365,-213,24360,13510,-25550,,,,,,,0x03,
17258,-957,292,-242,16870,10290,-20720,,,,,,,0x03,
17268,-972,196,-251,8890,7700,-20440,,,,,,,0x03,
17277,-1003,112,-256,-840,6020,-21210,,,,,,,0x03,
17287,-1025,74,-286,-13230,5810,-20300,,,,,,,0x03,
17297,-1035,95,-300,-24990,9240,-20510,,,,,,,0x03,
17306,-1050,108,-242,-34440,11970,-21630,,,,,,,0x03,
17316,-1087,154,-280,-46480,9660,-18830,,,,,,,0x03,
17326,-1084,210,-303,-53760,10640,-14280,,,,,,,0x03,
17335,-1066,228,-279,-56630,11760,-11830,,,,,,,0x03,
17345,-1037,227,-287,-58660,10500,-10220,,,,,,,0x03,
17355,-1005,209,-317,-56490,8330,-7280,,,,,,,0x03,
17364,-960,159,-303,-48300,7980,-7280,,,,,,,0x03,
17374,-946,101,-308,-37660,8190,-10290,,,,,,,0x03,
17384,-935,54,-308,-24570,10010,-14910,,,,,,,0x03,
17393,-928,21,-311,-11760,12110,-19390,,,,,,,0x03,
17403,-925,15,-322,0,13930,-22820,,,,,,,0x03,
17413,-932,46,-329,12250,15680,-25270,,,,,,,0x03,
17422,-956,100,-313,23940,16800,-26530,,,,,,,0x03,
17432,-988,151,-292,31990,15820,-25060,,,,,,,0x03,
17442,-1011,183,-276,34790,12810,-21000,,,,,,,0x03,
17451,-1026,189,-280,33530,9520,-16940,,,,,,,0x03,
17461,-1032,179,-278,32200,7700,-14420,,,,,,,0x03,
17471,-1028,159,-266,30940,6160,-13510,,,,,,,0x03,
17480,-1028,153,-263,28770,3990,-13440,,,,,,,0x03,
17490,-1023,154,-265,27230,2170,-13440,,,,,,,0x03,
17500,-1004,150,-268,26250,910,-12810,,,,,,,0x03,
17509,-985,143,-260,25900,350,-12670,,,,,,,0x03,
17519,-967,128,-267,24990,-490,-12810,,,,,,,0x03,
17529,-949,117,-284,23100,-980,-12600,,,,,,,0x03,
17538,-936,110,-290,22120,0,-12740,,,,,,,0x03,
17548,-936,107,-289,21070,840,-13090,,,,,,,0x03,
17558,-942,103,-286,19600,1610,-12600,,,,,,,0x03,
17567,-953,98,-275,17710,2310,-11130,,,,,,,0x03,
17577,-963,94,-283,14840,1890,-9240,,,,,,,0x03,
17587,-963,93,-295,12460,1680,-7140,,,,,,,0x03,
17596,-956,92,-282,11410,1610,-5950,,,,,,,0x03,
17606,-954,81,-278,10010,910,-5530,,,,,,,0x03,
17616,-961,70,-298,8260,70,-4760,,,,,,,0x03,
17625,-958,52,-307,8050,210,-4060,,,,,,,0x03,
17635,-958,30,-315,8960,350,-3850,,,,,,,0x03,
17645,-960,18,-321,11340,490,-3850,,,,,,,0x03,
17654,-968,18,-331,14280,630,-4060,,,,,,,0x03,
17664,-976,23,-332,18130,1050,-4060,,,,,,,0x03,
17674,-985,27,-329,22680,1680,-3990,,,,,,,0x03,
17683,-995,30,-325,27580,2240,-3990,,,,,,,0x03,
17693,-1008,35,-321,33320,2450,-3360,,,,,,,0x03,
17703,-1013,45,-317,39550,2310,-2240,,,,,,,0x03,
17712,-1010,62,-315,45290,1820,-1120,,,,,,,0x03,
17722,-1003,79,-314,49840,1190,-140,,,,,,,0x03,
17732,-994,93,-306,53410,630,1260,,,,,,,0x03,
17741,-978,122,-298,55090,-700,3360,,,,,,,0x03,
17751,-949,159,-305,52640,-2380,5250,,,,,,,0x03,
17761,-895,191,-306,47810,-3360,7840,,,,,,,0x03,
17770,-838,240,-312,42770,-4900,11130,,,,,,,0x03,
17780,-870,233,-302,37240,-7140,13230,,,,,,,0x03,
17790,-874,237,-295,31150,-9660,12110,,,,,,,0x03,
17799,-899,237,-309,24430,-12740,10850,,,,,,,0x03,
17809,-909,231,-329,21420,-15890,9730,,,,,,,0x03,
17818,-921,203,-329,23590,-16030,10780,,,,,,,0x03,
17828,-943,178,-306,26880,-16380,9310,,,,,,,0x03,
17838,-989,185,-306,26600,-16660,7000,,,,,,,0x03,
17847,-1024,203,-286,24570,-16100,5320,,,,,,,0x03,
17857,-1058,225,-247,17710,-16100,6860,,,,,,,0x03,
17867,-1103,239,-234,3430,-16590,11410,,,,,,,0x03,
17876,-1119,244,-246,-14280,-17990,16450,,,,,,,0x03,
17886,-1111,231,-243,-30310,-19670,23450,,,,,,,0x03,
17896,-1084,206,-247,-46760,-21910,27510,,,,,,,0x03,
17905,-1075,183,-254,-63210,-25410,27020,,,,,,,0x03,
17915,-1064,153,-192,-81340,-30030,26390,,,,,,,0x03,
17925,-1087,148,-241,-105700,-35000,30100,,,,,,,0x03,
17934,-1031,127,-298,-123480,-34650,30660,,,,,,,0x03,
17944,-956,54,-327,-139160,-20020,33040,,,,,,,0x03,
17954,-908,17,-413,-133490,-6720,27860,,,,,,,0x03,
17963,-868,-39,-414,-112350,6440,16660,,,,,,,0x03,
17973,-871,-62,-401,-85890,13650,1610,,,,,,,0x03,
17983,-867,-53,-368,-57190,18410,-14910,,,,,,,0x03,
17992,-863,-47,-284,-27580,21910,-29470,,,,,,,0x03,
18002,-880,-27,-261,-13440,20510,-35980,,,,,,,0x03,
18012,-894,-10,-248,-7910,16940,-34300,,,,,,,0x03,
18021,-882,6,-231,-350,14770,-29260,,,,,,,0x03,
18031,-865,11,-223,6860,11900,-24430,,,,,,,0x03,
18041,-853,-2,-221,12880,9590,-19530,,,,,,,0x03,
18050,-842,2,-205,20510,6650,-15820,,,,,,,0x03,
18060,-845,48,-188,25760,3360,-11550,,,,,,,0x03,
18070,-854,95,-170,26040,-210,-6230,,,,,,,0x03,
18079,-875,118,-163,20510,-3710,-490,,,,,,,0x03,
18089,-896,116,-169,14210,-7070,5670,,,,,,,0x03,
18099,-903,99,-174,10990,-9870,9800,,,,,,,0x03,
18108,-915,81,-176,10290,-12250,11760,,,,,,,0x03,
18118,-921,60,-181,11200,-14210,10500,,,,,,,0x03,
18128,-926,48,-185,13230,-15260,7700,,,,,,,0x03,
18137,-927,39,-189,17150,-15540,2450,,,,,,,0x03,
18147,-917,35,-192,19670,-16310,-3710,,,,,,,0x03,
18157,-906,38,-204,18480,-17640,-9380,,,,,,,0x03,
18166,-890,44,-233,15540,-18410,-14910,,,,,,,0x03,
18176,-868,52,-273,11200,-18480,-19810,,,,,,,0x03,
18186,-847,85,-308,12950,-16450,-27510,,,,,,,0x03,
18195,-824,49,-314,25060,-11620,-39270,,,,,,,0x03,
18205,-805,38,-402,22890,-12250,-45430,,,,,,,0x03,
18215,-759,19,-436,20230,-2030,-49420,,,,,,,0x03,
18224,-703,-22,-396,27790,10850,-57890,,,,,,,0x03,
18234,-705,-67,-345,40390,21140,-67200,,,,,,,0x03,
18244,-759,-88,-350,47390,26810,-69090,,,,,,,0x03,
18253,-762,-62,-392,52710,29190,-65660,,,,,,,0x03,
18263,-828,-14,-369,66010,34020,-58870,,,,,,,0x03,
18273,-907,19,-284,79170,41860,-52500,,,,,,,0x03,
18282,-1010,105,-257,80570,41020,-40250,,,,,,,0x03,
18292,-1088,172,-258,78120,36260,-23450,,,,,,,0x03,
18302,-1155,238,-287,67970,32130,-6790,,,,,,,0x03,
18311,-1210,305,-295,56490,26110,5180,,,,,,,0x03,
18321,-1265,347,-264,45010,19880,15400,,,,,,,0x03,
18331,-1262,313,-255,31290,16730,25550,,,,,,,0x03,
18340,-1204,229,-238,18900,13300,33530,,,,,,,0x03,
18350,-1145,147,-236,7280,7070,36330,,,,,,,0x03,
18360,-1108,65,-255,-1680,2450,33110,,,,,,,0x03,
18369,-1046,-7,-278,-4410,490,24220,,,,,,,0x03,
18379,-999,-58,-290,-280,1330,15190,,,,,,,0x03,
18389,-957,-74,-311,5810,4130,6300,,,,,,,0x03,
18398,-938,-53,-323,14350,7770,-1400,,,,,,,0x03,
18408,-939,-20,-330,24430,11690,-5810,,,,,,,0x03,
18418,-948,-8,-361,33530,14420,-7630,,,,,,,0x03,
18427,-963,7,-376,41440,17570,-9240,,,,,,,0x03,
18437,-998,51,-357,46410,20720,-10010,,,,,,,0x03,
18447,-1027,68,-319,48720,22050,-8050,,,,,,,0x03,
18456,-1016,71,-307,42000,18970,-420,,,,,,,0x03,
18466,-1015,80,-288,30450,13650,8050,,,,,,,0x03,
18476,-993,74,-293,20790,9800,12530,,,,,,,0x03,
18485,-974,59,-319,14350,7140,17150,,,,,,,0x03,
18495,-939,51,-315,7280,4480,20300,,,,,,,0x03,
18505,-922,63,-320,-1470,2870,19740,,,,,,,0x03,
18514,-923,64,-317,-8330,1540,16030,,,,,,,0x03,
18524,-920,42,-325,-13580,-70,14840,,,,,,,0x03,
18534,-927,63,-331,-18690,-700,15960,,,,,,,0x03,
18543,-927,61,-321,-22120,-210,17640,,,,,,,0x03,
18553,-967,78,-324,-23800,210,19320,,,,,,,0x03,
18563,-979,63,-329,-27510,210,19320,,,,,,,0x03,
18572,-1008,58,-314,-32900,-1120,22330,,,,,,,0x03,
18582,-1023,87,-327,-38430,-3010,23310,,,,,,,0x03,
18592,-1030,90,-330,-42070,-5460,21630,,,,,,,0x03,
18601,-1044,78,-324,-46340,-7770,20300,,,,,,,0x03,
18611,-1024,83,-330,-51380,-10080,21210,,,,,,,0x03,
18621,-1006,73,-329,-53900,-10430,22400,,,,,,,0x03,
18630,-999,62,-327,-53550,-9660,21630,,,,,,,0x03,
18640,-981,46,-328,-51660,-7840,18340,,,,,,,0x03,
18650,-983,27,-332,-49420,-5670,14140,,,,,,,0x03,
18659,-969,17,-330,-45570,-3920,8890,,,,,,,0x03,
18669,-968,13,-344,-41160,-1330,4130,,,,,,,0x03,
18679,-961,32,-354,-37730,210,140,,,,,,,0x03,
18688,-958,42,-347,-35560,1680,-3920,,,,,,,0x03,
18698,-955,53,-334,-32760,1470,-7630,,,,,,,0x03,
18707,-947,63,-327,-26670,770,-11760,,,,,,,0x03,
18717,-962,65,-331,-19950,420,-15680,,,,,,,0x03,
18727,-949,57,-324,-14700,1400,-17500,,,,,,,0x03,
18736,-945,53,-308,-10360,1960,-16240,,,,,,,0x03,
18746,-956,53,-309,-7280,1190,-16100,,,,,,,0x03,
18756,-955,60,-321,-5880,140,-16170,,,,,,,0x03,
18765,-958,70,-332,-4200,-630,-15330,,,,,,,0x03,
18775,-952,76,-334,-490,-490,-15120,,,,,,,0x03,
18785,-956,73,-335,4200,-560,-16030,,,,,,,0x03,
18794,-952,75,-335,6790,-1400,-16730,,,,,,,0x03,
18804,-960,76,-328,9800,-2170,-17360,,,,,,,0x03,
18814,-958,85,-330,12320,-3010,-17780,,,,,,,0x03,
18823,-965,94,-334,14420,-4760,-17850,,,,,,,0x03,
18833,-970,104,-353,14910,-7490,-16100,,,,,,,0x03,
18843,-974,105,-351,17290,-8260,-14560,,,,,,,0x03,
18852,-980,109,-332,19390,-8680,-13230,,,,,,,0x03,
18862,-1009,117,-303,18900,-9520,-11410,,,,,,,0x03,
18872,-1023,126,-275,15610,-10780,-7910,,,,,,,0x03,
18881,-1035,124,-262,11550,-14140,-2170,,,,,,,0x03,
18891,-1042,122,-252,9940,-16450,3850,,,,,,,0x03,
18901,-1036,101,-210,13370,-15540,8750,,,,,,,0x03,
18910,-1044,81,-250,14070,-14350,14210,,,,,,,0x03,
18920,-1024,63,-260,10570,-13020,19950,,,,,,,0x03,
18930,-993,23,-243,3500,-14070,22540,,,,,,,0x03,
18939,-989,-28,-198,-4270,-17080,19810,,,,,,,0x03,
18949,-978,-101,-103,-11900,-23870,13650,,,,,,,0x03,
18959,-999,-174,-57,-18900,-33460,6020,,,,,,,0x03,
18968,-1028,-220,-47,-16730,-41650,-1960,,,,,,,0x03,
18978,-1054,-218,-43,-4970,-47390,-9940,,,,,,,0x03,
18988,-1075,-196,-40,11410,-53130,-16730,,,,,,,0x03,
18997,-1065,-145,-32,26600,-60690,-21700,,,,,,,0x03,
19007,-1056,-108,-38,35420,-67270,-24920,,,,,,,0x03,
19017,-1035,-99,-41,43050,-73500,-29260,,,,,,,0x03,
19026,-1034,-100,-55,50120,-79660,-33180,,,,,,,0x03,
19036,-998,-46,-54,56000,-87150,-34370,,,,,,,0x03,
19046,-1016,-17,-33,61950,-96460,-31990,,,,,,,0x03,
19055,-1064,-20,-17,64820,-100100,-29750,,,,,,,0x03,
19065,-1066,13,-17,66220,-100590,-29680,,,,,,,0x03,
19075,-1063,41,-21,67410,-101010,-27300,,,,,,,0x03,
19084,-1048,76,-25,65240,-99610,-23170,,,,,,,0x03,
19094,-1031,94,-29,62860,-97440,-19250,,,,,,,0x03,
19104,-1020,101,-54,56210,-95690,-13790,,,,,,,0x03,
19113,-996,103,-46,45010,-95340,-7420,,,,,,,0x03,
19123,-976,94,-28,31920,-95550,-840,,,,,,,0x03,
19133,-978,71,-8,21910,-95550,3710,,,,,,,0x03,
19142,-983,60,13,14910,-94710,6650,,,,,,,0x03,
19152,-966,47,27,10290,-94220,9520,,,,,,,0x03,
19162,-956,28,2,10080,-91770,11830,,,,,,,0x03,
19171,-943,8,-10,13090,-88340,12810,,,,,,,0x03,
19181,-957,-1,-18,14490,-87290,12670,,,,,,,0x03,
19191,-955,0,-20,14770,-87780,12390,,,,,,,0x03,
19200,-974,3,-28,18970,-87850,11060,,,,,,,0x03,
19210,-943,-16,-2,26110,-86800,8120,,,,,,,0x03,
19220,-910,-12,16,29820,-85820,6300,,,,,,,0x03,
19229,-891,-16,35,31920,-84770,4620,,,,,,,0x03,
19239,-889,-31,40,35490,-83090,2520,,,,,,,0x03,
19249,-874,-28,16,40040,-79870,210,,,,,,,0x03,
19258,-882,-18,2,44380,-76020,-2800,,,,,,,0x03,
19268,-904,6,8,42980,-75180,-4690,,,,,,,0x03,
19278,-907,27,15,38920,-75740,-4830,,,,,,,0x03,
19287,-920,32,35,38570,-74340,-5740,,,,,,,0x03,
19297,-920,34,60,39200,-71960,-7490,,,,,,,0x03,
19307,-929,52,72,37170,-70350,-7420,,,,,,,0x03,
19316,-941,71,91,31360,-69440,-5250,,,,,,,0x03,
19326,-953,76,118,23870,-67410,-4200,,,,,,,0x03,
19336,-945,68,110,15400,-63980,-3360,,,,,,,0x03,
19345,-940,47,98,10990,-59990,-2380,,,,,,,0x03,
19355,-925,31,108,9450,-54040,-2730,,,,,,,0x03,
19365,-933,39,108,6440,-47880,-3080,,,,,,,0x03,
19374,-946,55,101,770,-43050,-2730,,,,,,,0x03,
19384,-936,66,100,-5740,-38010,-2800,,,,,,,0x03,
19394,-928,59,117,-10080,-33180,-3920,,,,,,,0x03,
19403,-928,50,115,-12460,-27230,-5320,,,,,,,0x03,
19413,-924,34,120,-11970,-21000,-6090,,,,,,,0x03,
19423,-921,23,119,-11970,-15400,-7350,,,,,,,0x03,
19432,-913,19,111,-12320,-11130,-8750,,,,,,,0x03,
19442,-899,0,109,-10570,-7770,-10850,,,,,,,0x03,
19452,-882,-20,95,-6090,-4410,-13370,,,,,,,0x03,
19461,-872,-38,78,-560,-980,-16450,,,,,,,0x03,
19471,-851,-38,155,9660,280,-21840,,,,,,,0x03,
19481,-862,41,481,33460,-7490,-27370,,,,,,,0x03,
19490,-1162,40,1030,70630,-29470,-27160,,,,,,,0x03,
19500,-1503,-6,734,75040,-30380,-16730,,,,,,,0x03,
19510,-1373,221,132,57820,-4480,7910,,,,,,,0x03,
19519,-1067,246,-19,42490,1400,32620,,,,,,,0x03,
19529,-924,99,110,5880,-2870,31150,,,,,,,0x03,
19539,-933,3,247,-9310,-3010,15610,,,,,,,0x03,
19548,-985,51,270,-840,1540,4340,,,,,,,0x03,
19558,-1017,114,229,4480,3850,1750,,,,,,,0x03,
19567,-1018,110,261,1400,2590,2870,,,,,,,0x03,
19577,-1004,77,320,-5320,-560,4550,,,,,,,0x03,
19587,-997,37,341,-6860,-2940,5530,,,,,,,0x03,
19596,-985,10,328,-1540,-4620,6230,,,,,,,0x03,
19606,-963,0,311,6790,-6020,5530,,,,,,,0x03,
19616,-942,0,307,16100,-7070,3850,,,,,,,0x03,
19625,-947,10,323,27300,-7700,3010,,,,,,,0x03,
19635,-953,21,334,37100,-8470,4060,,,,,,,0x03,
19645,-943,28,334,42840,-9730,6930,,,,,,,0x03,
19654,-942,41,302,42560,-11480,7910,,,,,,,0x03,
19664,-951,76,272,42770,-15610,-490,,,,,,,0x03,
19674,-977,85,252,41860,-20020,-13090,,,,,,,0x03,
19683,-1000,62,280,41860,-23660,-19670,,,,,,,0x03,
19693,-1014,21,307,41370,-24500,-21140,,,,,,,0x03,
19703,-1019,-7,308,44100,-23380,-23800,,,,,,,0x03,
19712,-1007,-37,301,48790,-20440,-27580,,,,,,,0x03,
19722,-998,-41,290,51800,-17920,-32550,,,,,,,0x03,
19732,-994,-17,278,55790,-16660,-40880,,,,,,,0x03,
19741,-1009,-27,293,61600,-17080,-48860,,,,,,,0x03,
19751,-992,-16,295,63700,-16800,-52780,,,,,,,0x03,
19761,-1015,-18,326,70000,-16450,-56280,,,,,,,0x03,
19770,-1025,-12,331,69720,-16800,-56420,,,,,,,0x03,
19780,-993,-24,323,67900,-16030,-52500,,,,,,,0x03,
19790,-990,-30,334,67900,-14560,-47740,,,,,,,0x03,
19799,-973,-26,323,64820,-12530,-46200,,,,,,,0x03,
19809,-958,-21,335,61390,-11480,-43120,,,,,,,0x03,
19819,-935,-35,362,59850,-9450,-38710,,,,,,,0x03,
19828,-925,-37,355,58380,-8330,-34580,,,,,,,0x03,
19838,-913,-49,356,59850,-6860,-31640,,,,,,,0x03,
19848,-887,-71,358,64260,-4200,-27650,,,,,,,0x03,
19857,-881,-85,358,70700,-70,-24990,,,,,,,0x03,
19867,-870,-94,334,75670,4410,-24780,,,,,,,0x03,
19877,-882,-119,342,81270,8540,-24710,,,,,,,0x03,
19886,-866,-105,317,86520,11480,-27580,,,,,,,0x03,
19896,-873,-88,308,95480,14560,-33110,,,,,,,0x03,
19906,-903,-83,330,103460,18340,-37450,,,,,,,0x03,
19915,-922,-49,307,106330,21490,-43120,,,,,,,0x03,
19925,-938,-28,282,110460,23800,-47670,,,,,,,0x03,
19935,-951,-19,287,111370,27650,-49560,,,,,,,0x03,
19944,-975,-16,282,107030,29400,-49630,,,,,,,0x03,
19954,-978,-4,279,98910,30590,-47110,,,,,,,0x03,
19964,-998,26,276,89600,31990,-42210,,,,,,,0x03,
19973,-1035,57,272,76510,34230,-32690,,,,,,,0x03,
19983,-1049,65,254,62160,36960,-20370,,,,,,,0x03,
19993,-1055,66,225,49980,40390,-8750,,,,,,,0x03,
20002,-1061,63,200,40250,43680,0,,,,,,,0x03,
20012,-1047,48,188,32480,45780,3430,,,,,,,0x03,
20022,-1052,38,220,26810,45290,4410,,,,,,,0x03,
20031,-1049,2,160,24430,45010,5250,,,,,,,0x03,
20041,-1020,-48,46,30240,45850,1890,,,,,,,0x03,
20051,-941,-109,41,28350,49840,-4060,,,,,,,0x03,
20060,-917,-152,46,16240,52710,-9800,,,,,,,0x03,
20070,-955,-165,16,12180,55720,-16800,,,,,,,0x03,
20080,-974,-177,16,20370,62860,-24220,,,,,,,0x03,
20089,-973,-223,13,25830,71750,-28070,,,,,,,0x03,
20099,-966,-270,-19,29610,80220,-31220,,,,,,,0x03,
20109,-971,-231,-20,37450,87780,-34790,,,,,,,0x03,
20118,-1000,-109,23,42490,92890,-39410,,,,,,,0x03,
20128,-1024,9,60,37590,92610,-41720,,,,,,,0x03,
20138,-1025,39,34,22470,90720,-38640,,,,,,,0x03,
20147,-999,5,3,8750,88690,-32830,,,,,,,0x03,
20157,-999,-37,-13,1050,86800,-28630,,,,,,,0x03,
20167,-989,-89,-32,-1400,86380,-28420,,,,,,,0x03,
20176,-981,-126,-40,2520,87850,-29960,,,,,,,0x03,
20186,-991,-128,-37,5320,88900,-32200,,,,,,,0x03,
20196,-999,-115,-38,2380,88340,-36050,,,,,,,0x03,
20205,-1026,-118,-43,-1680,90790,-42070,,,,,,,0x03,
20215,-1024,-112,-34,-7700,91560,-48090,,,,,,,0x03,
20225,-1040,-72,-11,-11970,89600,-50750,,,,,,,0x03,
20234,-1065,-47,-25,-13020,88130,-55090,,,,,,,0x03,
20244,-1030,-44,-27,-12810,87290,-58520,,,,,,,0x03,
20254,-992,-46,-3,-14210,85750,-60830,,,,,,,0x03,
20263,-965,-60,-18,-19600,82740,-62370,,,,,,,0x03,
20273,-962,-63,-26,-26530,79310,-61320,,,,,,,0x03,
20283,-963,-60,-14,-28210,77490,-61530,,,,,,,0x03,
20292,-992,-67,7,-26530,76510,-59010,,,,,,,0x03,
20302,-1000,-77,17,-27930,75670,-55860,,,,,,,0x03,
20312,-985,-125,-8,-31640,73500,-52710,,,,,,,0x03,
20321,-1029,-158,-10,-29470,70490,-52430,,,,,,,0x03,
20331,-1034,-130,0,-24710,66360,-56980,,,,,,,0x03,
20341,-992,-132,4,-19950,61670,-59080,,,,,,,0x03,
20350,-970,-134,4,-13930,56070,-57890,,,,,,,0x03,
20360,-951,-116,-21,-4760,50470,-57470,,,,,,,0x03,
20370,-968,-135,-28,5740,45150,-56980,,,,,,,0x03,
20379,-966,-151,-43,15400,39620,-55720,,,,,,,0x03,
20389,-968,-159,-15,27720,35700,-53480,,,,,,,0x03,
20399,-954,-146,17,34230,32480,-51940,,,,,,,0x03,
20408,-975,-143,5,28980,27650,-49840,,,,,,,0x03,
20418,-976,-140,-2,21840,22330,-46970,,,,,,,0x03,
20427,-994,-155,-7,15890,17150,-43190,,,,,,,0x03,
20437,-988,-177,-65,11410,11970,-37660,,,,,,,0x03,
20447,-984,-198,-47,16590,9240,-33740,,,,,,,0x03,
20456,-953,-195,-48,17850,6510,-32900,,,,,,,0x03,
20466,-922,-197,-77,17570,1680,-31570,,,,,,,0x03,
20476,-943,-213,-63,16380,-3080,-29400,,,,,,,0x03,
20485,-938,-234,-77,10430,-7140,-26880,,,,,,,0x03,
20495,-924,-223,-79,5110,-10430,-24640,,,,,,,0x03,
20505,-938,-219,-48,4130,-12950,-21560,,,,,,,0x03,
20514,-948,-238,-31,9590,-15120,-16870,,,,,,,0x03,
20524,-943,-254,-60,17850,-16030,-12740,,,,,,,0x03,
20534,-913,-262,-95,22960,-16170,-10570,,,,,,,0x03,
20543,-883,-293,-118,21980,-15470,-8890,,,,,,,0x03,
20553,-879,-351,-153,18690,-15400,-7070,,,,,,,0x03,
20563,-879,-405,-186,12600,-14140,-7070,,,,,,,0x03,
20572,-866,-448,-230,1680,-10500,-9730,,,,,,,0x03,
20582,-809,-436,-237,-7070,-5110,-13580,,,,,,,0x03,
20592,-842,-447,-215,-10010,-70,-17710,,,,,,,0x03,
20601,-842,-400,-168,-7630,3570,-19810,,,,,,,0x03,
20611,-875,-357,-131,-4690,6090,-17430,,,,,,,0x03,
20621,-904,-336,-106,350,8260,-12670,,,,,,,0x03,
20630,-935,-353,-117,4340,11060,-7700,,,,,,,0x03,
20640,-960,-375,-158,11270,14420,-1820,,,,,,,0x03,
20650,-982,-391,-233,16380,17920,2100,,,,,,,0x03,
20659,-1004,-395,-268,17990,20300,4480,,,,,,,0x03,
20669,-1010,-380,-267,15330,20370,5250,,,,,,,0x03,
20679,-1040,-355,-271,7910,18480,4550,,,,,,,0x03,
20688,-1083,-320,-274,-210,15470,4830,,,,,,,0x03,
20698,-1098,-299,-272,-5950,12880,6090,,,,,,,0x03,
20708,-1096,-301,-266,-10290,11270,8190,,,,,,,0x03,
20717,-1081,-305,-261,-14420,8750,9310,,,,,,,0x03,
20727,-1049,-299,-262,-16800,5530,9030,,,,,,,0x03,
20737,-1004,-301,-247,-17150,2030,8680,,,,,,,0x03,
20746,-958,-324,-238,-17990,-1610,8890,,,,,,,0x03,
20756,-934,-359,-253,-17500,-4410,8960,,,,,,,0x03,
20766,-898,-392,-244,-15960,-6230,7000,,,,,,,0x03,
20775,-881,-399,-235,-14280,-5320,3290,,,,,,,0x03,
20785,-900,-387,-235,-11900,-4620,-630,,,,,,,0x03,
20795,-927,-361,-228,-8610,-3220,-1680,,,,,,,0x03,
20804,-947,-340,-218,-5600,-1120,-910,,,,,,,0x03,
20814,-974,-333,-223,-6090,70,3080,,,,,,,0x03,
20824,-984,-337,-211,-7910,280,6160,,,,,,,0x03,
20833,-976,-345,-204,-12950,-630,8890,,,,,,,0x03,
20843,-979,-338,-206,-18270,-2310,10500,,,,,,,0x03,
20853,-979,-333,-200,-21140,-3850,9940,,,,,,,0x03,
20862,-969,-327,-198,-23940,-5810,9030,,,,,,,0x03,
20872,-942,-321,-211,-26040,-7630,8050,,,,,,,0x03,
20882,-914,-330,-220,-27370,-9590,6930,,,,,,,0x03,
20891,-889,-334,-232,-26180,-10780,4830,,,,,,,0x03,
20901,-880,-332,-241,-22400,-10920,1890,,,,,,,0x03,
20911,-875,-323,-245,-21910,-11620,210,,,,,,,0x03,
20920,-889,-319,-263,-20650,-10570,-910,,,,,,,0x03,
20930,-915,-322,-268,-14560,-7910,-1960,,,,,,,0x03,
20940,-926,-308,-263,-10360,-5110,-910,,,,,,,0x03,
20949,-942,-299,-271,-7840,-3010,70,,,,,,,0x03,
20959,-951,-295,-260,-6370,-2380,1330,,,,,,,0x03,
20969,-948,-300,-245,-8120,-2170,2100,,,,,,,0x03,
20978,-955,-305,-229,-9170,-3010,1330,,,,,,,0x03,
20988,-961,-301,-214,-8820,-3920,-490,,,,,,,0x03,
20998,-956,-294,-203,-9800,-5530,-1610,,,,,,,0x03,
21007,-943,-286,-207,-11620,-7770,-1330,,,,,,,0x03,
21017,-931,-289,-207,-12110,-9450,-700,,,,,,,0x03,
21027,-913,-298,-214,-13650,-11270,140,,,,,,,0x03,
21036,-907,-314,-219,-14420,-12110,840,,,,,,,0x03,
21046,-903,-326,-222,-13930,-11970,910,,,,,,,0x03,
21056,-909,-326,-229,-12810,-11270,350,,,,,,,0x03,
21065,-904,-324,-225,-11270,-10640,-140,,,,,,,0x03,
21075,-906,-320,-224,-10990,-10710,490,,,,,,,0x03,
21085,-915,-316,-220,-11550,-10990,1260,,,,,,,0x03,
21094,-919,-320,-214,-13440,-11270,3010,,,,,,,0x03,
21104,-918,-318,-217,-12880,-10710,4130,,,,,,,0x03,
21114,-913,-311,-219,-10150,-9450,3920,,,,,,,0x03,
21123,-906,-304,-213,-10710,-9240,4480,,,,,,,0x03,
21133,-907,-305,-215,-11620,-9450,5180,,,,,,,0x03,
21143,-908,-308,-221,-10710,-9520,4900,,,,,,,0x03,
21152,-904,-310,-219,-9590,-9660,3990,,,,,,,0x03,
21162,-899,-305,-219,-8890,-9870,3010,,,,,,,0x03,
21172,-894,-301,-221,-7700,-9450,2100,,,,,,,0x03,
21181,-893,-300,-217,-7000,-9030,1260,,,,,,,0x03,
21191,-897,-294,-217,-5950,-8540,210,,,,,,,0x03,
21201,-903,-288,-214,-5390,-8190,-210,,,,,,,0x03,
21210,-906,-291,-205,-6160,-7700,210,,,,,,,0x03,
21220,-909,-288,-201,-7140,-7280,420,,,,,,,0x03,
21230,-913,-282,-194,-7910,-6860,630,,,,,,,0x03,
21239,-923,-282,-194,-8190,-5880,910,,,,,,,0x03,
21249,-933,-283,-203,-8260,-4830,1470,,,,,,,0x03,
21259,-938,-287,-209,-9660,-4410,3010,,,,,,,0x03,
21268,-938,-292,-215,-12390,-4690,4550,,,,,,,0x03,
21278,-946,-295,-216,-15260,-5180,5810,,,,,,,0x03,
21287,-963,-291,-222,-17850,-6580,7420,,,,,,,0x03,
21297,-969,-299,-219,-20510,-7840,9310,,,,,,,0x03,
21307,-996,-315,-211,-21140,-8190,9380,,,,,,,0x03,
21316,-997,-316,-201,-21910,-8120,8400,,,,,,,0x03,
21326,-1006,-309,-194,-23030,-8540,8330,,,,,,,0x03,
21336,-1033,-309,-200,-22890,-9170,8190,,,,,,,0x03,
21345,-1050,-295,-194,-24500,-9310,9520,,,,,,,0x03,
21355,-1054,-277,-178,-26880,-9100,12040,,,,,,,0x03,
21365,-1051,-255,-171,-28140,-7490,15120,,,,,,,0x03,
21374,-1053,-235,-183,-28210,-6160,17990,,,,,,,0x03,
21384,-1037,-206,-159,-26810,-910,20790,,,,,,,0x03,
21394,-1024,-197,-135,-22470,2030,22610,,,,,,,0x03,
21403,-988,-199,-144,-20510,1260,25130,,,,,,,0x03,
21413,-968,-220,-160,-16800,-420,26110,,,,,,,0x03,
21423,-935,-229,-170,-15330,-4270,25340,,,,,,,0x03,
21432,-908,-204,-155,-13720,-8050,22470,,,,,,,0x03,
21442,-875,-172,-4,-5670,-15750,16310,,,,,,,0x03,
21452,-922,-151,50,5110,-23030,13580,,,,,,,0x03,
21461,-966,-123,49,16450,-29190,17150,,,,,,,0x03,
21471,-971,-101,62,25200,-35700,25060,,,,,,,0x03,
21481,-979,-121,34,32690,-41370,33040,,,,,,,0x03,
21490,-986,-160,32,42420,-45780,39830,,,,,,,0x03,
21500,-995,-146,77,53690,-49560,45010,,,,,,,0x03,
21510,-1016,-116,88,62020,-52990,48580,,,,,,,0x03,
21519,-1035,-79,81,66430,-56630,54950,,,,,,,0x03,
21529,-1042,-55,86,68250,-59500,63280,,,,,,,0x03,
21539,-1053,-36,89,70140,-61530,69300,,,,,,,0x03,
21548,-1067,-11,94,70840,-62510,72590,,,,,,,0x03,
21558,-1062,38,102,66500,-65590,76720,,,,,,,0x03,
21568,-1083,59,90,56350,-69230,82460,,,,,,,0x03,
21577,-1087,75,98,43540,-73570,89600,,,,,,,0x03,
21587,-1089,67,82,27930,-78050,95760,,,,,,,0x03,
21597,-1104,18,41,11970,-83790,99540,,,,,,,0x03,
21606,-1097,-55,22,-1750,-88410,99960,,,,,,,0x03,
21616,-1075,-119,3,-8750,-90300,93030,,,,,,,0x03,
21626,-1071,-133,-4,-8190,-87430,81130,,,,,,,0x03,
21635,-1061,-110,20,-5390,-83300,69650,,,,,,,0x03,
21645,-1040,-80,8,-9380,-80220,60620,,,,,,,0x03,
21655,-1021,-51,0,-15960,-78120,54250,,,,,,,0x03,
21664,-994,-37,6,-25200,-78820,49490,,,,,,,0x03,
21674,-982,-31,9,-35770,-79590,44240,,,,,,,0x03,
21684,-945,-55,5,-43610,-80220,40670,,,,,,,0x03,
21693,-932,-97,-24,-47880,-79100,37450,,,,,,,0x03,
21703,-934,-125,-72,-48580,-75740,33250,,,,,,,0x03,
21713,-918,-99,-88,-44380,-71190,28000,,,,,,,0x03,
21722,-921,-48,-61,-39550,-65940,23450,,,,,,,0x03,
21732,-923,-31,-35,-35840,-62440,22610,,,,,,,0x03,
21742,-933,-23,-36,-36050,-59220,22400,,,,,,,0x03,
21751,-940,-13,-58,-37170,-55580,21490,,,,,,,0x03,
21761,-952,0,-54,-35490,-51940,19880,,,,,,,0x03,
21771,-955,-2,-30,-31710,-47040,17710,,,,,,,0x03,
21780,-968,-6,0,-30660,-42910,17290,,,,,,,0x03,
21790,-986,0,-12,-32410,-38150,17850,,,,,,,0x03,
21800,-997,6,-15,-31850,-34160,18620,,,,,,,0x03,
21809,-995,8,-10,-29260,-28210,18690,,,,,,,0x03,
21819,-988,26,-2,-25410,-21210,17430,,,,,,,0x03,
21829,-991,47,-7,-24780,-14910,17850,,,,,,,0x03,
21838,-986,50,27,-23870,-9660,18900,,,,,,,0x03,
21848,-992,29,27,-23240,-4130,20720,,,,,,,0x03,
21858,-994,14,27,-22820,490,23100,,,,,,,0x03,
21867,-1004,9,31,-20860,5460,24570,,,,,,,0x03,
21877,-1015,1,28,-17990,10290,25550,,,,,,,0x03,
21887,-1017,-7,32,-13020,16030,26180,,,,,,,0x03,
21896,-1009,-3,48,-7560,22540,26040,,,,,,,0x03,
21906,-1011,9,72,-4340,27580,26530,,,,,,,0x03,
21916,-1008,17,82,-1750,32060,27300,,,,,,,0x03,
21925,-1010,28,83,910,35560,28420,,,,,,,0x03,
21935,-1012,30,90,4550,38150,29400,,,,,,,0x03,
21945,-1025,19,104,7700,40390,30310,,,,,,,0x03,
21954,-1030,-2,96,9030,41720,31290,,,,,,,0x03,
21964,-1036,-23,85,11550,42840,31430,,,,,,,0x03,
21974,-1041,-21,75,15120,44590,29120,,,,,,,0x03,
21983,-1030,-6,100,21140,46620,24640,,,,,,,0x03,
21993,-1026,2,106,23520,46970,22330,,,,,,,0x03,
22003,-1034,7,107,22890,46690,20790,,,,,,,0x03,
22012,-1018,14,124,20720,45640,19040,,,,,,,0x03,
22022,-1005,15,125,18900,44170,17500,,,,,,,0x03,
22032,-1009,18,120,19880,43260,14350,,,,,,,0x03,
22041,-998,24,131,21770,42630,9800,,,,,,,0x03,
22051,-982,9,126,21490,41020,5950,,,,,,,0x03,
22061,-982,-5,122,20930,39550,1120,,,,,,,0x03,
22070,-979,-6,116,21140,38710,-4480,,,,,,,0x03,
22080,-987,12,113,21350,37520,-9520,,,,,,,0x03,
22090,-986,29,111,19880,36330,-12880,,,,,,,0x03,
22099,-980,32,121,18550,35630,-15470,,,,,,,0x03,
22109,-976,39,118,15400,33880,-17150,,,,,,,0x03,
22119,-970,32,101,11550,31990,-18480,,,,,,,0x03,
22128,-956,15,99,9730,31430,-20510,,,,,,,0x03,
22138,-947,-2,107,9170,31150,-22540,,,,,,,0x03,
22148,-940,-9,95,7910,30730,-24780,,,,,,,0x03,
22157,-938,-15,88,6160,29890,-28350,,,,,,,0x03,
22167,-943,-17,90,4480,29190,-33180,,,,,,,0x03,
22176,-969,-25,98,4760,29190,-38290,,,,,,,0x03,
22186,-993,-19,89,3990,29190,-43050,,,,,,,0x03,
22196,-1004,-8,83,1680,28770,-47390,,,,,,,0x03,
22205,-1006,5,110,-1470,28140,-51240,,,,,,,0x03,
22215,-1026,7,117,-4060,27300,-53690,,,,,,,0x03,
22225,-1029,-6,112,-6090,26530,-54250,,,,,,,0x03,
22234,-1036,-15,113,-8120,25830,-54250,,,,,,,0x03,
22244,-1057,-35,128,-9380,24780,-54180,,,,,,,0x03,
22254,-1053,-57,112,-9870,23940,-52640,,,,,,,0x03,
22263,-1055,-62,115,-7000,23170,-51310,,,,,,,0x03,
22273,-1070,-71,126,-3920,21350,-50050,,,,,,,0x03,
22283,-1077,-81,138,140,19740,-48160,,,,,,,0x03,
22292,-1084,-104,162,4830,18130,-47740,,,,,,,0x03,
22302,-1078,-124,175,7350,15540,-48300,,,,,,,0x03,
22312,-1102,-147,200,10220,11060,-50400,,,,,,,0x03,
22321,-1097,-177,209,12320,6230,-52990,,,,,,,0x03,
22331,-1118,-187,199,15470,280,-55300,,,,,,,0x03,
22341,-1104,-175,212,22120,-5390,-58170,,,,,,,0x03,
22350,-1110,-139,247,29680,-11480,-59710,,,,,,,0x03,
22360,-1093,-114,244,31430,-19390,-58450,,,,,,,0x03,
22370,-1083,-114,241,31220,-28350,-56420,,,,,,,0x03,
22379,-1073,-130,235,32130,-37590,-54460,,,,,,,0x03,
22389,-1063,-150,212,34230,-45220,-52920,,,,,,,0x03,
22399,-1043,-171,194,38010,-51100,-52360,,,,,,,0x03,
22408,-1035,-173,185,42840,-55370,-52220,,,,,,,0x03,
22418,-1018,-170,195,48370,-59080,-52080,,,,,,,0x03,
22428,-993,-182,195,53760,-63000,-50750,,,,,,,0x03,
22437,-985,-180,188,58100,-66500,-48650,,,,,,,0x03,
22447,-987,-166,170,63980,-68530,-47460,,,,,,,0x03,
22457,-977,-153,174,69160,-69300,-45780,,,,,,,0x03,
22466,-952,-140,164,71890,-70840,-43120,,,,,,,0x03,
22476,-942,-114,147,77840,-70700,-40040,,,,,,,0x03,
22486,-934,-100,151,82530,-69510,-35350,,,,,,,0x03,
22495,-932,-108,149,84840,-69650,-29820,,,,,,,0x03,
22505,-938,-120,133,86380,-68110,-25550,,,,,,,0x03,
22515,-949,-119,102,86870,-66360,-22890,,,,,,,0x03,
22524,-921,-115,75,87850,-63770,-22330,,,,,,,0x03,
22534,-895,-120,57,85680,-61320,-21630,,,,,,,0x03,
22544,-898,-116,13,79450,-58660,-21630,,,,,,,0x03,
22553,-898,-107,17,74410,-55580,-23380,,,,,,,0x03,
22563,-896,-94,37,69510,-51940,-25130,,,,,,,0x03,
22573,-896,-105,27,63420,-48370,-26600,,,,,,,0x03,
22582,-885,-106,-1,53760,-45570,-27790,,,,,,,0x03,
22592,-864,-107,-54,42630,-42840,-29260,,,,,,,0x03,
22602,-804,-112,-74,30170,-40530,-31150,,,,,,,0x03,
22611,-765,-131,-103,13930,-38220,-32200,,,,,,,0x03,
22621,-749,-176,-108,-1050,-37800,-34020,,,,,,,0x03,
22631,-739,-205,-92,-14000,-38290,-34650,,,,,,,0x03,
22640,-735,-229,-134,-22120,-35490,-37170,,,,,,,0x03,
22650,-742,-239,-137,-26670,-32410,-40040,,,,,,,0x03,
22660,-756,-274,-123,-33740,-28770,-41580,,,,,,,0x03,
22669,-808,-271,-249,-53200,-19250,-41930,,,,,,,0x03,
22679,-810,-217,6,-58380,-9870,-44380,,,,,,,0x03,
22689,-919,-162,351,-53060,-7840,-46060,,,,,,,0x03,
22698,-1161,-3,279,-16380,-12670,-43960,,,,,,,0x03,
22708,-1273,143,355,33880,-7770,-36610,,,,,,,0x03,
22718,-1421,199,397,42210,-7560,-19390,,,,,,,0x03,
22727,-1652,230,413,35980,-10710,-1750,,,,,,,0x03,
22737,-1777,190,375,14210,-2730,14280,,,,,,,0x03,
22747,-1516,83,243,-36190,2870,27440,,,,,,,0x03,
22756,-1162,-61,120,-69720,-5040,24220,,,,,,,0x03,
22766,-1047,-166,61,-76300,-14420,16520,,,,,,,0x03,
22776,-1081,-192,83,-82390,-20300,7980,,,,,,,0x03,
22785,-1061,-202,136,-94920,-24080,-2310,,,,,,,0x03,
22795,-1023,-243,170,-104440,-27580,-8680,,,,,,,0x03,
22805,-1006,-301,203,-99260,-28420,-12670,,,,,,,0x03,
22814,-973,-316,222,-89110,-28350,-16170,,,,,,,0x03,
22824,-928,-347,222,-79240,-27790,-15960,,,,,,,0x03,
22834,-901,-383,253,-68880,-26460,-14350,,,,,,,0x03,
22843,-872,-423,253,-60060,-25970,-14280,,,,,,,0x03,
22853,-854,-450,254,-50190,-25200,-14000,,,,,,,0x03,
22863,-826,-475,259,-39550,-21700,-16310,,,,,,,0x03,
22872,-818,-466,280,-29820,-19950,-19390,,,,,,,0x03,
22882,-825,-445,278,-22540,-18550,-20440,,,,,,,0x03,
22892,-841,-420,280,-16310,-17640,-19740,,,,,,,0x03,
22901,-843,-400,278,-11900,-15470,-18480,,,,,,,0x03,
22911,-855,-385,269,-8050,-13440,-16380,,,,,,,0x03,
22921,-870,-371,260,-3990,-11830,-13370,,,,,,,0x03,
22930,-867,-376,263,0,-7840,-10780,,,,,,,0x03,
22940,-874,-371,274,3080,-4760,-8470,,,,,,,0x03,
22950,-878,-361,268,4480,-2520,-6230,,,,,,,0x03,
22959,-878,-365,285,5880,-910,-3990,,,,,,,0x03,
22969,-882,-368,298,6510,700,-2240,,,,,,,0x03,
22979,-882,-372,292,7210,1960,-1050,,,,,,,0x03,
22988,-878,-373,286,7000,2870,-700,,,,,,,0x03,
22998,-880,-380,279,7770,4550,-1120,,,,,,,0x03,
23008,-881,-372,294,8680,5110,-490,,,,,,,0x03,
23017,-876,-372,290,9240,5810,0,,,,,,,0x03,
23027,-865,-374,286,9590,6510,-70,,,,,,,0x03,
23036,-857,-383,289,9940,6720,-700,,,,,,,0x03,
23046,-854,-396,275,11130,6930,-2100,,,,,,,0x03,
23056,-857,-396,287,13160,7700,-4270,,,,,,,0x03,
23065,-861,-381,315,14140,7490,-5530,,,,,,,0x03,
23075,-893,-361,317,14140,6580,-4480,,,,,,,0x03,
23085,-908,-347,315,15400,6510,-4060,,,,,,,0x03,
23094,-922,-332,311,15820,6160,-2870,,,,,,,0x03,
23104,-944,-320,299,14910,4970,-1400,,,,,,,0x03,
23114,-958,-316,278,14000,3850,-350,,,,,,,0x03,
23123,-954,-312,275,13720,4060,70,,,,,,,0x03,
23133,-949,-301,271,12250,4130,210,,,,,,,0x03,
23143,-948,-290,273,10080,3920,0,,,,,,,0x03,
23152,-939,-284,270,8400,3570,350,,,,,,,0x03,
23162,-935,-290,271,6510,2100,1120,,,,,,,0x03,
23172,-928,-308,272,3850,910,2170,,,,,,,0x03,
23181,-919,-316,272,3150,280,2520,,,,,,,0x03,
23191,-912,-317,271,3430,0,2030,,,,,,,0x03,
23201,-909,-317,275,3360,-910,1610,,,,,,,0x03,
23210,-906,-317,274,3080,-1540,1050,,,,,,,0x03,
23220,-901,-322,278,3080,-1890,910,,,,,,,0x03,
23230,-903,-319,282,3150,-2240,630,,,,,,,0x03,
23239,-902,-316,282,4130,-1750,490,,,,,,,0x03,
23249,-906,-314,286,4900,-1610,630,,,,,,,0x03,
23259,-916,-313,289,4620,-1820,1190,,,,,,,0x03,
23268,-915,-312,288,4200,-1820,1890,,,,,,,0x03,
23278,-915,-313,291,3990,-1890,2030,,,,,,,0x03,
23288,-921,-313,292,3080,-1680,1890,,,,,,,0x03,
23297,-919,-315,294,2240,-2030,2170,,,,,,,0x03,
23307,-915,-320,291,630,-2030,2030,,,,,,,0x03,
23317,-909,-329,292,70,-1890,2030,,,,,,,0x03,
23326,-903,-336,294,490,-1960,1610,,,,,,,0x03,
