#Format version: 1.0
time[ms],accX[mg],accY[mg],accZ[mg],gyroX[mdps],gyroY[mdps],gyroZ[mdps],magnX[mG],magnY[mG],magnZ[mG],press[hPa],temp[°C],hum[0,-1003,-30,-62,560,-420,-420,,,,,,,0x03,
10,-1002,-29,-63,350,-350,-280,,,,,,,0x03,
19,-1001,-27,-64,210,-280,-210,,,,,,,0x03,
29,-1000,-28,-64,140,-210,-280,,,,,,,0x03,
39,-1001,-29,-65,-70,-280,-490,,,,,,,0x03,
48,-1000,-27,-64,-210,-210,-490,,,,,,,0x03,
58,-1000,-23,-65,-350,-70,-630,,,,,,,0x03,
68,-1001,-25,-63,-350,0,-840,,,,,,,0x03,
77,-1002,-27,-66,-280,0,-1050,,,,,,,0x03,
87,-1002,-30,-66,-420,-140,-980,,,,,,,0x03,
97,-1002,-30,-65,-420,-280,-910,,,,,,,0x03,
106,-1001,-31,-64,-490,-420,-770,,,,,,,0x03,
116,-1001,-31,-67,-560,-490,-910,,,,,,,0x03,
126,-1000,-29,-63,-910,-350,-1190,,,,,,,0x03,
135,-999,-24,-60,-1400,70,-1680,,,,,,,0x03,
145,-999,-19,-59,-1400,630,-2380,,,,,,,0x03,
155,-1001,-22,-61,-1120,980,-3080,,,,,,,0x03,
164,-1002,-28,-65,-1190,1330,-3710,,,,,,,0x03,
174,-1001,-31,-68,-1330,1610,-3780,,,,,,,0x03,
184,-1001,-31,-69,-1330,1470,-3500,,,,,,,0x03,
193,-1001,-34,-69,-1050,1190,-3430,,,,,,,0x03,
203,-1002,-38,-71,-700,770,-3150,,,,,,,0x03,
213,-1002,-44,-73,-210,140,-2310,,,,,,,0x03,
222,-1002,-45,-73,-210,-420,-1400,,,,,,,0x03,
232,-1000,-41,-71,-420,-700,-910,,,,,,,0x03,
242,-999,-39,-69,-420,-910,-490,,,,,,,0x03,
251,-1001,-37,-67,-350,-1260,-140,,,,,,,0x03,
261,-1001,-33,-66,-70,-1330,140,,,,,,,0x03,
271,-999,-29,-65,140,-1190,210,,,,,,,0x03,
280,-999,-28,-64,0,-1120,-70,,,,,,,0x03,
290,-1002,-29,-65,70,-840,-560,,,,,,,0x03,
300,-1000,-31,-67,70,-630,-840,,,,,,,0x03,
309,-1001,-34,-67,70,-560,-980,,,,,,,0x03,
319,-1001,-33,-66,0,-700,-840,,,,,,,0x03,
329,-1002,-32,-65,0,-700,-700,,,,,,,0x03,
338,-998,-33,-65,140,-420,-770,,,,,,,0x03,
348,-1000,-35,-67,280,-280,-980,,,,,,,0x03,
358,-1002,-37,-67,350,-280,-910,,,,,,,0x03,
367,-1001,-37,-69,350,-490,-560,,,,,,,0x03,
377,-1000,-36,-66,280,-700,-350,,,,,,,0x03,
387,-1001,-34,-66,210,-630,-560,,,,,,,0x03,
397,-1003,-35,-64,210,-490,-560,,,,,,,0x03,
406,-1001,-34,-67,280,-350,-420,,,,,,,0x03,
416,-998,-31,-66,70,-350,-490,,,,,,,0x03,
426,-999,-27,-67,140,-210,-910,,,,,,,0x03,
435,-1000,-30,-68,280,-70,-1330,,,,,,,0x03,
445,-1001,-33,-68,280,-70,-1540,,,,,,,0x03,
455,-1001,-35,-70,280,-140,-1540,,,,,,,0x03,
464,-999,-34,-69,70,-140,-1610,,,,,,,0x03,
474,-1001,-35,-67,70,-70,-1890,,,,,,,0x03,
484,-1001,-36,-67,0,-140,-1750,,,,,,,0x03,
493,-1000,-37,-68,-280,-140,-1680,,,,,,,0x03,
503,-1000,-33,-67,-490,70,-1960,,,,,,,0x03,
513,-1000,-33,-67,-700,140,-2170,,,,,,,0x03,
522,-1002,-35,-67,-700,280,-2380,,,,,,,0x03,
532,-1003,-37,-68,-700,280,-2240,,,,,,,0x03,
542,-999,-37,-68,-840,280,-2240,,,,,,,0x03,
551,-999,-35,-66,-980,630,-2590,,,,,,,0x03,
561,-1000,-32,-65,-1260,980,-3150,,,,,,,0x03,
571,-1001,-34,-66,-1190,1260,-3570,,,,,,,0x03,
580,-1001,-36,-67,-1260,1400,-3780,,,,,,,0x03,
590,-1001,-35,-66,-1400,1330,-4060,,,,,,,0x03,
600,-997,-38,-69,-1470,1330,-4830,,,,,,,0x03,
609,-1001,-40,-68,-1190,1750,-4830,,,,,,,0x03,
619,-1002,-46,-71,-1260,2100,-4900,,,,,,,0x03,
629,-999,-48,-72,-1330,2310,-4620,,,,,,,0x03,
638,-1005,-53,-77,-840,1750,-3640,,,,,,,0x03,
648,-1002,-58,-79,-420,630,-2030,,,,,,,0x03,
658,-1000,-57,-82,-280,-210,-910,,,,,,,0x03,
667,-998,-52,-79,-350,-770,-140,,,,,,,0x03,
677,-1000,-45,-75,-490,-910,70,,,,,,,0x03,
687,-1001,-40,-72,-280,-840,210,,,,,,,0x03,
696,-1000,-39,-74,0,-1050,350,,,,,,,0x03,
706,-999,-39,-74,140,-1470,350,,,,,,,0x03,
716,-997,-39,-75,140,-1540,0,,,,,,,0x03,
725,-998,-37,-71,-210,-1400,-560,,,,,,,0x03,
735,-1002,-35,-70,-280,-1050,-910,,,,,,,0x03,
745,-1001,-38,-71,-70,-770,-1120,,,,,,,0x03,
754,-999,-44,-73,280,-840,-1190,,,,,,,0x03,
764,-1000,-50,-76,350,-1050,-1050,,,,,,,0x03,
774,-1002,-52,-77,140,-1330,-630,,,,,,,0x03,
783,-998,-48,-73,140,-1470,-70,,,,,,,0x03,
793,-999,-43,-73,280,-1750,210,,,,,,,0x03,
803,-1001,-43,-72,560,-1960,280,,,,,,,0x03,
812,-1000,-45,-72,840,-1890,420,,,,,,,0x03,
822,-1001,-44,-71,560,-2170,560,,,,,,,0x03,
832,-997,-41,-69,70,-2520,-280,,,,,,,0x03,
841,-1002,-37,-65,140,-1820,-350,,,,,,,0x03,
851,-1001,-37,-65,350,-1610,-280,,,,,,,0x03,
861,-999,-36,-64,630,-1330,-420,,,,,,,0x03,
870,-998,-40,-67,700,-910,-980,,,,,,,0x03,
880,-999,-43,-68,630,-770,-1260,,,,,,,0x03,
890,-1002,-48,-71,280,-840,-1190,,,,,,,0x03,
899,-1003,-48,-71,70,-910,-910,,,,,,,0x03,
909,-1001,-46,-71,-140,-770,-560,,,,,,,0x03,
919,-1001,-46,-71,-280,-840,-280,,,,,,,0x03,
928,-1002,-45,-69,-280,-910,-70,,,,,,,0x03,
938,-1001,-42,-67,-210,-910,210,,,,,,,0x03,
948,-999,-40,-66,0,-770,280,,,,,,,0x03,
957,-1000,-40,-65,140,-490,-70,,,,,,,0x03,
967,-1001,-43,-66,210,-280,-210,,,,,,,0x03,
977,-1001,-47,-71,210,-140,-280,,,,,,,0x03,
986,-1001,-47,-70,-210,-140,-210,,,,,,,0x03,
996,-1001,-43,-70,-280,-210,0,,,,,,,0x03,
1006,-1001,-42,-70,-210,-350,210,,,,,,,0x03,
1015,-1001,-43,-70,140,-280,280,,,,,,,0x03,
1025,-1001,-47,-71,350,-350,560,,,,,,,0x03,
1035,-1000,-48,-72,140,-490,910,,,,,,,0x03,
1044,-1001,-48,-73,0,-770,1260,,,,,,,0x03,
1054,-1002,-48,-74,-70,-1260,1960,,,,,,,0x03,
1064,-1001,-46,-74,70,-1680,2800,,,,,,,0x03,
1073,-1000,-45,-75,210,-2170,3360,,,,,,,0x03,
1083,-1001,-47,-74,140,-2660,3640,,,,,,,0x03,
1093,-1001,-43,-69,-140,-2800,3990,,,,,,,0x03,
1102,-1000,-39,-67,-560,-2730,4060,,,,,,,0x03,
1112,-999,-33,-64,-700,-2520,3780,,,,,,,0x03,
1122,-1001,-28,-62,-910,-2030,3150,,,,,,,0x03,
1132,-1000,-28,-61,-910,-1540,2380,,,,,,,0x03,
1141,-999,-26,-63,-980,-980,1750,,,,,,,0x03,
1151,-996,-23,-63,-1190,-420,980,,,,,,,0x03,
1161,-999,-23,-65,-1190,140,-210,,,,,,,0x03,
1170,-999,-26,-67,-910,350,-1120,,,,,,,0x03,
1180,-1001,-33,-71,-420,70,-1400,,,,,,,0x03,
1190,-1000,-36,-73,140,-490,-1190,,,,,,,0x03,
1199,-1000,-40,-73,280,-980,-1050,,,,,,,0x03,
1209,-1000,-39,-72,280,-1050,-910,,,,,,,0x03,
1219,-1000,-38,-71,-70,-910,-700,,,,,,,0x03,
1228,-1002,-38,-68,-140,-630,-700,,,,,,,0x03,
1238,-1002,-37,-68,-70,-490,-560,,,,,,,0x03,
1248,-999,-36,-66,0,-490,-560,,,,,,,0x03,
1257,-1000,-35,-65,70,-350,-770,,,,,,,0x03,
1267,-1000,-34,-64,70,-70,-1050,,,,,,,0x03,
1277,-1000,-35,-65,140,210,-1400,,,,,,,0x03,
1286,-1000,-34,-69,140,490,-1680,,,,,,,0x03,
1296,-999,-35,-72,280,350,-1820,,,,,,,0x03,
1306,-1002,-37,-74,420,0,-1750,,,,,,,0x03,
1315,-1000,-38,-73,420,-140,-1610,,,,,,,0x03,
1325,-998,-37,-72,350,-140,-1540,,,,,,,0x03,
1335,-999,-36,-71,280,-140,-1680,,,,,,,0x03,
1344,-1001,-35,-70,-70,70,-1960,,,,,,,0x03,
1354,-1000,-32,-66,-420,490,-2450,,,,,,,0x03,
1364,-998,-29,-63,-840,1190,-3290,,,,,,,0x03,
1373,-1000,-33,-66,-910,2100,-4340,,,,,,,0x03,
1383,-1004,-39,-69,-770,2170,-4620,,,,,,,0x03,
1393,-1001,-45,-75,-700,1680,-3920,,,,,,,0x03,
1402,-998,-48,-77,-630,980,-3500,,,,,,,0x03,
1412,-999,-50,-77,-910,560,-3360,,,,,,,0x03,
1422,-1002,-49,-75,-1190,490,-3010,,,,,,,0x03,
1431,-1001,-44,-72,-1540,560,-2870,,,,,,,0x03,
1441,-996,-39,-72,-1820,770,-3080,,,,,,,0x03,
1451,-997,-35,-69,-2100,1190,-3850,,,,,,,0x03,
1460,-1001,-36,-69,-1960,1540,-4340,,,,,,,0x03,
1470,-1002,-41,-71,-1400,1190,-4200,,,,,,,0x03,
1480,-1001,-47,-74,-1120,910,-3990,,,,,,,0x03,
1489,-1001,-54,-76,-700,490,-3290,,,,,,,0x03,
1499,-1000,-62,-80,-490,-210,-2240,,,,,,,0x03,
1509,-1001,-63,-81,-490,-770,-1330,,,,,,,0x03,
1518,-999,-59,-80,-630,-1190,-700,,,,,,,0x03,
1528,-1000,-53,-76,-700,-1470,-210,,,,,,,0x03,
1538,-1000,-45,-73,-700,-1610,-140,,,,,,,0x03,
1547,-999,-40,-70,-630,-1540,-420,,,,,,,0x03,
1557,-1000,-39,-69,-350,-1540,-700,,,,,,,0x03,
1567,-999,-38,-69,70,-1400,-770,,,,,,,0x03,
1576,-998,-39,-71,210,-1190,-1120,,,,,,,0x03,
1586,-1000,-43,-71,350,-770,-1820,,,,,,,0x03,
1596,-999,-48,-76,210,-700,-2170,,,,,,,0x03,
1605,-999,-47,-76,-70,-700,-2310,,,,,,,0x03,
1615,-1000,-45,-75,0,-700,-2590,,,,,,,0x03,
1625,-999,-46,-75,140,-840,-2660,,,,,,,0x03,
1634,-998,-47,-74,210,-980,-2940,,,,,,,0x03,
1644,-1000,-45,-71,-70,-840,-3570,,,,,,,0x03,
1654,-997,-44,-71,-350,-490,-4410,,,,,,,0x03,
1663,-999,-41,-65,-490,140,-4690,,,,,,,0x03,
1673,-997,-41,-65,-1120,1120,-6020,,,,,,,0x03,
1683,-996,-41,-62,-1820,2520,-7910,,,,,,,0x03,
1692,-1001,-41,-60,-2800,4410,-9800,,,,,,,0x03,
1702,-1003,-40,-57,-3430,6300,-10920,,,,,,,0x03,
1712,-1000,-44,-61,-4060,7420,-11760,,,,,,,0x03,
1721,-998,-50,-68,-4410,8470,-12880,,,,,,,0x03,
1731,-998,-62,-75,-4550,9030,-13650,,,,,,,0x03,
1741,-1003,-71,-83,-4270,8960,-13090,,,,,,,0x03,
1750,-1002,-83,-93,-3500,7980,-11410,,,,,,,0x03,
1760,-1000,-95,-103,-2590,6650,-9380,,,,,,,0x03,
1770,-998,-103,-112,-1750,4270,-6510,,,,,,,0x03,
1779,-1002,-109,-116,-840,1680,-3080,,,,,,,0x03,
1789,-1003,-107,-114,-210,-1400,1050,,,,,,,0x03,
1799,-997,-98,-110,210,-3780,4410,,,,,,,0x03,
1808,-997,-85,-99,490,-5390,6510,,,,,,,0x03,
1818,-999,-74,-90,840,-6230,7840,,,,,,,0x03,
1828,-999,-63,-83,1470,-6930,8750,,,,,,,0x03,
1837,-996,-54,-79,1890,-7210,9030,,,,,,,0x03,
1847,-996,-48,-75,2310,-6930,8190,,,,,,,0x03,
1857,-995,-48,-72,2380,-6300,7000,,,,,,,0x03,
1867,-999,-45,-71,2100,-5460,5600,,,,,,,0x03,
1876,-998,-42,-67,1680,-4200,3990,,,,,,,0x03,
1886,-994,-38,-65,1260,-2800,1960,,,,,,,0x03,
1896,-994,-35,-65,980,-1260,-420,,,,,,,0x03,
1905,-996,-38,-66,630,0,-2590,,,,,,,0x03,
1915,-1000,-44,-71,560,980,-4270,,,,,,,0x03,
1925,-999,-53,-77,490,1610,-5250,,,,,,,0x03,
1934,-999,-62,-82,420,1610,-5530,,,,,,,0x03,
1944,-1001,-71,-87,560,1190,-5040,,,,,,,0x03,
1954,-1003,-77,-89,560,280,-3780,,,,,,,0x03,
1963,-1000,-79,-89,630,-490,-2310,,,,,,,0x03,
1973,-1000,-75,-88,630,-1400,-840,,,,,,,0x03,
1983,-998,-74,-85,770,-1890,210,,,,,,,0x03,
1992,-999,-72,-84,910,-2520,1190,,,,,,,0x03,
2002,-1000,-68,-80,700,-2870,2030,,,,,,,0x03,
2012,-999,-61,-76,490,-2870,2520,,,,,,,0x03,
2021,-995,-55,-72,280,-2730,2450,,,,,,,0x03,
2031,-998,-53,-71,280,-2380,1750,,,,,,,0x03,
2041,-1001,-52,-71,420,-1960,1120,,,,,,,0x03,
2050,-1000,-55,-73,770,-1960,1120,,,,,,,0x03,
2060,-998,-60,-77,1120,-2100,1050,,,,,,,0x03,
2070,-998,-62,-78,910,-1820,700,,,,,,,0x03,
2079,-999,-61,-80,770,-1750,630,,,,,,,0x03,
2089,-998,-59,-76,840,-1750,840,,,,,,,0x03,
2099,-997,-58,-78,910,-1750,630,,,,,,,0x03,
2108,-1000,-60,-78,1050,-1960,490,,,,,,,0x03,
2118,-1001,-59,-76,1190,-2380,840,,,,,,,0x03,
2128,-998,-55,-74,1400,-2310,840,,,,,,,0x03,
2137,-997,-52,-71,1540,-1960,0,,,,,,,0x03,
2147,-997,-53,-70,1540,-1540,-980,,,,,,,0x03,
2157,-1000,-54,-72,1470,-1050,-1610,,,,,,,0x03,
2166,-1000,-54,-72,1190,-770,-2100,,,,,,,0x03,
2176,-999,-54,-74,980,-560,-2450,,,,,,,0x03,
2186,-998,-57,-76,910,-490,-2590,,,,,,,0x03,
2195,-1000,-61,-77,910,-630,-2450,,,,,,,0x03,
2205,-999,-65,-78,770,-700,-2170,,,,,,,0x03,
2215,-999,-63,-76,490,-910,-1960,,,,,,,0x03,
2224,-999,-63,-75,420,-1050,-1750,,,,,,,0x03,
2234,-1001,-63,-73,700,-980,-1540,,,,,,,0x03,
2244,-1000,-69,-73,770,-1120,-910,,,,,,,0x03,
2253,-999,-68,-75,560,-1190,-280,,,,,,,0x03,
2263,-999,-63,-73,350,-1330,-70,,,,,,,0x03,
2273,-1000,-63,-73,350,-1330,0,,,,,,,0x03,
2282,-1000,-64,-72,420,-1400,210,,,,,,,0x03,
2292,-1000,-63,-75,420,-1400,490,,,,,,,0x03,
2302,-1000,-62,-73,420,-1400,560,,,,,,,0x03,
2311,-999,-59,-72,280,-1330,560,,,,,,,0x03,
2321,-999,-59,-73,350,-1190,490,,,,,,,0x03,
2331,-998,-60,-72,280,-1190,490,,,,,,,0x03,
2340,-1000,-60,-72,490,-1400,700,,,,,,,0x03,
2350,-1001,-62,-75,910,-1750,1190,,,,,,,0x03,
2360,-1001,-64,-76,1190,-2520,1890,,,,,,,0x03,
2369,-997,-67,-79,1120,-2520,2100,,,,,,,0x03,
2379,-998,-65,-78,700,-2660,2170,,,,,,,0x03,
2389,-1000,-61,-72,630,-2870,2450,,,,,,,0x03,
2398,-999,-53,-69,770,-2870,2590,,,,,,,0x03,
2408,-998,-51,-67,1120,-2940,2170,,,,,,,0x03,
2418,-1000,-52,-67,1540,-2730,1610,,,,,,,0x03,
2427,-1000,-51,-66,1470,-2450,1260,,,,,,,0x03,
2437,-998,-49,-65,1330,-1820,560,,,,,,,0x03,
2447,-999,-48,-63,1190,-1400,-140,,,,,,,0x03,
2456,-998,-48,-63,1050,-910,-910,,,,,,,0x03,
2466,-999,-50,-64,980,-350,-1820,,,,,,,0x03,
2476,-1000,-51,-67,770,210,-2520,,,,,,,0x03,
2485,-1000,-54,-67,490,770,-3010,,,,,,,0x03,
2495,-999,-56,-69,420,1120,-3290,,,,,,,0x03,
2505,-1002,-61,-72,350,1120,-3220,,,,,,,0x03,
2514,-1001,-65,-74,420,980,-2730,,,,,,,0x03,
2524,-1001,-68,-76,560,560,-1960,,,,,,,0x03,
2534,-1002,-70,-78,770,70,-1050,,,,,,,0x03,
2543,-1001,-67,-74,770,-280,-140,,,,,,,0x03,
2553,-1000,-65,-73,840,-630,560,,,,,,,0x03,
2563,-998,-63,-71,1050,-980,1050,,,,,,,0x03,
2572,-998,-63,-71,980,-1190,1050,,,,,,,0x03,
2582,-1002,-62,-72,840,-1330,1190,,,,,,,0x03,
2592,-998,-59,-72,560,-1540,1540,,,,,,,0x03,
2602,-998,-54,-70,280,-1470,1330,,,,,,,0x03,
2611,-999,-50,-71,210,-1330,840,,,,,,,0x03,
2621,-999,-54,-73,350,-1260,490,,,,,,,0x03,
2631,-1001,-60,-78,490,-1680,420,,,,,,,0x03,
2640,-1001,-59,-77,420,-2380,1050,,,,,,,0x03,
2650,-999,-56,-75,490,-2800,1400,,,,,,,0x03,
2660,-998,-55,-72,560,-2940,1470,,,,,,,0x03,
2669,-1001,-57,-69,630,-3010,1470,,,,,,,0x03,
2679,-1002,-55,-66,420,-2940,1470,,,,,,,0x03,
2689,-997,-50,-63,280,-2730,1260,,,,,,,0x03,
2698,-995,-49,-61,420,-2240,560,,,,,,,0x03,
2708,-1001,-53,-63,560,-1890,-280,,,,,,,0x03,
2718,-1001,-56,-64,560,-1750,-420,,,,,,,0x03,
2727,-999,-55,-68,560,-1820,-350,,,,,,,0x03,
2737,-998,-55,-69,560,-2030,-420,,,,,,,0x03,
2747,-1001,-57,-69,560,-2170,-700,,,,,,,0x03,
2756,-998,-58,-70,490,-2520,-700,,,,,,,0x03,
2766,-999,-55,-71,420,-3080,-770,,,,,,,0x03,
2776,-995,-53,-70,420,-4060,-980,,,,,,,0x03,
2785,-1003,-51,-66,490,-4480,-1400,,,,,,,0x03,
2795,-1001,-53,-66,770,-4270,-1400,,,,,,,0x03,
2805,-1001,-54,-64,840,-4060,-1330,,,,,,,0x03,
2814,-1001,-59,-65,770,-3990,-1260,,,,,,,0x03,
2824,-1002,-62,-65,490,-4200,-1120,,,,,,,0x03,
2834,-1003,-59,-63,140,-4830,-560,,,,,,,0x03,
2843,-1001,-55,-61,0,-5600,0,,,,,,,0x03,
2853,-999,-53,-57,140,-5670,-210,,,,,,,0x03,
2863,-999,-52,-56,350,-5530,-770,,,,,,,0x03,
2872,-1000,-56,-55,350,-5180,-1260,,,,,,,0x03,
2882,-1000,-56,-55,420,-5040,-1750,,,,,,,0x03,
2892,-1001,-54,-56,560,-5320,-2030,,,,,,,0x03,
2901,-1002,-61,-57,420,-4900,-2100,,,,,,,0x03,
2911,-1000,-62,-59,420,-4340,-2100,,,,,,,0x03,
2921,-1000,-65,-59,280,-4060,-1610,,,,,,,0x03,
2930,-1000,-62,-56,140,-4270,-1050,,,,,,,0x03,
2940,-1000,-57,-53,350,-4410,-700,,,,,,,0x03,
2950,-1000,-58,-49,490,-4270,-770,,,,,,,0x03,
2959,-1001,-59,-48,560,-3990,-700,,,,,,,0x03,
2969,-1000,-58,-50,490,-3640,-840,,,,,,,0x03,
2979,-1002,-55,-50,490,-3710,-1190,,,,,,,0x03,
2988,-1002,-56,-51,630,-3780,-1330,,,,,,,0x03,
2998,-1001,-60,-52,560,-3920,-1470,,,,,,,0x03,
3008,-999,-61,-51,280,-3640,-1400,,,,,,,0x03,
3017,-999,-58,-52,-70,-3220,-1400,,,,,,,0x03,
3027,-1000,-59,-53,-140,-3080,-1260,,,,,,,0x03,
3037,-1001,-59,-52,-140,-3220,-1050,,,,,,,0x03,
3046,-1000,-58,-48,-70,-3360,-770,,,,,,,0x03,
3056,-999,-57,-44,70,-3010,-630,,,,,,,0x03,
3066,-1001,-62,-42,140,-2380,-490,,,,,,,0x03,
3075,-1002,-63,-41,210,-1750,-280,,,,,,,0x03,
3085,-1000,-63,-43,140,-1330,140,,,,,,,0x03,
3095,-1003,-65,-46,210,-1400,350,,,,,,,0x03,
3104,-1001,-63,-46,210,-1610,770,,,,,,,0x03,
3114,-1000,-60,-45,140,-1540,910,,,,,,,0x03,
3124,-1000,-58,-45,210,-1330,840,,,,,,,0x03,
3133,-1002,-60,-46,350,-1190,700,,,,,,,0x03,
3143,-1003,-61,-48,350,-1470,980,,,,,,,0x03,
3153,-1004,-60,-48,560,-1820,1540,,,,,,,0x03,
3162,-1001,-57,-49,770,-2240,2100,,,,,,,0x03,
3172,-1002,-59,-50,1120,-2520,2240,,,,,,,0x03,
3182,-1001,-61,-49,1190,-2660,2380,,,,,,,0x03,
3191,-1002,-60,-48,1050,-2800,2590,,,,,,,0x03,
3201,-1000,-55,-43,980,-2730,2730,,,,,,,0x03,
3211,-1000,-49,-38,910,-2310,2590,,,,,,,0x03,
3220,-999,-45,-34,910,-1400,1960,,,,,,,0x03,
3230,-1000,-45,-32,980,-490,1190,,,,,,,0x03,
3240,-999,-44,-34,1050,350,490,,,,,,,0x03,
3249,-1000,-45,-34,1120,1470,-560,,,,,,,0x03,
3259,-999,-50,-38,1120,2380,-1330,,,,,,,0x03,
3269,-1001,-59,-47,910,2870,-1890,,,,,,,0x03,
3278,-1005,-60,-52,420,2940,-1820,,,,,,,0x03,
3288,-1002,-59,-54,0,2590,-1190,,,,,,,0x03,
3298,-999,-53,-55,-70,1960,-770,,,,,,,0x03,
3307,-1000,-51,-55,-140,1260,-840,,,,,,,0x03,
3317,-1000,-51,-55,-140,980,-1190,,,,,,,0x03,
3327,-1002,-54,-57,-420,560,-1400,,,,,,,0x03,
3337,-1003,-53,-56,-630,-70,-1330,,,,,,,0x03,
3346,-1005,-52,-53,-700,-770,-1190,,,,,,,0x03,
3356,-1001,-53,-52,-420,-1540,-840,,,,,,,0x03,
3366,-1000,-56,-50,-210,-1960,-560,,,,,,,0x03,
3375,-1001,-57,-46,-350,-2030,-560,,,,,,,0x03,
3385,-1001,-58,-45,-350,-1820,-420,,,,,,,0x03,
3395,-999,-56,-42,-350,-1540,-210,,,,,,,0x03,
3404,-1000,-54,-41,-210,-1260,-280,,,,,,,0x03,
3414,-1001,-56,-40,0,-840,-560,,,,,,,0x03,
3424,-1002,-58,-40,140,-420,-700,,,,,,,0x03,
3433,-1001,-58,-41,210,0,-630,,,,,,,0x03,
3443,-1002,-59,-40,420,280,-560,,,,,,,0x03,
3453,-1000,-58,-41,630,560,-490,,,,,,,0x03,
3462,-999,-57,-42,770,980,-350,,,,,,,0x03,
3472,-999,-55,-44,770,1470,-490,,,,,,,0x03,
3482,-1001,-57,-47,840,1890,-840,,,,,,,0x03,
3491,-1002,-58,-51,630,2100,-840,,,,,,,0x03,
3501,-1001,-57,-52,630,2030,-490,,,,,,,0x03,
3511,-1001,-58,-56,490,1750,-210,,,,,,,0x03,
3520,-1002,-60,-57,210,1400,70,,,,,,,0x03,
3530,-1001,-56,-56,0,1260,490,,,,,,,0x03,
3540,-998,-53,-54,-140,1050,700,,,,,,,0x03,
3549,-1001,-52,-52,0,910,560,,,,,,,0x03,
3559,-1000,-55,-53,70,1050,490,,,,,,,0x03,
3569,-1000,-55,-54,-210,1190,280,,,,,,,0x03,
3578,-1001,-53,-52,-350,1400,0,,,,,,,0x03,
3588,-1001,-52,-52,-350,1400,70,,,,,,,0x03,
3598,-1001,-54,-51,-70,1260,280,,,,,,,0x03,
3607,-1000,-55,-52,140,1260,280,,,,,,,0x03,
3617,-1000,-58,-51,140,1400,140,,,,,,,0x03,
3627,-1001,-58,-51,0,1750,140,,,,,,,0x03,
3636,-998,-55,-51,-350,2170,350,,,,,,,0x03,
3646,-1000,-53,-53,-630,2590,140,,,,,,,0x03,
3656,-1002,-54,-53,-630,2730,-140,,,,,,,0x03,
3665,-1003,-54,-55,-420,2730,-140,,,,,,,0x03,
3675,-999,-55,-58,-280,2660,70,,,,,,,0x03,
3685,-998,-53,-60,-420,2730,0,,,,,,,0x03,
3694,-999,-53,-61,-420,2940,-210,,,,,,,0x03,
3704,-1001,-51,-60,-490,3080,-420,,,,,,,0x03,
3714,-1000,-52,-57,-280,3150,-420,,,,,,,0x03,
3723,-1000,-51,-55,0,3290,-280,,,,,,,0x03,
3733,-1001,-52,-57,140,3430,-210,,,,,,,0x03,
3743,-999,-54,-60,420,3640,-420,,,,,,,0x03,
3752,-999,-57,-62,420,3710,-630,,,,,,,0x03,
3762,-1002,-61,-64,210,3640,-770,,,,,,,0x03,
3772,-1003,-56,-64,70,3500,-420,,,,,,,0x03,
3781,-1001,-54,-66,280,3150,210,,,,,,,0x03,
3791,-998,-50,-65,630,2730,350,,,,,,,0x03,
3801,-1000,-50,-66,840,2730,-70,,,,,,,0x03,
3810,-1000,-53,-67,1120,2590,-350,,,,,,,0x03,
3820,-1001,-57,-67,1330,2450,-350,,,,,,,0x03,
3830,-1004,-59,-68,1190,2380,0,,,,,,,0x03,
3839,-1000,-57,-68,1050,1960,700,,,,,,,0x03,
3849,-999,-55,-68,980,1400,1260,,,,,,,0x03,
3859,-998,-56,-71,700,1120,1050,,,,,,,0x03,
3868,-1000,-54,-70,140,1120,490,,,,,,,0x03,
3878,-1000,-49,-68,0,1330,490,,,,,,,0x03,
3888,-1000,-48,-69,210,1540,490,,,,,,,0x03,
3897,-1002,-51,-70,350,1330,560,,,,,,,0x03,
3907,-1000,-53,-71,560,1050,910,,,,,,,0x03,
3917,-1000,-54,-73,560,840,1190,,,,,,,0x03,
3926,-998,-52,-72,490,700,1050,,,,,,,0x03,
3936,-1001,-50,-68,630,770,840,,,,,,,0x03,
3946,-1001,-48,-67,630,910,840,,,,,,,0x03,
3955,-1002,-49,-66,910,1330,700,,,,,,,0x03,
3965,-1001,-51,-67,980,1680,840,,,,,,,0x03,
3975,-999,-50,-66,1050,2030,770,,,,,,,0x03,
3984,-1000,-50,-67,1190,2450,770,,,,,,,0x03,
3994,-999,-52,-68,1190,3010,630,,,,,,,0x03,
4004,-997,-54,-75,980,3570,140,,,,,,,0x03,
4013,-994,-55,-79,350,3360,-420,,,,,,,0x03,
4023,-1000,-51,-82,350,2800,-490,,,,,,,0x03,
4033,-1001,-49,-83,490,1680,0,,,,,,,0x03,
4042,-998,-49,-84,700,840,210,,,,,,,0x03,
4052,-998,-51,-83,630,350,70,,,,,,,0x03,
4062,-1000,-47,-80,350,280,280,,,,,,,0x03,
4072,-997,-39,-73,280,770,0,,,,,,,0x03,
4081,-993,-44,-73,490,1960,-840,,,,,,,0x03,
4091,-1002,-46,-78,70,2590,-1260,,,,,,,0x03,
4101,-998,-47,-77,-210,3150,-1610,,,,,,,0x03,
4110,-1000,-46,-81,-280,3220,-1750,,,,,,,0x03,
4120,-999,-46,-77,140,2730,-2170,,,,,,,0x03,
4130,-1003,-52,-85,280,2170,-2310,,,,,,,0x03,
4139,-1001,-55,-84,490,1190,-2170,,,,,,,0x03,
4149,-1000,-56,-85,560,700,-1890,,,,,,,0x03,
4159,-999,-55,-82,490,70,-1610,,,,,,,0x03,
4168,-1001,-55,-85,700,-210,-1400,,,,,,,0x03,
4178,-999,-56,-78,700,-700,-1400,,,,,,,0x03,
4188,-1002,-56,-79,700,-420,-1050,,,,,,,0x03,
4197,-999,-55,-78,630,-350,-560,,,,,,,0x03,
4207,-999,-54,-77,560,-70,-350,,,,,,,0x03,
4217,-1000,-53,-79,490,140,-420,,,,,,,0x03,
4226,-999,-54,-81,420,70,-490,,,,,,,0x03,
4236,-999,-52,-80,280,-70,-490,,,,,,,0x03,
4246,-999,-50,-81,210,-210,-560,,,,,,,0x03,
4255,-998,-48,-81,420,-350,-700,,,,,,,0x03,
4265,-1000,-51,-80,630,-560,-840,,,,,,,0x03,
4275,-999,-54,-82,630,-630,-770,,,,,,,0x03,
4284,-1000,-54,-81,490,-560,-630,,,,,,,0x03,
4294,-1001,-57,-81,350,-490,-630,,,,,,,0x03,
4304,-1000,-58,-81,350,-490,-420,,,,,,,0x03,
4313,-1001,-60,-83,210,-770,140,,,,,,,0x03,
4323,-998,-58,-81,-140,-980,560,,,,,,,0x03,
4333,-1000,-52,-78,-350,-770,700,,,,,,,0x03,
4342,-999,-51,-78,-280,-630,700,,,,,,,0x03,
4352,-998,-50,-80,-140,-490,490,,,,,,,0x03,
4362,-997,-49,-81,-350,-420,70,,,,,,,0x03,
4371,-1000,-47,-84,-280,-560,-210,,,,,,,0x03,
4381,-997,-48,-85,70,-700,-280,,,,,,,0x03,
4391,-997,-50,-85,280,-840,-420,,,,,,,0x03,
4400,-998,-54,-88,350,-1120,-490,,,,,,,0x03,
4410,-1000,-58,-90,0,-1610,-420,,,,,,,0x03,
4420,-999,-58,-94,-560,-2450,-70,,,,,,,0x03,
4429,-998,-55,-92,-1260,-3220,280,,,,,,,0x03,
4439,-998,-47,-85,-1750,-3780,420,,,,,,,0x03,
4449,-997,-42,-84,-1190,-3990,210,,,,,,,0x03,
4458,-996,-44,-80,-630,-4200,-70,,,,,,,0x03,
4468,-996,-49,-82,-210,-4270,-630,,,,,,,0x03,
4478,-997,-55,-84,-350,-4760,-1190,,,,,,,0x03,
4487,-999,-53,-82,-840,-5530,-1540,,,,,,,0x03,
4497,-997,-42,-77,-1050,-6440,-1820,,,,,,,0x03,
4507,-997,-38,-71,-700,-6650,-2520,,,,,,,0x03,
4516,-1000,-39,-65,-140,-6580,-3500,,,,,,,0x03,
4526,-1000,-45,-63,350,-6230,-4550,,,,,,,0x03,
4536,-1001,-48,-60,700,-5810,-4900,,,,,,,0x03,
4545,-1002,-53,-58,1120,-5180,-5250,,,,,,,0x03,
4555,-1003,-63,-57,1050,-4130,-5110,,,,,,,0x03,
4565,-1003,-67,-58,910,-2660,-4270,,,,,,,0x03,
4574,-1000,-69,-61,630,-1330,-3500,,,,,,,0x03,
4584,-1002,-69,-60,560,-560,-3150,,,,,,,0x03,
4594,-1004,-72,-63,910,-420,-2450,,,,,,,0x03,
4603,-1002,-74,-67,1120,-630,-1190,,,,,,,0x03,
4613,-998,-69,-68,1050,-630,-140,,,,,,,0x03,
4623,-1000,-63,-68,840,-700,70,,,,,,,0x03,
4632,-1004,-58,-70,980,-770,140,,,,,,,0x03,
4642,-1000,-55,-72,1260,-1050,490,,,,,,,0x03,
4652,-999,-53,-74,1190,-1330,490,,,,,,,0x03,
4661,-998,-51,-74,910,-1050,0,,,,,,,0x03,
4671,-997,-49,-72,770,-630,-560,,,,,,,0x03,
4681,-998,-49,-72,770,-560,-560,,,,,,,0x03,
4690,-999,-53,-75,700,-560,-700,,,,,,,0x03,
4700,-999,-61,-81,280,-560,-1050,,,,,,,0x03,
4710,-998,-66,-83,-210,-980,-910,,,,,,,0x03,
4719,-1001,-64,-83,-770,-1540,-420,,,,,,,0x03,
4729,-1001,-59,-77,-910,-2240,140,,,,,,,0x03,
4739,-999,-57,-72,-630,-2870,490,,,,,,,0x03,
4748,-999,-56,-67,-560,-3150,630,,,,,,,0x03,
4758,-1001,-55,-63,-490,-2870,490,,,,,,,0x03,
4768,-1001,-56,-59,-280,-2590,420,,,,,,,0x03,
4777,-1000,-56,-60,-70,-2590,350,,,,,,,0x03,
4787,-1000,-54,-60,140,-2380,140,,,,,,,0x03,
4797,-998,-53,-58,490,-2100,-140,,,,,,,0x03,
4806,-999,-58,-60,840,-1540,-630,,,,,,,0x03,
4816,-1000,-61,-61,980,-840,-840,,,,,,,0x03,
4826,-999,-62,-63,840,-630,-630,,,,,,,0x03,
4836,-1000,-61,-64,560,-490,-490,,,,,,,0x03,
4845,-1000,-57,-65,350,-490,-420,,,,,,,0x03,
4855,-1000,-56,-65,420,-420,-490,,,,,,,0x03,
4865,-1000,-58,-67,560,-350,-350,,,,,,,0x03,
4874,-999,-59,-68,770,-420,70,,,,,,,0x03,
4884,-1000,-58,-70,630,-490,350,,,,,,,0x03,
4894,-999,-56,-68,420,-630,420,,,,,,,0x03,
4903,-999,-56,-67,420,-490,210,,,,,,,0x03,
4913,-999,-54,-68,280,-490,280,,,,,,,0x03,
4923,-1000,-54,-68,210,-490,140,,,,,,,0x03,
4932,-1000,-55,-69,70,-490,70,,,,,,,0x03,
4942,-999,-56,-69,-140,-770,210,,,,,,,0x03,
4952,-1000,-55,-67,-280,-770,70,,,,,,,0x03,
4961,-999,-55,-67,-280,-840,140,,,,,,,0x03,
4971,-998,-55,-67,-70,-770,210,,,,,,,0x03,
4981,-999,-55,-68,0,-770,280,,,,,,,0x03,
4990,-999,-53,-66,140,-630,0,,,,,,,0x03,
5000,-1001,-54,-69,280,-630,-280,,,,,,,0x03,
5010,-1001,-54,-68,280,-770,-350,,,,,,,0x03,
5019,-1002,-54,-69,210,-770,-420,,,,,,,0x03,
5029,-998,-54,-67,280,-840,-350,,,,,,,0x03,
5039,-998,-55,-68,560,-770,-560,,,,,,,0x03,
5048,-1002,-58,-67,770,-910,-560,,,,,,,0x03,
5058,-1002,-57,-65,840,-1050,-140,,,,,,,0x03,
5068,-999,-58,-63,1120,-1050,70,,,,,,,0x03,
5077,-999,-57,-61,1260,-910,0,,,,,,,0x03,
5087,-1001,-59,-61,1400,-630,0,,,,,,,0x03,
5097,-1003,-61,-60,1190,-420,210,,,,,,,0x03,
5106,-1001,-61,-62,840,-210,420,,,,,,,0x03,
5116,-1000,-58,-59,770,-70,630,,,,,,,0x03,
5126,-999,-59,-60,700,140,630,,,,,,,0x03,
5135,-1000,-57,-63,560,210,350,,,,,,,0x03,
5145,-1001,-55,-64,210,490,0,,,,,,,0x03,
5155,-999,-53,-67,70,560,70,,,,,,,0x03,
5164,-998,-51,-69,0,560,-70,,,,,,,0x03,
5174,-1000,-51,-70,-70,420,-280,,,,,,,0x03,
5184,-1000,-50,-70,-140,420,-210,,,,,,,0x03,
5193,-999,-51,-69,-140,420,-350,,,,,,,0x03,
5203,-1001,-53,-69,-140,630,-560,,,,,,,0x03,
5213,-1000,-55,-71,-140,770,-560,,,,,,,0x03,
5222,-998,-55,-73,-350,700,-350,,,,,,,0x03,
5232,-999,-54,-74,-420,630,-280,,,,,,,0x03,
5242,-1000,-52,-73,-420,280,-140,,,,,,,0x03,
5251,-999,-53,-76,-140,-70,-140,,,,,,,0x03,
5261,-1000,-55,-75,0,-420,-140,,,,,,,0x03,
5271,-1000,-56,-75,0,-840,0,,,,,,,0x03,
5280,-1000,-56,-72,140,-1260,210,,,,,,,0x03,
5290,-999,-53,-70,280,-1610,350,,,,,,,0x03,
5300,-999,-53,-68,420,-1470,350,,,,,,,0x03,
5309,-999,-54,-66,560,-1330,210,,,,,,,0x03,
5319,-1001,-53,-67,560,-1260,70,,,,,,,0x03,
5329,-1000,-55,-66,420,-1050,-140,,,,,,,0x03,
5338,-1000,-53,-64,280,-840,-490,,,,,,,0x03,
5348,-999,-52,-62,280,-700,-770,,,,,,,0x03,
5358,-1001,-53,-62,280,-420,-980,,,,,,,0x03,
5367,-999,-53,-62,280,-70,-1260,,,,,,,0x03,
5377,-999,-54,-62,420,210,-1540,,,,,,,0x03,
5387,-1000,-55,-64,420,350,-1540,,,,,,,0x03,
5396,-1001,-58,-69,280,490,-1610,,,,,,,0x03,
5406,-999,-58,-71,70,490,-1540,,,,,,,0x03,
5416,-999,-58,-73,-70,280,-1260,,,,,,,0x03,
5425,-1002,-57,-73,-210,-70,-840,,,,,,,0x03,
5435,-1003,-55,-67,-490,-280,-700,,,,,,,0x03,
5445,-999,-55,-67,-350,-70,-770,,,,,,,0x03,
5454,-998,-53,-66,-420,70,-840,,,,,,,0x03,
5464,-1000,-55,-66,-560,280,-1260,,,,,,,0x03,
5474,-1000,-53,-66,-630,630,-1750,,,,,,,0x03,
5483,-1000,-50,-70,-630,700,-1820,,,,,,,0x03,
5493,-1000,-50,-72,-420,630,-1890,,,,,,,0x03,
5503,-1000,-54,-74,-140,350,-1890,,,,,,,0x03,
5512,-999,-56,-76,140,-70,-1750,,,,,,,0x03,
5522,-999,-56,-74,-70,-280,-1610,,,,,,,0x03,
5532,-1001,-54,-75,-350,-210,-1750,,,,,,,0x03,
5541,-997,-55,-76,-420,-140,-1610,,,,,,,0x03,
5551,-997,-55,-75,-420,-210,-1470,,,,,,,0x03,
5561,-998,-57,-78,-280,-210,-1680,,,,,,,0x03,
5571,-1000,-60,-76,-210,-140,-2030,,,,,,,0x03,
5580,-1001,-64,-75,70,-420,-1680,,,,,,,0x03,
5590,-1000,-65,-73,420,-1050,-840,,,,,,,0x03,
5600,-1000,-65,-72,350,-1610,-350,,,,,,,0x03,
5609,-999,-59,-67,280,-1680,-280,,,,,,,0x03,
5619,-999,-57,-63,280,-1470,-420,,,,,,,0x03,
5629,-1001,-58,-66,350,-1050,-840,,,,,,,0x03,
5638,-999,-59,-66,280,-630,-980,,,,,,,0x03,
5648,-999,-59,-69,210,-560,-910,,,,,,,0x03,
5658,-999,-59,-70,350,-420,-910,,,,,,,0x03,
5667,-1001,-61,-70,350,-420,-840,,,,,,,0x03,
5677,-1001,-60,-70,350,-350,-630,,,,,,,0x03,
5687,-999,-58,-71,350,-140,-420,,,,,,,0x03,
5696,-999,-58,-72,210,-140,-420,,,,,,,0x03,
5706,-1002,-61,-72,210,0,-560,,,,,,,0x03,
5716,-1000,-61,-75,0,-70,-350,,,,,,,0x03,
5725,-997,-60,-75,-210,-140,0,,,,,,,0x03,
5735,-999,-58,-74,-350,-210,-140,,,,,,,0x03,
5745,-1001,-58,-74,-630,-350,-280,,,,,,,0x03,
5754,-1000,-57,-74,-630,-560,-140,,,,,,,0x03,
5764,-999,-57,-71,-560,-770,140,,,,,,,0x03,
5774,-998,-57,-69,-280,-770,0,,,,,,,0x03,
5783,-1000,-57,-69,-140,-700,-70,,,,,,,0x03,
5793,-998,-60,-69,0,-630,0,,,,,,,0x03,
5803,-998,-60,-72,0,-490,-140,,,,,,,0x03,
5812,-999,-59,-74,-210,-350,-280,,,,,,,0x03,
5822,-1000,-56,-74,-210,-280,-210,,,,,,,0x03,
5832,-999,-55,-71,-140,-210,-210,,,,,,,0x03,
5841,-1001,-55,-70,70,-70,-350,,,,,,,0x03,
5851,-1000,-57,-69,350,0,-420,,,,,,,0x03,
5861,-998,-58,-67,490,140,-490,,,,,,,0x03,
5870,-999,-58,-69,700,210,-420,,,,,,,0x03,
5880,-1000,-60,-68,770,210,-350,,,,,,,0x03,
5890,-999,-62,-69,770,350,-350,,,,,,,0x03,
5899,-997,-63,-72,630,700,-280,,,,,,,0x03,
5909,-1000,-63,-73,210,980,-560,,,,,,,0x03,
5919,-1002,-60,-73,140,980,-490,,,,,,,0x03,
5928,-999,-61,-75,350,700,140,,,,,,,0x03,
5938,-999,-58,-75,560,350,560,,,,,,,0x03,
5948,-1000,-56,-74,700,280,630,,,,,,,0x03,
5957,-997,-55,-80,700,140,700,,,,,,,0x03,
5967,-998,-54,-77,910,210,420,,,,,,,0x03,
5977,-997,-56,-86,770,350,-210,,,,,,,0x03,
5986,-997,-56,-88,840,-140,-350,,,,,,,0x03,
5996,-999,-56,-88,840,-1050,-70,,,,,,,0x03,
6006,-998,-54,-90,770,-1960,280,,,,,,,0x03,
6015,-995,-50,-91,700,-2660,280,,,,,,,0x03,
6025,-998,-48,-85,770,-3150,70,,,,,,,0x03,
6035,-1001,-51,-82,1330,-3570,0,,,,,,,0x03,
6044,-1000,-59,-80,1470,-4270,140,,,,,,,0x03,
6054,-1000,-59,-74,1470,-4760,350,,,,,,,0x03,
6064,-1001,-58,-68,1610,-5040,630,,,,,,,0x03,
6073,-1002,-57,-59,1680,-5040,700,,,,,,,0x03,
6083,-1002,-61,-55,1540,-4270,210,,,,,,,0x03,
6093,-1000,-63,-51,1190,-3360,0,,,,,,,0x03,
6102,-1000,-61,-49,840,-2520,-140,,,,,,,0x03,
6112,-1000,-59,-47,700,-1750,-420,,,,,,,0x03,
6122,-1000,-62,-51,770,-1050,-630,,,,,,,0x03,
6131,-1001,-65,-54,910,-560,-560,,,,,,,0x03,
6141,-1002,-66,-58,560,-70,-350,,,,,,,0x03,
6151,-1000,-62,-62,210,420,-210,,,,,,,0x03,
6160,-1002,-59,-65,0,770,-210,,,,,,,0x03,
6170,-1001,-60,-68,70,770,140,,,,,,,0x03,
6180,-1000,-58,-70,0,630,490,,,,,,,0x03,
6189,-999,-53,-70,-140,560,630,,,,,,,0x03,
6199,-1000,-49,-71,-210,770,560,,,,,,,0x03,
6209,-999,-48,-73,-210,980,280,,,,,,,0x03,
6218,-999,-48,-75,-490,1120,-70,,,,,,,0x03,
6228,-1001,-50,-77,-630,1190,-490,,,,,,,0x03,
6238,-1001,-52,-76,-630,910,-560,,,,,,,0x03,
6247,-997,-54,-77,-350,560,-350,,,,,,,0x03,
6257,-996,-54,-76,-210,210,-350,,,,,,,0x03,
6267,-999,-55,-75,0,-70,-560,,,,,,,0x03,
6276,-1001,-58,-71,280,-280,-630,,,,,,,0x03,
6286,-1000,-60,-73,420,-210,-490,,,,,,,0x03,
6296,-998,-60,-73,560,-210,-210,,,,,,,0x03,
6306,-1000,-59,-73,420,-280,-70,,,,,,,0x03,
6315,-1001,-61,-74,420,-350,-70,,,,,,,0x03,
6325,-999,-58,-74,490,-630,280,,,,,,,0x03,
6335,-999,-55,-74,560,-840,560,,,,,,,0x03,
6344,-998,-55,-73,630,-770,280,,,,,,,0x03,
6354,-1000,-57,-74,560,-770,70,,,,,,,0x03,
6364,-1001,-55,-73,630,-980,420,,,,,,,0x03,
6373,-998,-50,-70,560,-1190,770,,,,,,,0x03,
6383,-998,-49,-68,560,-1050,420,,,,,,,0x03,
6393,-1000,-50,-67,630,-700,0,,,,,,,0x03,
6402,-1000,-52,-66,560,-280,-70,,,,,,,0x03,
6412,-999,-51,-67,490,140,-140,,,,,,,0x03,
6422,-999,-49,-68,280,630,-560,,,,,,,0x03,
6431,-999,-50,-69,70,1050,-1050,,,,,,,0x03,
6441,-1000,-53,-72,70,1400,-1330,,,,,,,0x03,
6451,-1000,-55,-75,-140,1330,-1190,,,,,,,0x03,
6460,-1000,-57,-74,-70,1120,-840,,,,,,,0x03,
6470,-1001,-58,-75,-70,910,-350,,,,,,,0x03,
6480,-998,-60,-73,70,840,0,,,,,,,0x03,
6489,-1000,-61,-74,70,910,140,,,,,,,0x03,
6499,-999,-62,-72,-210,700,420,,,,,,,0x03,
6509,-1000,-61,-72,-280,560,700,,,,,,,0x03,
6518,-999,-59,-71,-420,350,1050,,,,,,,0x03,
6528,-998,-57,-72,-420,280,1190,,,,,,,0x03,
6538,-1000,-54,-73,-490,350,1120,,,,,,,0x03,
6547,-999,-51,-73,-700,490,980,,,,,,,0x03,
6557,-998,-49,-75,-630,560,560,,,,,,,0x03,
6567,-1000,-50,-78,-490,630,280,,,,,,,0x03,
6576,-1000,-51,-80,-420,490,140,,,,,,,0x03,
6586,-998,-49,-80,-420,210,210,,,,,,,0x03,
6596,-998,-49,-80,-420,0,-210,,,,,,,0x03,
6605,-999,-49,-80,-210,0,-630,,,,,,,0x03,
6615,-1000,-53,-80,-140,-210,-560,,,,,,,0x03,
6625,-999,-53,-81,-70,-490,-350,,,,,,,0x03,
6634,-997,-53,-81,-140,-560,-350,,,,,,,0x03,
6644,-998,-56,-80,-70,-630,-630,,,,,,,0x03,
6654,-1001,-56,-78,0,-770,-560,,,,,,,0x03,
6663,-1000,-54,-74,-140,-910,-210,,,,,,,0x03,
6673,-999,-49,-71,0,-700,0,,,,,,,0x03,
6683,-998,-49,-70,140,-350,-280,,,,,,,0x03,
6692,-1000,-51,-68,140,0,-770,,,,,,,0x03,
6702,-1001,-52,-70,70,560,-980,,,,,,,0x03,
6712,-998,-51,-70,-280,980,-1260,,,,,,,0x03,
6721,-998,-51,-73,-560,1610,-1750,,,,,,,0x03,
6731,-1000,-52,-75,-770,2030,-2310,,,,,,,0x03,
6741,-1000,-54,-77,-910,2310,-2450,,,,,,,0x03,
6750,-998,-53,-76,-980,2380,-2450,,,,,,,0x03,
6760,-997,-54,-77,-1120,2310,-2660,,,,,,,0x03,
6770,-1003,-56,-73,-980,2590,-2870,,,,,,,0x03,
6779,-1006,-60,-77,-700,2730,-2240,,,,,,,0x03,
6789,-997,-64,-79,-420,2380,-1260,,,,,,,0x03,
6799,-998,-66,-85,-350,2100,-1050,,,,,,,0x03,
6808,-995,-66,-85,-700,1050,-210,,,,,,,0x03,
6818,-1000,-58,-83,-700,0,700,,,,,,,0x03,
6828,-997,-55,-82,-560,630,210,,,,,,,0x03,
6837,-993,-50,-80,-630,420,-420,,,,,,,0x03,
6847,-1000,-49,-83,-210,560,-560,,,,,,,0x03,
6857,-1000,-53,-85,0,560,-630,,,,,,,0x03,
6866,-997,-54,-88,-70,420,-1050,,,,,,,0x03,
6876,-999,-56,-89,-140,140,-1190,,,,,,,0x03,
6886,-998,-57,-90,-70,-70,-1050,,,,,,,0x03,
6895,-997,-58,-94,70,-560,-910,,,,,,,0x03,
6905,-998,-57,-93,350,-1330,-630,,,,,,,0x03,
6915,-999,-59,-91,700,-2100,-140,,,,,,,0x03,
6924,-999,-58,-89,840,-2730,280,,,,,,,0x03,
6934,-997,-58,-87,910,-2940,490,,,,,,,0x03,
6944,-996,-54,-84,910,-3010,490,,,,,,,0x03,
6953,-998,-53,-81,910,-3080,210,,,,,,,0x03,
6963,-1001,-50,-77,910,-3010,-210,,,,,,,0x03,
6973,-1001,-47,-74,840,-2800,-420,,,,,,,0x03,
6982,-1000,-45,-72,980,-2380,-980,,,,,,,0x03,
6992,-1000,-48,-71,1050,-1890,-1610,,,,,,,0x03,
7002,-1000,-52,-73,1120,-1400,-2030,,,,,,,0x03,
7011,-996,-58,-74,910,-840,-2310,,,,,,,0x03,
7021,-998,-62,-76,630,-350,-2380,,,,,,,0x03,
7031,-1004,-65,-76,630,140,-2170,,,,,,,0x03,
7041,-1001,-67,-80,420,350,-1470,,,,,,,0x03,
7050,-996,-67,-82,210,280,-770,,,,,,,0x03,
7060,-1001,-65,-84,0,70,-280,,,,,,,0x03,
7070,-1005,-66,-81,-140,-280,420,,,,,,,0x03,
7079,-1001,-65,-81,-210,-770,1540,,,,,,,0x03,
7089,-998,-60,-82,-490,-1190,2380,,,,,,,0x03,
7099,-1000,-55,-80,-630,-1260,2240,,,,,,,0x03,
7108,-999,-50,-79,-630,-1120,1960,,,,,,,0x03,
7118,-997,-47,-80,-630,-1120,1750,,,,,,,0x03,
7128,-998,-43,-84,-210,-1260,1260,,,,,,,0x03,
7137,-1002,-38,-94,70,-1400,770,,,,,,,0x03,
7147,-999,-32,-107,420,-1820,490,,,,,,,0x03,
7157,-996,-28,-119,980,-2800,70,,,,,,,0x03,
7166,-996,-30,-122,1680,-4270,-700,,,,,,,0x03,
7176,-1000,-31,-123,2520,-6160,-1190,,,,,,,0x03,
7186,-999,-28,-117,3500,-8330,-1470,,,,,,,0x03,
7195,-997,-22,-106,5040,-10990,-1960,,,,,,,0x03,
7205,-1010,-28,-102,6370,-12460,-2590,,,,,,,0x03,
7215,-1017,-46,-94,7700,-12600,-2730,,,,,,,0x03,
7224,-1018,-66,-93,8960,-11130,-1890,,,,,,,0x03,
7234,-1023,-82,-89,10360,-8750,1050,,,,,,,0x03,
7244,-1007,-92,-86,11550,-8470,4550,,,,,,,0x03,
7253,-1002,-86,-78,13300,-9450,7140,,,,,,,0x03,
7263,-996,-77,-45,16100,-10710,8890,,,,,,,0x03,
7273,-1018,-58,-33,18200,-10920,9100,,,,,,,0x03,
7282,-1023,-54,-5,18690,-11410,11760,,,,,,,0x03,
7292,-1020,-56,11,18270,-10780,13580,,,,,,,0x03,
7302,-1047,-47,11,16800,-9590,17010,,,,,,,0x03,
7311,-1050,-33,20,14770,-9240,19950,,,,,,,0x03,
7321,-1034,-17,14,13230,-7630,21420,,,,,,,0x03,
7331,-1000,-9,16,12670,-5460,18480,,,,,,,0x03,
7340,-979,-9,8,11970,-1960,12460,,,,,,,0x03,
7350,-991,-4,-1,10990,980,6160,,,,,,,0x03,
7360,-996,-2,-5,10150,2240,70,,,,,,,0x03,
7369,-994,-10,9,9240,1890,-3640,,,,,,,0x03,
7379,-1016,-19,0,8890,2660,-3570,,,,,,,0x03,
7389,-1030,-34,-3,8820,2660,-210,,,,,,,0x03,
7398,-1049,-20,-23,8680,2380,4620,,,,,,,0x03,
7408,-1035,-25,-23,9730,630,6020,,,,,,,0x03,
7418,-1025,-29,-19,10500,-1050,7280,,,,,,,0x03,
7427,-1003,-11,-25,11130,-1750,10500,,,,,,,0x03,
7437,-999,-6,-10,12110,-3920,10920,,,,,,,0x03,
7447,-1011,-13,-23,11690,-4200,8400,,,,,,,0x03,
7456,-1002,-15,-20,11410,-3220,6230,,,,,,,0x03,
7466,-1009,-20,-24,10360,-1890,3920,,,,,,,0x03,
7476,-1014,-25,-28,8820,0,1890,,,,,,,0x03,
7485,-1028,-27,-47,8330,3220,140,,,,,,,0x03,
7495,-1016,-44,-46,7980,3640,-2380,,,,,,,0x03,
7505,-1016,-50,-51,7140,4270,-3220,,,,,,,0x03,
7514,-1012,-57,-61,6160,4130,-3080,,,,,,,0x03,
7524,-1006,-57,-64,5740,3220,-2380,,,,,,,0x03,
7534,-1012,-60,-62,5390,2100,-2030,,,,,,,0x03,
7543,-1023,-60,-63,4900,770,-1470,,,,,,,0x03,
7553,-1023,-61,-61,4340,560,-490,,,,,,,0x03,
7563,-1024,-59,-64,3570,770,350,,,,,,,0x03,
7572,-1019,-46,-58,2940,630,560,,,,,,,0x03,
7582,-1009,-44,-61,2660,1820,-560,,,,,,,0x03,
7592,-1003,-40,-59,2730,2450,-1190,,,,,,,0x03,
7601,-994,-49,-67,2800,2870,-2030,,,,,,,0x03,
7611,-1000,-46,-70,2660,2100,-1540,,,,,,,0x03,
7621,-991,-45,-69,2590,1260,-1400,,,,,,,0x03,
7630,-988,-43,-70,2240,630,-1470,,,,,,,0x03,
7640,-993,-38,-64,1610,-560,-1400,,,,,,,0x03,
7650,-992,-39,-63,1050,-280,-1050,,,,,,,0x03,
7659,-983,-33,-64,350,-490,140,,,,,,,0x03,
7669,-974,-28,-64,-140,-910,490,,,,,,,0x03,
7679,-966,-24,-68,-560,-2170,140,,,,,,,0x03,
7688,-966,-17,-68,-1190,-4270,-560,,,,,,,0x03,
7698,-972,-16,-67,-1120,-5110,-840,,,,,,,0x03,
7708,-982,-18,-68,-980,-5180,-1050,,,,,,,0x03,
7717,-980,-16,-62,-1260,-5040,-1400,,,,,,,0x03,
7727,-983,-15,-70,-1190,-3990,-2660,,,,,,,0x03,
7737,-986,-17,-67,-1050,-3570,-3640,,,,,,,0x03,
7746,-989,-21,-67,-1120,-3010,-4270,,,,,,,0x03,
7756,-993,-24,-68,-910,-3220,-3850,,,,,,,0x03,
7766,-987,-28,-66,-700,-4270,-3010,,,,,,,0x03,
7776,-993,-27,-63,-560,-5740,-2310,,,,,,,0x03,
7785,-997,-26,-61,-210,-6300,-2240,,,,,,,0x03,
7795,-1004,-25,-57,70,-5600,-2450,,,,,,,0x03,
7805,-1007,-29,-56,70,-4270,-2380,,,,,,,0x03,
7814,-1004,-27,-57,210,-2800,-1890,,,,,,,0x03,
7824,-993,-26,-55,-70,-1820,-1960,,,,,,,0x03,
7834,-984,-24,-60,-350,-1750,-2800,,,,,,,0x03,
7843,-987,-24,-61,-420,-2030,-3850,,,,,,,0x03,
7853,-990,-23,-58,-210,-2170,-4340,,,,,,,0x03,
7863,-995,-23,-58,280,-1750,-4060,,,,,,,0x03,
7872,-993,-27,-57,560,-980,-3220,,,,,,,0x03,
7882,-992,-27,-56,700,0,-2660,,,,,,,0x03,
7892,-990,-26,-56,490,980,-2170,,,,,,,0x03,
7901,-984,-23,-56,560,1540,-1820,,,,,,,0x03,
7911,-978,-22,-57,770,1540,-1750,,,,,,,0x03,
7921,-975,-25,-58,770,700,-1960,,,,,,,0x03,
7930,-980,-26,-60,980,-560,-2100,,,,,,,0x03,
7940,-984,-26,-63,1330,-1680,-2030,,,,,,,0x03,
7950,-983,-34,-60,1890,-2520,-1750,,,,,,,0x03,
7959,-996,-41,-66,2380,-2660,-1050,,,,,,,0x03,
7969,-1004,-43,-68,2170,-2730,-70,,,,,,,0x03,
7979,-1005,-43,-70,1750,-2030,560,,,,,,,0x03,
7988,-999,-45,-75,1120,-1050,490,,,,,,,0x03,
7998,-1002,-46,-74,490,-420,-140,,,,,,,0x03,
8008,-1009,-48,-72,-280,-280,-630,,,,,,,0x03,
8017,-1009,-47,-67,-770,-350,-420,,,,,,,0x03,
8027,-1008,-40,-64,-1190,-630,-210,,,,,,,0x03,
8037,-1009,-33,-60,-1470,-1120,-70,,,,,,,0x03,
8046,-1012,-30,-59,-1330,-980,210,,,,,,,0x03,
8056,-1010,-29,-58,-1120,-560,560,,,,,,,0x03,
8066,-1003,-26,-57,-980,-420,1120,,,,,,,0x03,
8075,-996,-24,-54,-840,-630,1400,,,,,,,0x03,
8085,-994,-24,-53,-770,-910,1050,,,,,,,0x03,
8095,-994,-24,-51,-840,-1120,420,,,,,,,0x03,
8104,-1000,-22,-50,-910,-840,0,,,,,,,0x03,
8114,-996,-22,-53,-840,-140,-210,,,,,,,0x03,
8124,-992,-28,-55,-770,350,-420,,,,,,,0x03,
8133,-993,-31,-56,-420,280,-560,,,,,,,0x03,
8143,-1000,-35,-55,140,-420,-210,,,,,,,0x03,
8153,-1000,-37,-54,560,-1400,770,,,,,,,0x03,
8162,-1000,-34,-56,1050,-1890,1820,,,,,,,0x03,
8172,-996,-32,-55,1190,-2170,2660,,,,,,,0x03,
8182,-996,-31,-54,1470,-2310,2870,,,,,,,0x03,
8191,-993,-32,-55,1960,-2450,3010,,,,,,,0x03,
8201,-985,-34,-58,2170,-2730,3360,,,,,,,0x03,
8211,-983,-36,-55,2100,-3010,3010,,,,,,,0x03,
8220,-991,-36,-53,1610,-2730,1960,,,,,,,0x03,
8230,-996,-36,-49,770,-2030,980,,,,,,,0x03,
8240,-999,-36,-45,70,-1120,70,,,,,,,0x03,
8249,-1001,-34,-46,-490,-420,-350,,,,,,,0x03,
8259,-1001,-29,-45,-630,-280,-420,,,,,,,0x03,
8269,-1002,-23,-43,-490,-490,-420,,,,,,,0x03,
8278,-1002,-21,-46,-210,-770,-420,,,,,,,0x03,
8288,-1004,-18,-45,350,-770,-350,,,,,,,0x03,
8298,-1006,-14,-44,910,-630,-560,,,,,,,0x03,
8307,-1005,-14,-49,1820,-350,-1050,,,,,,,0x03,
8317,-1003,-19,-55,2380,-70,-1330,,,,,,,0x03,
8327,-997,-26,-62,2660,-140,-1470,,,,,,,0x03,
8336,-1003,-31,-65,2590,-560,-1750,,,,,,,0x03,
8346,-1011,-32,-63,2520,-1050,-1540,,,,,,,0x03,
8356,-1009,-36,-61,2660,-1400,-1120,,,,,,,0x03,
8365,-1011,-37,-57,2520,-1680,-980,,,,,,,0x03,
8375,-1016,-35,-51,2590,-1680,-1050,,,,,,,0x03,
8385,-1022,-38,-49,2660,-1470,-770,,,,,,,0x03,
8394,-1021,-41,-45,2310,-1330,280,,,,,,,0x03,
8404,-1015,-39,-44,1820,-1190,1470,,,,,,,0x03,
8414,-1006,-35,-44,1120,-1120,1960,,,,,,,0x03,
8423,-1000,-30,-39,560,-910,1610,,,,,,,0x03,
8433,-1000,-29,-36,70,-490,770,,,,,,,0x03,
8443,-999,-26,-32,-210,70,70,,,,,,,0x03,
8452,-997,-27,-32,-210,490,-140,,,,,,,0x03,
8462,-995,-27,-35,-70,420,140,,,,,,,0x03,
8472,-992,-26,-37,140,70,420,,,,,,,0x03,
8481,-992,-25,-38,140,-280,630,,,,,,,0x03,
8491,-995,-23,-37,210,-210,700,,,,,,,0x03,
8501,-996,-22,-41,420,0,700,,,,,,,0x03,
8511,-997,-22,-44,560,-140,490,,,,,,,0x03,
8520,-998,-27,-46,840,-490,70,,,,,,,0x03,
8530,-1007,-30,-50,980,-700,210,,,,,,,0x03,
8540,-1008,-28,-54,1050,-350,560,,,,,,,0x03,
8549,-1005,-23,-61,1120,0,490,,,,,,,0x03,
8559,-1007,-19,-67,1260,70,-280,,,,,,,0x03,
8569,-1013,-19,-68,1680,-140,-910,,,,,,,0x03,
8578,-1020,-19,-72,1820,-420,-980,,,,,,,0x03,
8588,-1025,-20,-69,1960,-560,-490,,,,,,,0x03,
8598,-1026,-19,-70,2170,-630,280,,,,,,,0x03,
8607,-1028,-19,-67,2380,-630,700,,,,,,,0x03,
8617,-1032,-24,-66,2590,-280,770,,,,,,,0x03,
8627,-1033,-25,-63,2450,210,980,,,,,,,0x03,
8636,-1029,-25,-60,2380,770,1470,,,,,,,0x03,
8646,-1026,-22,-55,2170,1050,1750,,,,,,,0x03,
8656,-1022,-22,-51,1960,1470,1750,,,,,,,0x03,
8665,-1015,-21,-46,1890,1890,1610,,,,,,,0x03,
8675,-1008,-17,-41,1610,2030,1470,,,,,,,0x03,
8685,-998,-15,-39,1680,2170,1260,,,,,,,0x03,
8694,-992,-13,-38,1680,2100,1260,,,,,,,0x03,
8704,-985,-11,-35,2030,1820,1260,,,,,,,0x03,
8714,-974,-13,-37,2520,1400,1260,,,,,,,0x03,
8723,-969,-14,-36,2870,840,1120,,,,,,,0x03,
8733,-972,-16,-33,3220,490,700,,,,,,,0x03,
8743,-972,-18,-32,3360,630,490,,,,,,,0x03,
8752,-968,-21,-34,3500,980,140,,,,,,,0x03,
8762,-971,-26,-40,3710,1050,-350,,,,,,,0x03,
8772,-969,-30,-43,3710,630,-630,,,,,,,0x03,
8781,-968,-34,-49,3850,-70,-700,,,,,,,0x03,
8791,-968,-36,-50,3780,-910,-910,,,,,,,0x03,
8801,-974,-36,-51,3570,-1330,-1400,,,,,,,0x03,
8810,-982,-42,-50,3430,-1400,-1890,,,,,,,0x03,
8820,-989,-45,-53,3290,-1470,-1820,,,,,,,0x03,
8830,-996,-47,-53,3150,-1680,-1540,,,,,,,0x03,
8839,-1005,-49,-57,2800,-1890,-1260,,,,,,,0x03,
8849,-1006,-47,-59,2310,-1750,-1190,,,,,,,0x03,
8859,-1009,-46,-61,1610,-1400,-1470,,,,,,,0x03,
8868,-1011,-42,-65,980,-1260,-1820,,,,,,,0x03,
8878,-1014,-39,-67,700,-1330,-2170,,,,,,,0x03,
8888,-1017,-36,-64,560,-1750,-2030,,,,,,,0x03,
8897,-1022,-35,-63,630,-2100,-1400,,,,,,,0x03,
8907,-1022,-33,-63,420,-2240,-700,,,,,,,0x03,
8917,-1009,-27,-62,0,-2380,-560,,,,,,,0x03,
8926,-1016,-19,-53,-140,-2520,-1680,,,,,,,0x03,
8936,-1027,-17,-54,-140,-1610,-2170,,,,,,,0x03,
8946,-1011,-18,-52,-210,-910,-1750,,,,,,,0x03,
8955,-1009,-13,-51,-280,-560,-1540,,,,,,,0x03,
8965,-1014,-7,-45,-140,-770,-1610,,,,,,,0x03,
8975,-1016,-6,-38,140,-630,-1540,,,,,,,0x03,
8984,-1013,-3,-33,490,-210,-1330,,,,,,,0x03,
8994,-1010,-3,-28,980,490,-1540,,,,,,,0x03,
9004,-1010,-5,-30,1540,910,-1820,,,,,,,0x03,
9013,-1004,-9,-30,2240,1190,-1890,,,,,,,0x03,
9023,-998,-14,-33,2940,1050,-1330,,,,,,,0x03,
9033,-995,-18,-37,3430,770,-630,,,,,,,0x03,
9042,-988,-20,-40,3570,770,-70,,,,,,,0x03,
9052,-985,-23,-44,3570,770,-140,,,,,,,0x03,
9062,-989,-27,-46,3500,630,-490,,,,,,,0x03,
9071,-989,-31,-48,3290,770,-420,,,,,,,0x03,
9081,-988,-40,-50,3150,560,-70,,,,,,,0x03,
9091,-988,-42,-52,3150,210,280,,,,,,,0x03,
9100,-986,-48,-53,2870,-140,350,,,,,,,0x03,
9110,-987,-53,-55,2520,-420,280,,,,,,,0x03,
9120,-990,-55,-54,1890,-630,210,,,,,,,0x03,
9129,-991,-52,-55,1330,-560,490,,,,,,,0x03,
9139,-987,-49,-57,1050,-770,630,,,,,,,0x03,
9149,-990,-46,-55,910,-1260,560,,,,,,,0x03,
9158,-992,-45,-53,1050,-1750,490,,,,,,,0x03,
9168,-993,-44,-50,1190,-2240,350,,,,,,,0x03,
9178,-994,-44,-50,1260,-2450,-140,,,,,,,0x03,
9187,-1002,-47,-49,1330,-2240,-840,,,,,,,0x03,
9197,-1007,-53,-51,980,-1820,-1050,,,,,,,0x03,
9207,-1003,-56,-55,560,-1540,-840,,,,,,,0x03,
9216,-1005,-52,-52,-70,-1680,-1120,,,,,,,0x03,
9226,-1009,-50,-53,-560,-1610,-1330,,,,,,,0x03,
9236,-1012,-49,-50,-840,-1400,-1190,,,,,,,0x03,
9245,-1010,-44,-49,-1260,-1050,-840,,,,,,,0x03,
9255,-1004,-40,-49,-1470,-630,-770,,,,,,,0x03,
9265,-1003,-37,-49,-1540,-560,-1330,,,,,,,0x03,
9275,-1008,-40,-50,-1470,-490,-1820,,,,,,,0x03,
9284,-1009,-41,-52,-1680,-560,-1470,,,,,,,0x03,
9294,-1008,-37,-53,-1890,-770,-910,,,,,,,0x03,
9304,-1003,-32,-50,-2030,-910,-840,,,,,,,0x03,
9313,-1004,-30,-49,-1960,-910,-1050,,,,,,,0x03,
9323,-1004,-30,-49,-1890,-840,-910,,,,,,,0x03,
9333,-1004,-27,-47,-1890,-770,-630,,,,,,,0x03,
9342,-1001,-21,-46,-1890,-700,-350,,,,,,,0x03,
9352,-997,-18,-47,-1820,-420,-560,,,,,,,0x03,
9362,-996,-16,-49,-1750,-210,-980,,,,,,,0x03,
9371,-999,-18,-52,-1470,-70,-1260,,,,,,,0x03,
9381,-1000,-20,-55,-1470,-70,-770,,,,,,,0x03,
9391,-999,-20,-55,-1330,-420,-280,,,,,,,0x03,
9400,-1002,-24,-55,-980,-700,-350,,,,,,,0x03,
9410,-1007,-28,-56,-770,-840,-350,,,,,,,0x03,
9420,-1006,-31,-56,-630,-840,0,,,,,,,0x03,
9429,-1006,-29,-55,-840,-910,280,,,,,,,0x03,
9439,-1007,-28,-54,-1120,-840,280,,,,,,,0x03,
9449,-1006,-28,-53,-1330,-560,490,,,,,,,0x03,
9458,-999,-26,-52,-1470,-420,770,,,,,,,0x03,
9468,-995,-22,-53,-1330,-350,770,,,,,,,0x03,
9478,-993,-19,-53,-1050,-420,560,,,,,,,0x03,
9487,-994,-18,-53,-700,-560,560,,,,,,,0x03,
9497,-996,-18,-54,-420,-700,770,,,,,,,0x03,
9507,-993,-16,-51,-350,-980,910,,,,,,,0x03,
9516,-995,-12,-48,-140,-1050,630,,,,,,,0x03,
9526,-999,-11,-48,70,-910,70,,,,,,,0x03,
9536,-1001,-14,-50,420,-700,0,,,,,,,0x03,
9545,-998,-17,-52,560,-700,350,,,,,,,0x03,
9555,-997,-16,-51,420,-980,700,,,,,,,0x03,
9565,-999,-14,-48,280,-1120,770,,,,,,,0x03,
9574,-999,-12,-46,140,-910,910,,,,,,,0x03,
9584,-992,-11,-46,210,-770,1050,,,,,,,0x03,
9594,-991,-12,-45,420,-910,980,,,,,,,0x03,
9603,-998,-15,-47,910,-1400,1050,,,,,,,0x03,
9613,-1004,-18,-46,1190,-1960,1890,,,,,,,0x03,
9623,-1002,-16,-44,1190,-2380,2870,,,,,,,0x03,
9632,-1000,-10,-41,1120,-2030,3080,,,,,,,0x03,
9642,-999,-5,-39,1120,-1330,2240,,,,,,,0x03,
9652,-1002,-6,-39,1190,-770,1260,,,,,,,0x03,
9661,-1009,-9,-38,1680,-630,840,,,,,,,0x03,
9671,-1016,-11,-37,2380,-840,1050,,,,,,,0x03,
9681,-1019,-18,-37,3150,-980,1330,,,,,,,0x03,
9690,-1023,-29,-43,3640,-770,1330,,,,,,,0x03,
9700,-1021,-38,-49,3640,-210,1260,,,,,,,0x03,
9710,-1020,-47,-54,3360,560,840,,,,,,,0x03,
9719,-1017,-52,-58,2800,980,560,,,,,,,0x03,
9729,-1018,-54,-63,2310,1330,420,,,,,,,0x03,
9739,-1009,-55,-63,1610,1400,700,,,,,,,0x03,
9748,-1007,-52,-64,1260,1260,910,,,,,,,0x03,
9758,-1005,-50,-63,770,910,980,,,,,,,0x03,
9768,-1002,-50,-63,350,840,910,,,,,,,0x03,
9777,-995,-50,-63,-140,1120,910,,,,,,,0x03,
9787,-988,-48,-62,-700,1120,630,,,,,,,0x03,
9797,-982,-47,-60,-1050,770,140,,,,,,,0x03,
9806,-981,-47,-59,-1260,70,-140,,,,,,,0x03,
9816,-987,-44,-54,-1540,-840,-70,,,,,,,0x03,
9826,-989,-40,-48,-1820,-1190,140,,,,,,,0x03,
9835,-986,-31,-45,-2170,-1120,70,,,,,,,0x03,
9845,-982,-22,-43,-2310,-910,-350,,,,,,,0x03,
9855,-978,-16,-39,-2310,-770,-1190,,,,,,,0x03,
9864,-977,-13,-39,-1960,-980,-1960,,,,,,,0x03,
9874,-981,-15,-41,-1540,-1540,-2380,,,,,,,0x03,
9884,-989,-13,-46,-1260,-2380,-2310,,,,,,,0x03,
9893,-999,-9,-51,-1190,-2730,-1960,,,,,,,0x03,
9903,-1003,-1,-52,-1400,-2800,-1540,,,,,,,0x03,
9913,-1005,3,-53,-1680,-2870,-1470,,,,,,,0x03,
9922,-1014,12,-50,-2030,-2940,-1330,,,,,,,0x03,
9932,-1021,21,-44,-1890,-2730,-840,,,,,,,0x03,
9942,-1021,29,-39,-1400,-2380,-70,,,,,,,0x03,
9951,-1024,33,-33,-630,-2100,560,,,,,,,0x03,
9961,-1029,31,-32,210,-1750,1120,,,,,,,0x03,
9971,-1021,28,-30,910,-1610,1680,,,,,,,0x03,
9980,-1017,30,-29,1750,-1540,1820,,,,,,,0x03,
9990,-1015,25,-32,2730,-980,1610,,,,,,,0x03,
10000,-1013,18,-35,3640,-210,1400,,,,,,,0x03,
10010,-1008,9,-37,4550,350,1470,,,,,,,0x03,
10019,-1003,3,-41,5180,420,1750,,,,,,,0x03,
10029,-999,-4,-44,5880,420,1820,,,,,,,0x03,
10039,-1000,-17,-47,6580,490,1610,,,,,,,0x03,
10048,-999,-33,-53,7070,560,1470,,,,,,,0x03,
10058,-997,-49,-62,7140,700,1330,,,,,,,0x03,
10068,-996,-60,-68,6370,560,1120,,,,,,,0x03,
10077,-993,-65,-70,5320,560,840,,,,,,,0x03,
10087,-988,-67,-72,4270,490,560,,,,,,,0x03,
10097,-987,-61,-69,3290,0,560,,,,,,,0x03,
10106,-989,-58,-66,2730,-560,490,,,,,,,0x03,
10116,-996,-49,-60,2380,-1330,1050,,,,,,,0x03,
10126,-996,-47,-56,2240,-1540,1120,,,,,,,0x03,
10135,-999,-45,-49,1820,-1750,1260,,,,,,,0x03,
10145,-1005,-41,-45,1260,-1330,910,,,,,,,0x03,
10155,-1000,-38,-43,700,-560,70,,,,,,,0x03,
10164,-1001,-35,-42,0,-280,-630,,,,,,,0x03,
10174,-1005,-30,-39,-210,-140,-1050,,,,,,,0x03,
10184,-1004,-27,-39,-210,-70,-980,,,,,,,0x03,
10193,-1001,-27,-39,-280,-490,-560,,,,,,,0x03,
10203,-1002,-24,-39,-210,-700,-350,,,,,,,0x03,
10213,-1000,-19,-40,-210,-560,-210,,,,,,,0x03,
10222,-995,-22,-42,0,-350,-630,,,,,,,0x03,
10232,-996,-24,-46,0,-420,-1120,,,,,,,0x03,
10242,-1000,-23,-46,-70,-630,-1190,,,,,,,0x03,
10251,-998,-22,-47,-70,-700,-1260,,,,,,,0x03,
10261,-997,-23,-49,-140,-630,-1260,,,,,,,0x03,
10271,-994,-26,-52,-280,-700,-1120,,,,,,,0x03,
10280,-994,-26,-53,-420,-980,-910,,,,,,,0x03,
10290,-997,-24,-51,-560,-1540,-910,,,,,,,0x03,
10300,-1000,-24,-50,-490,-1820,-1190,,,,,,,0x03,
10309,-1007,-26,-51,-560,-1750,-1400,,,,,,,0x03,
10319,-1007,-29,-55,-840,-1610,-1120,,,,,,,0x03,
10329,-1004,-27,-56,-1400,-1610,-560,,,,,,,0x03,
10338,-1004,-22,-57,-1610,-1540,-350,,,,,,,0x03,
10348,-1001,-19,-57,-1820,-1540,-350,,,,,,,0x03,
10358,-1002,-21,-55,-1890,-1470,-420,,,,,,,0x03,
10367,-1004,-19,-55,-1680,-1330,-210,,,,,,,0x03,
10377,-1003,-19,-55,-1680,-1470,0,,,,,,,0x03,
10387,-1004,-17,-55,-1610,-1400,-70,,,,,,,0x03,
10396,-1005,-16,-54,-1610,-980,-350,,,,,,,0x03,
10406,-1004,-17,-53,-1750,-560,-700,,,,,,,0x03,
10416,-1004,-16,-52,-1820,-350,-910,,,,,,,0x03,
10425,-1004,-14,-49,-1750,-490,-770,,,,,,,0x03,
10435,-1003,-14,-47,-1400,-770,-490,,,,,,,0x03,
10445,-999,-14,-47,-1120,-980,-350,,,,,,,0x03,
10454,-998,-12,-45,-1120,-1120,-490,,,,,,,0x03,
10464,-1002,-10,-42,-1050,-910,-1120,,,,,,,0x03,
10474,-1003,-10,-39,-910,-630,-1540,,,,,,,0x03,
10483,-1006,-11,-41,-630,-420,-1540,,,,,,,0x03,
10493,-1007,-12,-40,-420,-490,-1190,,,,,,,0x03,
10503,-1011,-12,-40,-210,-560,-770,,,,,,,0x03,
10512,-1011,-14,-39,-210,-630,-350,,,,,,,0x03,
10522,-1012,-14,-40,-210,-560,-280,,,,,,,0x03,
10532,-1013,-14,-42,-280,-210,-280,,,,,,,0x03,
10541,-1016,-16,-41,-350,210,-560,,,,,,,0x03,
10551,-1019,-20,-43,-210,420,-630,,,,,,,0x03,
10561,-1017,-23,-44,0,630,0,,,,,,,0x03,
10570,-1009,-21,-47,0,630,560,,,,,,,0x03,
10580,-1004,-19,-49,210,700,350,,,,,,,0x03,
10590,-1002,-20,-54,280,840,0,,,,,,,0x03,
10599,-995,-21,-59,350,980,-140,,,,,,,0x03,
10609,-992,-21,-60,280,910,-280,,,,,,,0x03,
10619,-994,-22,-62,280,700,-490,,,,,,,0x03,
10628,-989,-25,-65,350,420,-420,,,,,,,0x03,
10638,-986,-24,-66,210,140,-490,,,,,,,0x03,
10648,-988,-26,-64,70,-140,-980,,,,,,,0x03,
10657,-995,-26,-63,-210,-420,-1260,,,,,,,0x03,
10667,-1001,-27,-58,-350,-490,-1330,,,,,,,0x03,
10677,-1006,-28,-55,-350,-630,-980,,,,,,,0x03,
10686,-1007,-27,-56,-560,-560,-490,,,,,,,0x03,
10696,-1007,-25,-52,-700,-350,-490,,,,,,,0x03,
10706,-1005,-23,-53,-840,0,-490,,,,,,,0x03,
10715,-1000,-23,-53,-1050,70,-420,,,,,,,0x03,
10725,-995,-23,-55,-1120,0,-140,,,,,,,0x03,
10735,-995,-20,-54,-1330,-210,70,,,,,,,0x03,
10745,-996,-16,-51,-1190,-280,350,,,,,,,0x03,
10754,-996,-13,-49,-1120,-280,560,,,,,,,0x03,
10764,-994,-10,-48,-910,-420,630,,,,,,,0x03,
10774,-993,-7,-49,-700,-420,490,,,,,,,0x03,
10783,-993,-7,-47,-630,-420,140,,,,,,,0x03,
10793,-996,-7,-45,-280,-280,-280,,,,,,,0x03,
10803,-1000,-10,-47,-280,-280,-420,,,,,,,0x03,
10812,-1001,-11,-48,-70,-280,-140,,,,,,,0x03,
10822,-995,-10,-49,140,-420,280,,,,,,,0x03,
10832,-994,-11,-51,420,-700,280,,,,,,,0x03,
10841,-996,-12,-52,770,-980,210,,,,,,,0x03,
10851,-1001,-14,-52,910,-1120,490,,,,,,,0x03,
10861,-999,-13,-52,1050,-1120,840,,,,,,,0x03,
10870,-997,-12,-55,1050,-1050,770,,,,,,,0x03,
10880,-994,-13,-56,1050,-980,280,,,,,,,0x03,
10890,-995,-16,-57,1190,-980,-350,,,,,,,0x03,
10899,-1002,-20,-56,1190,-1330,-630,,,,,,,0x03,
10909,-1004,-22,-55,1260,-1540,-350,,,,,,,0x03,
10919,-1005,-22,-55,1190,-1750,-70,,,,,,,0x03,
10928,-1007,-21,-53,1050,-1820,-70,,,,,,,0x03,
10938,-1009,-23,-52,980,-1610,-140,,,,,,,0x03,
10948,-1011,-24,-52,770,-1330,-140,,,,,,,0x03,
10957,-1010,-24,-52,560,-980,140,,,,,,,0x03,
10967,-1005,-22,-51,280,-910,70,,,,,,,0x03,
10977,-1007,-21,-51,280,-770,-140,,,,,,,0x03,
10986,-1007,-20,-49,210,-630,-140,,,,,,,0x03,
10996,-1006,-19,-48,140,-560,210,,,,,,,0x03,
11006,-1004,-19,-46,140,-560,490,,,,,,,0x03,
11015,-1006,-17,-45,70,-630,490,,,,,,,0x03,
11025,-1009,-15,-44,70,-560,350,,,,,,,0x03,
11035,-1005,-14,-45,-70,-350,280,,,,,,,0x03,
11044,-1001,-15,-44,-70,-210,70,,,,,,,0x03,
11054,-1002,-16,-45,70,-140,-70,,,,,,,0x03,
11064,-1001,-17,-46,70,-210,-140,,,,,,,0x03,
11073,-1000,-19,-47,280,-140,-210,,,,,,,0x03,
11083,-1001,-20,-48,140,70,-490,,,,,,,0x03,
11093,-1003,-21,-49,-70,70,-840,,,,,,,0x03,
11102,-1005,-19,-48,-140,70,-770,,,,,,,0x03,
11112,-1004,-17,-46,-210,0,-490,,,,,,,0x03,
11122,-1006,-17,-46,70,-70,-210,,,,,,,0x03,
11131,-1006,-19,-47,210,-140,70,,,,,,,0x03,
11141,-1007,-21,-51,350,-70,350,,,,,,,0x03,
11151,-1002,-24,-56,280,70,630,,,,,,,0x03,
11160,-998,-24,-60,-70,0,700,,,,,,,0x03,
11170,-996,-22,-61,-350,-140,700,,,,,,,0x03,
11180,-997,-20,-59,-630,-350,700,,,,,,,0x03,
11189,-997,-19,-58,-700,-560,770,,,,,,,0x03,
11199,-993,-18,-58,-700,-630,840,,,,,,,0x03,
11209,-995,-17,-55,-700,-840,980,,,,,,,0x03,
11218,-993,-12,-54,-700,-1190,1050,,,,,,,0x03,
11228,-993,-6,-52,-630,-1540,980,,,,,,,0x03,
11238,-991,-3,-51,-350,-1610,700,,,,,,,0x03,
11247,-992,-2,-52,-140,-1610,210,,,,,,,0x03,
11257,-993,-5,-52,70,-1540,-420,,,,,,,0x03,
11267,-994,-8,-52,210,-1540,-840,,,,,,,0x03,
11276,-996,-8,-52,350,-1680,-1330,,,,,,,0x03,
11286,-1001,-9,-51,700,-1610,-1610,,,,,,,0x03,
11296,-1006,-13,-51,840,-1540,-1540,,,,,,,0x03,
11305,-1010,-16,-49,840,-1400,-1190,,,,,,,0x03,
11315,-1010,-13,-47,910,-1400,-910,,,,,,,0x03,
11325,-1015,-10,-43,980,-1260,-1120,,,,,,,0x03,
11334,-1018,-13,-45,1120,-840,-1470,,,,,,,0x03,
11344,-1019,-17,-48,980,-420,-1190,,,,,,,0x03,
11354,-1018,-19,-51,700,-140,-560,,,,,,,0x03,
11363,-1014,-16,-50,350,0,-140,,,,,,,0x03,
11373,-1012,-13,-48,140,140,-280,,,,,,,0x03,
11383,-1011,-13,-48,0,490,-420,,,,,,,0x03,
11392,-1010,-15,-52,-70,840,-280,,,,,,,0x03,
11402,-1005,-15,-53,70,770,70,,,,,,,0x03,
11412,-1003,-15,-51,140,490,280,,,,,,,0x03,
11421,-1003,-15,-50,210,0,490,,,,,,,0x03,
11431,-1000,-16,-52,420,-140,840,,,,,,,0x03,
11441,-995,-14,-55,420,-140,770,,,,,,,0x03,
11450,-995,-12,-57,280,-70,420,,,,,,,0x03,
11460,-990,-16,-56,210,0,-210,,,,,,,0x03,
11470,-995,-16,-59,70,140,-420,,,,,,,0x03,
11480,-997,-17,-56,140,-280,-210,,,,,,,0x03,
11489,-1000,-17,-54,210,-560,-70,,,,,,,0x03,
11499,-999,-18,-51,350,-700,-210,,,,,,,0x03,
11509,-997,-19,-50,350,-630,-350,,,,,,,0x03,
11518,-999,-18,-51,350,-420,-630,,,,,,,0x03,
11528,-1002,-19,-50,210,-210,-770,,,,,,,0x03,
11538,-1002,-16,-51,70,0,-350,,,,,,,0x03,
11547,-995,-14,-53,70,210,0,,,,,,,0x03,
11557,-994,-14,-53,0,140,-140,,,,,,,0x03,
11567,-996,-13,-53,0,0,-210,,,,,,,0x03,
11576,-995,-14,-51,-70,-70,-70,,,,,,,0x03,
11586,-998,-11,-48,0,-210,140,,,,,,,0x03,
11596,-1000,-11,-48,210,-280,420,,,,,,,0x03,
11605,-1000,-10,-48,210,-210,840,,,,,,,0x03,
11615,-997,-10,-48,140,-210,910,,,,,,,0x03,
11625,-1000,-6,-48,-70,0,280,,,,,,,0x03,
11634,-1000,-5,-49,-280,350,-770,,,,,,,0x03,
11644,-999,-8,-52,-140,770,-1330,,,,,,,0x03,
11654,-999,-10,-58,140,420,-980,,,,,,,0x03,
11663,-1001,-11,-57,560,-420,-210,,,,,,,0x03,
11673,-1002,-12,-60,910,-1190,210,,,,,,,0x03,
11683,-1002,-15,-60,1120,-1610,140,,,,,,,0x03,
11692,-1004,-19,-60,1050,-1470,-280,,,,,,,0x03,
11702,-1010,-20,-59,770,-1050,-980,,,,,,,0x03,
11712,-1014,-21,-58,560,-630,-1540,,,,,,,0x03,
11721,-1014,-24,-58,280,-350,-1610,,,,,,,0x03,
11731,-1012,-24,-57,280,-210,-1400,,,,,,,0x03,
11741,-1011,-25,-58,490,-210,-1120,,,,,,,0x03,
11750,-1009,-27,-61,420,-490,-770,,,,,,,0x03,
11760,-1006,-25,-63,210,-560,-560,,,,,,,0x03,
11770,-1005,-22,-60,-140,-490,-770,,,,,,,0x03,
11779,-1009,-21,-59,-560,-210,-1050,,,,,,,0x03,
11789,-1009,-19,-55,-700,-70,-980,,,,,,,0x03,
11799,-1008,-17,-54,-630,-140,-770,,,,,,,0x03,
11808,-1007,-16,-53,-420,-280,-420,,,,,,,0x03,
11818,-1005,-15,-51,-420,-280,-280,,,,,,,0x03,
11828,-1004,-13,-50,-490,70,-490,,,,,,,0x03,
11837,-999,-13,-51,-770,630,-560,,,,,,,0x03,
11847,-995,-10,-51,-980,840,-700,,,,,,,0x03,
11857,-994,-9,-51,-700,770,-840,,,,,,,0x03,
11866,-995,-8,-53,-420,350,-490,,,,,,,0x03,
11876,-993,-8,-52,-70,-140,0,,,,,,,0x03,
11886,-993,-9,-53,210,-560,350,,,,,,,0x03,
11895,-990,-8,-52,140,-630,350,,,,,,,0x03,
11905,-989,-8,-52,70,-490,-280,,,,,,,0x03,
11915,-995,-11,-52,0,-420,-910,,,,,,,0x03,
11924,-997,-11,-51,70,-420,-980,,,,,,,0x03,
11934,-998,-11,-50,280,-630,-630,,,,,,,0x03,
11944,-997,-12,-49,700,-910,-280,,,,,,,0x03,
11953,-1001,-13,-53,1050,-1120,0,,,,,,,0x03,
11963,-998,-13,-53,1050,-1050,70,,,,,,,0x03,
11973,-999,-16,-53,980,-910,-70,,,,,,,0x03,
11982,-1001,-19,-54,910,-700,-280,,,,,,,0x03,
11992,-1002,-20,-55,910,-700,-210,,,,,,,0x03,
12002,-1004,-21,-55,980,-770,-210,,,,,,,0x03,
12011,-1008,-23,-58,840,-770,-70,,,,,,,0x03,
12021,-1005,-23,-60,700,-700,140,,,,,,,0x03,
12031,-1004,-21,-61,350,-770,140,,,,,,,0x03,
12040,-1002,-19,-60,140,-840,-70,,,,,,,0x03,
12050,-1004,-16,-59,140,-910,-420,,,,,,,0x03,
12060,-1007,-17,-56,70,-910,-700,,,,,,,0x03,
12069,-1007,-16,-54,280,-630,-770,,,,,,,0x03,
12079,-1006,-17,-56,350,-350,-700,,,,,,,0x03,
12089,-1002,-16,-58,490,-210,-700,,,,,,,0x03,
12098,-998,-17,-61,350,-210,-770,,,,,,,0x03,
12108,-998,-18,-60,210,-420,-980,,,,,,,0x03,
12118,-998,-17,-59,140,-490,-980,,,,,,,0x03,
12127,-998,-16,-57,140,-700,-980,,,,,,,0x03,
12137,-1003,-17,-55,280,-840,-1050,,,,,,,0x03,
12147,-1006,-18,-54,350,-910,-770,,,,,,,0x03,
12156,-1007,-14,-53,350,-1050,-560,,,,,,,0x03,
12166,-1009,-14,-53,280,-910,-280,,,,,,,0x03,
12176,-1007,-12,-53,350,-700,-420,,,,,,,0x03,
12185,-1004,-14,-54,420,-490,-770,,,,,,,0x03,
12195,-1005,-14,-53,280,-350,-1050,,,,,,,0x03,
12205,-1006,-15,-51,210,-350,-1120,,,,,,,0x03,
12215,-1007,-16,-50,210,-210,-980,,,,,,,0x03,
12224,-1007,-16,-47,140,-70,-980,,,,,,,0x03,
12234,-1007,-17,-46,280,0,-910,,,,,,,0x03,
12244,-1007,-19,-49,420,70,-770,,,,,,,0x03,
12253,-1001,-21,-53,630,140,-560,,,,,,,0x03,
12263,-999,-23,-53,490,280,-630,,,,,,,0x03,
12273,-1000,-24,-55,280,420,-840,,,,,,,0x03,
12282,-998,-26,-56,70,560,-1050,,,,,,,0x03,
12292,-998,-28,-56,-210,560,-1050,,,,,,,0x03,
12302,-998,-26,-59,-210,280,-770,,,,,,,0x03,
12311,-996,-25,-59,-280,-140,-350,,,,,,,0x03,
12321,-996,-25,-61,-280,-490,-140,,,,,,,0x03,
12331,-995,-24,-64,-490,-560,-70,,,,,,,0x03,
12340,-997,-22,-61,-910,-490,-280,,,,,,,0x03,
12350,-1000,-21,-60,-1400,-140,-350,,,,,,,0x03,
12360,-997,-17,-56,-1540,-140,0,,,,,,,0x03,
12369,-995,-14,-59,-1470,-210,-140,,,,,,,0x03,
12379,-994,-14,-57,-1260,-700,140,,,,,,,0x03,
12389,-996,-10,-54,-1050,-1120,490,,,,,,,0x03,
12398,-993,-10,-56,-840,-1120,490,,,,,,,0x03,
12408,-991,-7,-54,-840,-1120,490,,,,,,,0x03,
12418,-991,-7,-55,-770,-1050,0,,,,,,,0x03,
12427,-996,-8,-56,-700,-1050,-420,,,,,,,0x03,
12437,-996,-6,-55,-700,-1190,-280,,,,,,,0x03,
12447,-999,-5,-52,-350,-1330,-70,,,,,,,0x03,
12456,-998,-4,-54,0,-1330,-70,,,,,,,0x03,
12466,-999,-7,-54,210,-1330,0,,,,,,,0x03,
12476,-1001,-9,-55,350,-1330,-70,,,,,,,0x03,
12485,-1006,-11,-57,350,-1330,0,,,,,,,0x03,
12495,-1005,-14,-59,420,-1190,140,,,,,,,0x03,
12505,-1005,-13,-59,350,-1050,70,,,,,,,0x03,
12514,-1008,-17,-60,420,-980,-210,,,,,,,0x03,
12524,-1011,-18,-59,280,-840,-280,,,,,,,0x03,
12534,-1010,-16,-58,210,-770,70,,,,,,,0x03,
12543,-1009,-16,-58,280,-630,280,,,,,,,0x03,
12553,-1009,-15,-57,210,-630,420,,,,,,,0x03,
12563,-1009,-15,-57,140,-560,420,,,,,,,0x03,
12572,-1008,-14,-57,0,-350,420,,,,,,,0x03,
12582,-1006,-14,-57,-70,-70,210,,,,,,,0x03,
12592,-1006,-14,-59,0,210,0,,,,,,,0x03,
12601,-1003,-14,-58,-70,280,140,,,,,,,0x03,
12611,-1001,-14,-57,0,140,210,,,,,,,0x03,
12621,-1003,-13,-56,0,70,210,,,,,,,0x03,
12630,-1005,-11,-54,70,-70,420,,,,,,,0x03,
12640,-1005,-12,-53,350,-140,630,,,,,,,0x03,
12650,-1005,-15,-56,420,-140,910,,,,,,,0x03,
12659,-998,-14,-56,350,-70,910,,,,,,,0x03,
12669,-998,-10,-57,210,70,280,,,,,,,0x03,
12679,-998,-12,-59,0,280,-280,,,,,,,0x03,
12688,-995,-13,-59,70,420,-490,,,,,,,0x03,
12698,-997,-13,-60,70,70,-420,,,,,,,0x03,
12708,-1000,-14,-61,210,-280,-210,,,,,,,0x03,
12717,-997,-15,-61,210,-560,0,,,,,,,0x03,
12727,-998,-14,-61,280,-700,0,,,,,,,0x03,
12737,-999,-13,-62,0,-560,-70,,,,,,,0x03,
12746,-999,-13,-61,-210,-420,-210,,,,,,,0x03,
12756,-1000,-12,-59,-210,-280,-420,,,,,,,0x03,
12766,-1002,-12,-57,-140,-280,-490,,,,,,,0x03,
12775,-1002,-12,-59,70,-420,-280,,,,,,,0x03,
12785,-1000,-11,-57,70,-420,-210,,,,,,,0x03,
12795,-1001,-11,-58,70,-350,-350,,,,,,,0x03,
12804,-1000,-12,-61,70,-280,-490,,,,,,,0x03,
12814,-999,-11,-59,-210,-280,-490,,,,,,,0x03,
12824,-998,-11,-59,-350,-140,-560,,,,,,,0x03,
12833,-997,-10,-59,-350,-280,-560,,,,,,,0x03,
12843,-999,-10,-60,-70,-490,-490,,,,,,,0x03,
12853,-1000,-11,-59,70,-560,-280,,,,,,,0x03,
12862,-999,-9,-59,-70,-560,-210,,,,,,,0x03,
12872,-997,-9,-58,-70,-280,-420,,,,,,,0x03,
12882,-997,-6,-58,-280,-140,-630,,,,,,,0x03,
12891,-995,-6,-59,-280,-280,-700,,,,,,,0x03,
12901,-996,-6,-56,0,-700,-560,,,,,,,0x03,
12911,-999,-8,-55,210,-1190,-280,,,,,,,0x03,
12920,-997,-6,-52,490,-1400,-70,,,,,,,0x03,
12930,-997,-7,-51,560,-1260,-350,,,,,,,0x03,
12940,-1000,-7,-51,630,-980,-980,,,,,,,0x03,
12949,-1003,-8,-52,700,-770,-1330,,,,,,,0x03,
12959,-1004,-12,-54,910,-910,-1190,,,,,,,0x03,
12969,-1007,-12,-55,1120,-1120,-770,,,,,,,0x03,
12979,-1007,-13,-55,1050,-1190,-700,,,,,,,0x03,
12988,-1010,-17,-56,910,-840,-910,,,,,,,0x03,
12998,-1009,-20,-58,770,-490,-910,,,,,,,0x03,
13008,-1010,-21,-58,560,-210,-770,,,,,,,0x03,
13017,-1009,-21,-58,560,-140,-560,,,,,,,0x03,
13027,-1007,-22,-58,490,-140,-210,,,,,,,0x03,
13037,-1003,-21,-58,420,-210,0,,,,,,,0x03,
13046,-999,-19,-58,140,-140,70,,,,,,,0x03,
13056,-998,-18,-58,-210,-140,140,,,,,,,0x03,
13066,-995,-15,-58,-420,0,140,,,,,,,0x03,
13075,-991,-11,-58,-560,70,140,,,,,,,0x03,
13085,-988,-10,-59,-420,0,0,,,,,,,0x03,
13095,-985,-10,-58,-350,-280,-140,,,,,,,0x03,
13104,-985,-9,-58,-210,-700,-350,,,,,,,0x03,
13114,-989,-10,-58,-70,-980,-420,,,,,,,0x03,
13124,-991,-11,-56,-140,-1120,-560,,,,,,,0x03,
13133,-992,-11,-55,0,-1190,-630,,,,,,,0x03,
13143,-995,-12,-54,210,-1400,-700,,,,,,,0x03,
13153,-999,-13,-56,350,-1470,-490,,,,,,,0x03,
13162,-996,-13,-54,350,-1610,-280,,,,,,,0x03,
13172,-999,-12,-54,350,-1610,-140,,,,,,,0x03,
13182,-1000,-14,-53,350,-1610,-210,,,,,,,0x03,
13191,-1001,-13,-54,210,-1610,-210,,,,,,,0x03,
13201,-1004,-14,-54,350,-1540,-350,,,,,,,0x03,
13211,-1007,-16,-54,280,-1610,-210,,,,,,,0x03,
13220,-1006,-17,-58,210,-1540,-70,,,,,,,0x03,
13230,-1006,-17,-58,140,-1330,0,,,,,,,0x03,
13240,-1005,-17,-61,-70,-1120,0,,,,,,,0x03,
13249,-1002,-16,-61,-210,-1050,-280,,,,,,,0x03,
13259,-1002,-14,-61,-350,-1120,-280,,,,,,,0x03,
13269,-1004,-12,-59,-280,-1190,-280,,,,,,,0x03,
13278,-1004,-12,-58,0,-1190,-140,,,,,,,0x03,
13288,-1005,-14,-58,70,-1260,0,,,,,,,0x03,
13298,-1006,-15,-58,140,-1190,0,,,,,,,0x03,
13307,-1011,-17,-58,140,-1190,-140,,,,,,,0x03,
13317,-1010,-17,-59,140,-980,-70,,,,,,,0x03,
13327,-1007,-19,-57,140,-910,70,,,,,,,0x03,
13336,-1009,-19,-56,70,-910,70,,,,,,,0x03,
13346,-1011,-20,-55,-70,-770,70,,,,,,,0x03,
13356,-1008,-17,-55,-420,-420,70,,,,,,,0x03,
13365,-1004,-15,-56,-490,-140,-140,,,,,,,0x03,
13375,-1001,-14,-56,-490,0,-350,,,,,,,0x03,
13385,-1001,-12,-57,-420,-140,-350,,,,,,,0x03,
13394,-999,-13,-57,-210,-420,-70,,,,,,,0x03,
13404,-998,-13,-59,-210,-630,210,,,,,,,0x03,
13414,-997,-13,-56,-350,-770,350,,,,,,,0x03,
13423,-1000,-10,-55,-420,-700,210,,,,,,,0x03,
13433,-997,-10,-55,-420,-490,0,,,,,,,0x03,
13443,-995,-12,-57,-210,-420,-210,,,,,,,0x03,
13452,-996,-12,-58,-210,-700,-70,,,,,,,0x03,
13462,-997,-11,-56,-140,-910,-70,,,,,,,0x03,
13472,-996,-11,-55,-70,-980,-140,,,,,,,0x03,
13481,-1000,-12,-54,-140,-770,-420,,,,,,,0x03,
13491,-999,-12,-55,-210,-560,-490,,,,,,,0x03,
13501,-999,-13,-57,-280,-560,-630,,,,,,,0x03,
13510,-998,-13,-59,-210,-700,-560,,,,,,,0x03,
13520,-998,-15,-56,-140,-910,-420,,,,,,,0x03,
13530,-1002,-13,-54,-140,-980,-420,,,,,,,0x03,
13539,-1003,-15,-57,-140,-910,-210,,,,,,,0x03,
13549,-1001,-16,-57,-210,-910,140,,,,,,,0x03,
13559,-1002,-14,-57,-210,-1050,350,,,,,,,0x03,
13568,-1003,-12,-57,-350,-1050,420,,,,,,,0x03,
13578,-1002,-12,-57,-490,-910,280,,,,,,,0x03,
13588,-1001,-11,-57,-560,-700,210,,,,,,,0x03,
13597,-999,-10,-58,-700,-560,140,,,,,,,0x03,
13607,-1000,-11,-58,-630,-630,0,,,,,,,0x03,
13617,-1002,-11,-57,-630,-840,70,,,,,,,0x03,
13626,-1004,-9,-56,-490,-980,280,,,,,,,0x03,
13636,-1004,-9,-58,-420,-980,700,,,,,,,0x03,
13646,-999,-7,-58,-420,-910,700,,,,,,,0x03,
13655,-1000,-6,-57,-420,-840,280,,,,,,,0x03,
13665,-1001,-7,-58,-420,-770,-140,,,,,,,0x03,
13675,-999,-8,-58,-350,-700,-280,,,,,,,0x03,
13684,-998,-10,-58,-350,-700,-350,,,,,,,0x03,
13694,-1000,-10,-57,-420,-910,-420,,,,,,,0x03,
13704,-1001,-8,-54,-490,-1050,-420,,,,,,,0x03,
13714,-1002,-7,-53,-420,-1120,-280,,,,,,,0x03,
13723,-1002,-7,-53,-70,-1120,-280,,,,,,,0x03,
13733,-1003,-8,-54,70,-1120,-350,,,,,,,0x03,
13743,-1004,-11,-54,210,-1260,-490,,,,,,,0x03,
13752,-1007,-11,-54,210,-1190,-420,,,,,,,0x03,
13762,-1005,-9,-54,140,-1120,-350,,,,,,,0x03,
13772,-1004,-9,-54,210,-840,-490,,,,,,,0x03,
13781,-1006,-10,-55,280,-770,-770,,,,,,,0x03,
13791,-1006,-9,-55,280,-840,-630,,,,,,,0x03,
13801,-1008,-9,-52,350,-700,-560,,,,,,,0x03,
13810,-1012,-11,-52,280,-560,-560,,,,,,,0x03,
13820,-1008,-14,-55,210,-210,-280,,,,,,,0x03,
13830,-1002,-12,-56,-140,70,-140,,,,,,,0x03,
13839,-1000,-13,-59,-210,0,-140,,,,,,,0x03,
13849,-997,-14,-62,-280,-210,70,,,,,,,0x03,
13859,-995,-11,-61,-280,-560,350,,,,,,,0x03,
13868,-992,-8,-60,-280,-770,350,,,,,,,0x03,
13878,-995,-8,-56,-420,-840,70,,,,,,,0x03,
13888,-996,-7,-54,-420,-840,-210,,,,,,,0x03,
13897,-997,-5,-51,-420,-840,-280,,,,,,,0x03,
13907,-998,-4,-50,-140,-840,-420,,,,,,,0x03,
13917,-998,-6,-52,140,-910,-490,,,,,,,0x03,
13926,-996,-7,-52,210,-1120,-280,,,,,,,0x03,
13936,-997,-8,-51,210,-1260,-280,,,,,,,0x03,
13946,-1002,-9,-50,140,-1190,-280,,,,,,,0x03,
13955,-1000,-10,-51,70,-980,-350,,,,,,,0x03,
13965,-999,-11,-53,70,-980,-420,,,,,,,0x03,
13975,-1003,-9,-55,0,-1120,-560,,,,,,,0x03,
13984,-1001,-11,-55,140,-1260,-280,,,,,,,0x03,
13994,-998,-11,-58,210,-1400,0,,,,,,,0x03,
14004,-998,-12,-60,420,-1540,350,,,,,,,0x03,
14013,-1000,-11,-61,560,-1960,1120,,,,,,,0x03,
14023,-999,-7,-58,350,-2520,1330,,,,,,,0x03,
14033,-1000,-6,-57,210,-2100,490,,,,,,,0x03,
14042,-1005,-5,-55,70,-1680,-280,,,,,,,0x03,
14052,-1007,-6,-56,0,-1190,-420,,,,,,,0x03,
14062,-1006,-4,-56,0,-1190,-490,,,,,,,0x03,
14071,-1007,-6,-55,140,-1330,-630,,,,,,,0x03,
14081,-1008,-4,-55,210,-1190,-560,,,,,,,0x03,
14091,-1007,-4,-53,350,-980,-700,,,,,,,0x03,
14100,-1010,-5,-53,560,-840,-910,,,,,,,0x03,
14110,-1012,-8,-54,700,-840,-840,,,,,,,0x03,
14120,-1011,-7,-54,700,-840,-560,,,,,,,0x03,
14129,-1009,-8,-55,770,-560,-630,,,,,,,0x03,
14139,-1008,-10,-55,560,-280,-910,,,,,,,0x03,
14149,-1009,-11,-55,490,70,-1260,,,,,,,0x03,
14158,-1009,-14,-55,490,210,-1470,,,,,,,0x03,
14168,-1010,-15,-55,560,210,-1330,,,,,,,0x03,
14178,-1010,-16,-55,490,70,-630,,,,,,,0x03,
14187,-1006,-14,-53,350,-70,210,,,,,,,0x03,
14197,-1002,-9,-52,210,0,420,,,,,,,0x03,
14207,-1000,-10,-52,70,210,70,,,,,,,0x03,
14216,-996,-9,-54,70,350,-210,,,,,,,0x03,
14226,-993,-8,-53,0,280,-280,,,,,,,0x03,
14236,-996,-7,-51,0,-140,-420,,,,,,,0x03,
14245,-997,-5,-49,140,-350,-280,,,,,,,0x03,
14255,-993,-4,-50,280,-350,-140,,,,,,,0x03,
14265,-990,-3,-51,490,-210,-210,,,,,,,0x03,
14274,-989,-5,-56,560,-280,-490,,,,,,,0x03,
14284,-988,-6,-58,560,-630,-630,,,,,,,0x03,
14294,-991,-7,-56,700,-1050,-560,,,,,,,0x03,
14303,-994,-9,-54,770,-1190,-420,,,,,,,0x03,
14313,-996,-11,-53,910,-1260,-490,,,,,,,0x03,
14323,-999,-15,-54,980,-1120,-560,,,,,,,0x03,
14332,-1000,-16,-55,770,-1120,-630,,,,,,,0x03,
14342,-1000,-15,-52,700,-1190,-630,,,,,,,0x03,
14352,-1005,-16,-53,420,-1120,-700,,,,,,,0x03,
14361,-1006,-15,-50,350,-1190,-560,,,,,,,0x03,
14371,-1006,-14,-51,280,-1120,-280,,,,,,,0x03,
14381,-1003,-14,-52,210,-1050,-140,,,,,,,0x03,
14390,-1004,-13,-53,140,-910,-210,,,,,,,0x03,
14400,-1003,-13,-55,-70,-770,-210,,,,,,,0x03,
14410,-1001,-11,-56,-140,-630,-280,,,,,,,0x03,
14419,-1001,-10,-56,-350,-770,-280,,,,,,,0x03,
14429,-1002,-6,-54,-280,-980,-210,,,,,,,0x03,
14439,-1002,-7,-52,-70,-1120,-70,,,,,,,0x03,
14449,-1002,-9,-51,140,-1190,-210,,,,,,,0x03,
14458,-1007,-10,-51,350,-1050,-280,,,,,,,0x03,
14468,-1006,-12,-53,210,-910,-140,,,,,,,0x03,
14478,-1002,-10,-54,70,-770,-210,,,,,,,0x03,
14487,-1001,-9,-53,0,-630,-770,,,,,,,0x03,
14497,-1005,-12,-53,70,-490,-1260,,,,,,,0x03,
14507,-1003,-14,-55,70,-350,-1260,,,,,,,0x03,
14516,-1004,-15,-53,0,-490,-840,,,,,,,0x03,
14526,-1003,-13,-54,0,-770,-560,,,,,,,0x03,
14536,-1001,-13,-53,0,-980,-560,,,,,,,0x03,
14545,-1005,-12,-52,0,-980,-840,,,,,,,0x03,
14555,-1006,-11,-51,70,-700,-840,,,,,,,0x03,
14565,-1006,-11,-51,140,-770,-700,,,,,,,0x03,
14574,-1007,-12,-51,350,-840,-700,,,,,,,0x03,
14584,-1009,-11,-51,280,-770,-630,,,,,,,0x03,
14594,-1008,-12,-53,210,-490,-630,,,,,,,0x03,
14603,-1006,-12,-55,-70,-70,-630,,,,,,,0x03,
14613,-1006,-11,-55,-420,70,-770,,,,,,,0x03,
14623,-1004,-10,-55,-420,140,-770,,,,,,,0x03,
14632,-1001,-12,-55,-350,-70,-560,,,,,,,0x03,
14642,-1001,-9,-53,-210,-350,-280,,,,,,,0x03,
14652,-1001,-8,-53,-140,-560,-280,,,,,,,0x03,
14661,-1002,-8,-51,-210,-490,-560,,,,,,,0x03,
14671,-1003,-8,-51,-210,-140,-910,,,,,,,0x03,
14681,-1005,-9,-50,-210,140,-910,,,,,,,0x03,
14690,-1003,-8,-51,0,70,-630,,,,,,,0x03,
14700,-1003,-9,-52,280,-70,-490,,,,,,,0x03,
14710,-1000,-10,-52,280,-210,-420,,,,,,,0x03,
14719,-1003,-12,-53,210,-70,-420,,,,,,,0x03,
14729,-1001,-13,-55,-140,210,-350,,,,,,,0x03,
14739,-998,-14,-56,-350,280,-490,,,,,,,0x03,
14748,-997,-13,-55,-350,70,-560,,,,,,,0x03,
14758,-997,-11,-52,-350,-210,-350,,,,,,,0x03,
14768,-998,-11,-53,-210,-350,-70,,,,,,,0x03,
14777,-996,-11,-53,-210,-490,280,,,,,,,0x03,
14787,-997,-9,-54,-280,-490,350,,,,,,,0x03,
14797,-992,-9,-53,-350,-420,210,,,,,,,0x03,
14806,-991,-8,-54,-210,-350,-140,,,,,,,0x03,
14816,-993,-8,-56,-140,-420,-350,,,,,,,0x03,
14826,-994,-11,-57,-70,-910,-140,,,,,,,0x03,
14835,-998,-11,-56,70,-1330,0,,,,,,,0x03,
14845,-1001,-10,-56,-70,-1400,0,,,,,,,0x03,
14855,-1000,-10,-57,-210,-1120,-210,,,,,,,0x03,
14864,-1001,-11,-57,-350,-770,-700,,,,,,,0x03,
14874,-1004,-12,-58,-350,-700,-910,,,,,,,0x03,
14884,-1003,-13,-60,-140,-980,-630,,,,,,,0x03,
14893,-1007,-13,-58,-70,-1260,-210,,,,,,,0x03,
14903,-1008,-12,-57,0,-1260,70,,,,,,,0x03,
14913,-1009,-11,-56,-140,-980,140,,,,,,,0x03,
14922,-1007,-8,-55,-350,-560,0,,,,,,,0x03,
14932,-1007,-7,-55,-350,-210,-420,,,,,,,0x03,
14942,-1006,-8,-54,-350,-140,-630,,,,,,,0x03,
14951,-1006,-7,-55,-70,-140,-420,,,,,,,0x03,
14961,-1008,-7,-56,0,-210,-140,,,,,,,0x03,
14971,-1007,-9,-56,0,-210,70,,,,,,,0x03,
14980,-1005,-6,-56,0,-210,140,,,,,,,0x03,
14990,-1001,-7,-56,0,-140,0,,,,,,,0x03,
15000,-1002,-7,-56,140,-140,-350,,,,,,,0x03,
15009,-1005,-8,-54,280,-70,-560,,,,,,,0x03,
15019,-1004,-7,-54,350,0,-490,,,,,,,0x03,
15029,-1003,-9,-55,420,70,-420,,,,,,,0x03,
15038,-1003,-9,-55,350,0,-350,,,,,,,0x03,
15048,-1002,-7,-55,350,0,-210,,,,,,,0x03,
15058,-1000,-8,-54,280,70,-420,,,,,,,0x03,
15067,-999,-9,-55,280,210,-490,,,,,,,0x03,
15077,-996,-10,-56,280,140,-280,,,,,,,0x03,
15087,-995,-8,-56,280,-210,-140,,,,,,,0x03,
15096,-993,-7,-57,350,-350,-70,,,,,,,0x03,
15106,-992,-6,-58,280,-490,-140,,,,,,,0x03,
15116,-993,-7,-58,280,-560,-420,,,,,,,0x03,
15125,-994,-6,-59,350,-630,-700,,,,,,,0x03,
15135,-997,-7,-59,280,-700,-980,,,,,,,0x03,
15145,-996,-9,-58,420,-700,-1120,,,,,,,0x03,
15154,-997,-10,-56,420,-770,-1050,,,,,,,0x03,
15164,-999,-12,-57,630,-980,-910,,,,,,,0x03,
15174,-1001,-14,-58,700,-1190,-630,,,,,,,0x03,
15184,-1002,-13,-56,630,-1400,-280,,,,,,,0x03,
15193,-1002,-11,-57,560,-1330,-140,,,,,,,0x03,
15203,-1003,-14,-56,420,-1260,-280,,,,,,,0x03,
15213,-1006,-15,-56,350,-1190,-420,,,,,,,0x03,
15222,-1007,-15,-55,210,-1190,-280,,,,,,,0x03,
15232,-1007,-13,-53,70,-910,-210,,,,,,,0x03,
15242,-1006,-13,-55,0,-560,-280,,,,,,,0x03,
15251,-1002,-12,-57,-210,-350,-350,,,,,,,0x03,
15261,-1002,-10,-56,-280,-350,-420,,,,,,,0x03,
15271,-1003,-7,-55,-420,-630,-140,,,,,,,0x03,
15280,-1001,-4,-53,-210,-910,140,,,,,,,0x03,
15290,-1001,-3,-50,140,-1050,280,,,,,,,0x03,
15300,-1003,-4,-50,350,-980,140,,,,,,,0x03,
15309,-1004,-6,-50,560,-560,-140,,,,,,,0x03,
15319,-999,-9,-54,490,-350,-350,,,,,,,0x03,
15329,-997,-8,-54,420,-210,-700,,,,,,,0x03,
15338,-998,-11,-56,350,-350,-910,,,,,,,0x03,
15348,-996,-12,-55,350,-420,-910,,,,,,,0x03,
15358,-996,-14,-56,490,-630,-840,,,,,,,0x03,
15367,-998,-14,-55,560,-980,-630,,,,,,,0x03,
15377,-1001,-15,-56,700,-1190,-490,,,,,,,0x03,
15387,-1000,-15,-53,770,-1190,-490,,,,,,,0x03,
15396,-1002,-14,-56,700,-910,-700,,,,,,,0x03,
15406,-1002,-16,-57,630,-770,-770,,,,,,,0x03,
15416,-1003,-18,-57,350,-980,-420,,,,,,,0x03,
15425,-1004,-15,-56,140,-1260,0,,,,,,,0x03,
15435,-1003,-13,-55,-140,-1400,140,,,,,,,0x03,
15445,-1004,-9,-54,-350,-1190,-140,,,,,,,0x03,
15454,-1007,-8,-54,-280,-770,-490,,,,,,,0x03,
15464,-1007,-9,-56,-210,-630,-420,,,,,,,0x03,
15474,-1005,-9,-57,0,-770,-140,,,,,,,0x03,
15483,-1004,-7,-55,70,-980,0,,,,,,,0x03,
15493,-1004,-6,-53,140,-910,-210,,,,,,,0x03,
15503,-1006,-6,-52,70,-490,-630,,,,,,,0x03,
15512,-1003,-7,-54,0,-140,-840,,,,,,,0x03,
15522,-1003,-6,-54,70,-70,-980,,,,,,,0x03,
15532,-1004,-7,-55,280,-210,-910,,,,,,,0x03,
15541,-1003,-10,-58,560,-420,-700,,,,,,,0x03,
15551,-1002,-12,-58,560,-630,-350,,,,,,,0x03,
15561,-1004,-11,-58,420,-770,-490,,,,,,,0x03,
15570,-1006,-12,-57,420,-560,-700,,,,,,,0x03,
15580,-1004,-12,-55,280,-350,-770,,,,,,,0x03,
15590,-1003,-10,-53,140,-280,-770,,,,,,,0x03,
15599,-1004,-8,-53,140,-210,-770,,,,,,,0x03,
15609,-1003,-11,-54,280,-210,-700,,,,,,,0x03,
15619,-1001,-10,-55,280,-280,-420,,,,,,,0x03,
15628,-1001,-9,-53,210,-490,-210,,,,,,,0x03,
15638,-1002,-8,-55,210,-560,-210,,,,,,,0x03,
15648,-998,-10,-56,140,-420,-350,,,,,,,0x03,
15657,-994,-9,-57,210,-280,-560,,,,,,,0x03,
15667,-998,-9,-58,350,-140,-840,,,,,,,0x03,
15677,-996,-10,-62,350,-350,-980,,,,,,,0x03,
15686,-995,-12,-62,560,-630,-910,,,,,,,0x03,
15696,-999,-13,-62,630,-1050,-910,,,,,,,0x03,
15706,-1006,-12,-60,630,-1190,-910,,,,,,,0x03,
15715,-1007,-14,-58,560,-1050,-980,,,,,,,0x03,
15725,-1011,-14,-57,350,-630,-1050,,,,,,,0x03,
15735,-1011,-15,-57,420,-280,-1120,,,,,,,0x03,
15744,-1010,-15,-59,350,-70,-1190,,,,,,,0x03,
15754,-1008,-14,-59,350,0,-1120,,,,,,,0x03,
15764,-1007,-14,-58,280,-70,-980,,,,,,,0x03,
15773,-1009,-14,-58,140,-70,-770,,,,,,,0x03,
15783,-1008,-13,-59,0,210,-350,,,,,,,0x03,
15793,-1002,-9,-58,-70,350,-210,,,,,,,0x03,
15802,-1002,-7,-58,0,490,-350,,,,,,,0x03,
15812,-999,-7,-58,70,490,-490,,,,,,,0x03,
15822,-998,-5,-56,140,420,-630,,,,,,,0x03,
15831,-997,-4,-57,420,210,-490,,,,,,,0x03,
15841,-995,-4,-56,630,70,-490,,,,,,,0x03,
15851,-996,-5,-58,770,0,-560,,,,,,,0x03,
15860,-994,-7,-56,700,0,-560,,,,,,,0x03,
15870,-994,-8,-56,630,-140,-700,,,,,,,0x03,
15880,-997,-8,-56,770,-280,-980,,,,,,,0x03,
15889,-999,-10,-57,910,-420,-980,,,,,,,0x03,
15899,-1000,-11,-57,1120,-560,-630,,,,,,,0x03,
15909,-1000,-10,-57,980,-560,-350,,,,,,,0x03,
15919,-1001,-8,-56,980,-420,-490,,,,,,,0x03,
15928,-999,-8,-58,1120,-140,-700,,,,,,,0x03,
15938,-1000,-8,-57,1260,-210,-980,,,,,,,0x03,
15948,-1003,-12,-58,1400,-280,-1050,,,,,,,0x03,
15957,-1002,-14,-60,1400,-350,-770,,,,,,,0x03,
15967,-998,-15,-60,1260,-490,-630,,,,,,,0x03,
15977,-1000,-13,-60,1120,-490,-770,,,,,,,0x03,
15986,-1002,-14,-59,910,-350,-840,,,,,,,0x03,
15996,-1001,-14,-60,910,-210,-700,,,,,,,0x03,
16006,-1003,-16,-59,910,-350,-770,,,,,,,0x03,
16015,-1004,-17,-59,980,-420,-700,,,,,,,0x03,
16025,-1004,-17,-56,1050,-490,-630,,,,,,,0x03,
16035,-1005,-16,-55,1050,-490,-420,,,,,,,0x03,
16044,-1001,-18,-57,1050,-420,-350,,,,,,,0x03,
16054,-1001,-15,-57,840,-280,-560,,,,,,,0x03,
16064,-1002,-14,-56,770,-140,-770,,,,,,,0x03,
16073,-1001,-13,-59,770,0,-840,,,,,,,0x03,
16083,-999,-14,-59,840,0,-910,,,,,,,0x03,
16093,-998,-17,-61,980,-140,-910,,,,,,,0x03,
16102,-997,-17,-59,910,-350,-840,,,,,,,0x03,
16112,-997,-17,-61,910,-420,-840,,,,,,,0x03,
16122,-994,-18,-61,770,-490,-840,,,,,,,0x03,
16131,-996,-15,-61,630,-560,-770,,,,,,,0x03,
16141,-995,-15,-60,490,-630,-840,,,,,,,0x03,
16151,-995,-13,-58,420,-630,-910,,,,,,,0x03,
16160,-996,-13,-57,490,-490,-910,,,,,,,0x03,
16170,-993,-12,-57,490,-560,-770,,,,,,,0x03,
16180,-989,-13,-59,630,-770,-770,,,,,,,0x03,
16189,-991,-15,-57,630,-1050,-1050,,,,,,,0x03,
16199,-994,-16,-55,420,-1260,-980,,,,,,,0x03,
16209,-992,-13,-54,350,-1260,-840,,,,,,,0x03,
16218,-994,-10,-52,420,-1400,-1120,,,,,,,0x03,
16228,-1002,-11,-54,770,-1470,-1330,,,,,,,0x03,
16238,-1004,-14,-56,1190,-1820,-980,,,,,,,0x03,
16247,-1007,-17,-57,1190,-2100,-490,,,,,,,0x03,
16257,-1008,-19,-59,1260,-1960,-280,,,,,,,0x03,
16267,-1006,-21,-61,1260,-1610,-210,,,,,,,0x03,
16276,-1004,-21,-64,1540,-1960,560,,,,,,,0x03,
16286,-1006,-19,-62,1330,-2240,560,,,,,,,0x03,
16296,-1011,-24,-61,770,-1680,-420,,,,,,,0x03,
16305,-1011,-23,-59,210,-770,-840,,,,,,,0x03,
16315,-1012,-17,-57,-280,-140,-770,,,,,,,0x03,
16325,-1009,-14,-58,-210,-70,-630,,,,,,,0x03,
16334,-1005,-12,-56,-70,-490,-490,,,,,,,0x03,
16344,-1003,-11,-57,140,-700,-210,,,,,,,0x03,
16354,-1001,-11,-54,210,-560,-280,,,,,,,0x03,
16363,-1001,-11,-56,70,-280,-560,,,,,,,0x03,
16373,-1001,-11,-56,0,-280,-770,,,,,,,0x03,
16383,-1000,-10,-55,0,-350,-700,,,,,,,0x03,
16392,-1001,-9,-54,280,-350,-560,,,,,,,0x03,
16402,-1004,-8,-53,560,-490,-630,,,,,,,0x03,
16412,-1005,-10,-53,700,-630,-700,,,,,,,0x03,
16421,-1005,-13,-55,840,-420,-700,,,,,,,0x03,
16431,-1003,-16,-56,840,-210,-700,,,,,,,0x03,
16441,-1001,-18,-58,770,-70,-560,,,,,,,0x03,
16450,-998,-17,-60,630,-70,-560,,,,,,,0x03,
16460,-998,-19,-58,420,-280,-770,,,,,,,0x03,
16470,-999,-20,-59,350,-280,-630,,,,,,,0x03,
16479,-999,-16,-58,210,-420,-280,,,,,,,0x03,
16489,-996,-14,-57,420,-490,-140,,,,,,,0x03,
16499,-994,-13,-57,630,-560,-420,,,,,,,0x03,
16508,-995,-15,-60,770,-630,-700,,,,,,,0x03,
16518,-997,-17,-62,840,-630,-770,,,,,,,0x03,
16528,-997,-17,-65,490,-770,-490,,,,,,,0x03,
16537,-994,-15,-65,350,-910,-420,,,,,,,0x03,
16547,-996,-16,-65,350,-980,-630,,,,,,,0x03,
16557,-999,-18,-62,420,-1120,-840,,,,,,,0x03,
16566,-1005,-17,-61,560,-1330,-770,,,,,,,0x03,
16576,-1011,-16,-57,560,-1400,-630,,,,,,,0x03,
16586,-1012,-18,-58,700,-980,-560,,,,,,,0x03,
16595,-1009,-19,-58,560,-490,-560,,,,,,,0x03,
16605,-1006,-19,-59,350,70,-770,,,,,,,0x03,
16615,-1004,-18,-61,0,140,-910,,,,,,,0x03,
16624,-1002,-14,-59,-70,0,-910,,,,,,,0x03,
16634,-1002,-15,-59,140,-210,-630,,,,,,,0x03,
16644,-1001,-13,-58,210,-420,-350,,,,,,,0x03,
16654,-1002,-14,-54,280,-490,-210,,,,,,,0x03,
16663,-1002,-13,-54,210,-420,70,,,,,,,0x03,
16673,-999,-11,-55,280,-210,70,,,,,,,0x03,
16683,-998,-11,-55,420,0,-350,,,,,,,0x03,
16692,-998,-14,-56,560,70,-770,,,,,,,0x03,
16702,-1000,-16,-56,630,-70,-490,,,,,,,0x03,
16712,-997,-16,-57,560,-350,-70,,,,,,,0x03,
16721,-996,-16,-56,420,-420,210,,,,,,,0x03,
16731,-993,-15,-56,420,-350,280,,,,,,,0x03,
16741,-990,-14,-56,350,-280,0,,,,,,,0x03,
16750,-989,-16,-56,490,-350,-280,,,,,,,0x03,
16760,-988,-17,-55,630,-630,-350,,,,,,,0x03,
16770,-989,-15,-56,700,-910,-280,,,,,,,0x03,
16779,-988,-16,-56,770,-1120,-210,,,,,,,0x03,
16789,-987,-16,-57,630,-1330,-210,,,,,,,0x03,
16799,-988,-16,-57,490,-1400,-280,,,,,,,0x03,
16808,-989,-16,-59,490,-1540,-420,,,,,,,0x03,
16818,-991,-16,-57,420,-1750,-490,,,,,,,0x03,
16828,-994,-16,-56,560,-1890,-490,,,,,,,0x03,
16837,-997,-17,-55,560,-2100,-490,,,,,,,0x03,
16847,-1000,-19,-55,700,-2240,-420,,,,,,,0x03,
16857,-1000,-20,-55,700,-2310,-280,,,,,,,0x03,
16866,-1003,-21,-55,700,-2240,-350,,,,,,,0x03,
16876,-1004,-24,-57,490,-2030,-210,,,,,,,0x03,
16886,-1005,-26,-59,280,-1890,0,,,,,,,0x03,
16895,-1007,-26,-60,70,-1820,0,,,,,,,0x03,
16905,-1010,-24,-58,-280,-1890,280,,,,,,,0x03,
16915,-1007,-23,-56,-420,-1750,490,,,,,,,0x03,
16924,-1005,-21,-57,-560,-1680,490,,,,,,,0x03,
16934,-1008,-17,-58,-630,-1610,280,,,,,,,0x03,
16944,-1008,-17,-58,-700,-1330,140,,,,,,,0x03,
16953,-1006,-17,-58,-630,-1190,210,,,,,,,0x03,
16963,-1006,-17,-58,-490,-1120,140,,,,,,,0x03,
16973,-1007,-15,-57,-630,-1120,280,,,,,,,0x03,
16982,-1004,-15,-55,-630,-1190,560,,,,,,,0x03,
16992,-1002,-13,-55,-630,-1260,770,,,,,,,0x03,
17002,-1001,-11,-53,-770,-1260,910,,,,,,,0x03,
17011,-1000,-10,-50,-700,-1120,560,,,,,,,0x03,
17021,-1001,-12,-51,-700,-980,0,,,,,,,0x03,
17031,-1001,-13,-51,-630,-980,-280,,,,,,,0x03,
17040,-1005,-13,-52,-630,-1190,-350,,,,,,,0x03,
17050,-1007,-12,-50,-420,-1470,-140,,,,,,,0x03,
17060,-1006,-12,-51,0,-1540,140,,,,,,,0x03,
17069,-1004,-13,-52,70,-1540,210,,,,,,,0x03,
17079,-1007,-14,-53,70,-1260,-210,,,,,,,0x03,
17089,-1010,-17,-53,-140,-840,-350,,,,,,,0x03,
17098,-1007,-17,-56,-350,-630,-350,,,,,,,0x03,
17108,-1004,-17,-55,-420,-630,-280,,,,,,,0x03,
17118,-1005,-15,-57,-420,-770,-140,,,,,,,0x03,
17127,-1001,-15,-55,-350,-910,70,,,,,,,0x03,
17137,-999,-14,-54,-350,-910,0,,,,,,,0x03,
17147,-1001,-15,-54,-490,-770,0,,,,,,,0x03,
17156,-999,-14,-52,-560,-630,70,,,,,,,0x03,
17166,-996,-11,-51,-700,-770,210,,,,,,,0x03,
17176,-994,-10,-49,-560,-700,70,,,,,,,0x03,
17185,-995,-9,-50,-490,-700,-70,,,,,,,0x03,
17195,-994,-9,-52,-350,-630,-140,,,,,,,0x03,
17205,-991,-10,-54,-280,-630,-210,,,,,,,0x03,
17214,-994,-11,-55,-280,-910,-280,,,,,,,0x03,
17224,-996,-11,-55,-210,-1400,-140,,,,,,,0x03,
17234,-999,-11,-53,-210,-1680,70,,,,,,,0x03,
17243,-1000,-12,-53,-70,-1750,0,,,,,,,0x03,
17253,-1002,-13,-55,-140,-1540,-210,,,,,,,0x03,
17263,-1003,-13,-51,-280,-1260,-350,,,,,,,0x03,
17272,-1005,-12,-50,-490,-1120,-490,,,,,,,0x03,
17282,-1007,-12,-49,-630,-1050,-350,,,,,,,0x03,
17292,-1004,-10,-50,-490,-980,-70,,,,,,,0x03,
17301,-1003,-8,-51,-210,-1050,70,,,,,,,0x03,
17311,-1005,-11,-53,-70,-1190,140,,,,,,,0x03,
17321,-1002,-13,-56,0,-1330,280,,,,,,,0x03,
17330,-1000,-13,-56,-140,-1400,210,,,,,,,0x03,
17340,-1003,-10,-58,-210,-1120,-280,,,,,,,0x03,
17350,-1001,-12,-58,-350,-910,-560,,,,,,,0x03,
17359,-1001,-13,-59,-490,-910,-630,,,,,,,0x03,
17369,-1003,-12,-58,-420,-1190,-490,,,,,,,0x03,
17379,-1006,-10,-58,-280,-1400,-140,,,,,,,0x03,
17388,-1006,-11,-57,-210,-1400,70,,,,,,,0x03,
17398,-1009,-13,-53,-210,-1330,70,,,,,,,0x03,
17408,-1013,-12,-54,-280,-1050,-70,,,,,,,0x03,
17418,-1012,-11,-53,-490,-700,-140,,,,,,,0x03,
17427,-1011,-10,-51,-560,-490,-140,,,,,,,0x03,
17437,-1011,-9,-51,-350,-350,0,,,,,,,0x03,
17447,-1007,-9,-52,-210,-420,140,,,,,,,0x03,
17456,-1003,-8,-54,-140,-350,70,,,,,,,0x03,
17466,-1002,-7,-54,-140,-140,-70,,,,,,,0x03,
17476,-1000,-7,-55,-140,70,-350,,,,,,,0x03,
17485,-998,-10,-53,0,70,-490,,,,,,,0x03,
17495,-1001,-11,-54,140,-210,-350,,,,,,,0x03,
17505,-1000,-10,-52,140,-490,0,,,,,,,0x03,
17514,-999,-10,-52,210,-630,210,,,,,,,0x03,
17524,-998,-12,-53,210,-560,140,,,,,,,0x03,
17534,-994,-14,-54,70,-350,-70,,,,,,,0x03,
17543,-996,-13,-54,-70,-350,-280,,,,,,,0x03,
17553,-998,-14,-55,-70,-420,-280,,,,,,,0x03,
17563,-997,-13,-55,-210,-560,0,,,,,,,0x03,
17572,-993,-11,-54,-280,-840,210,,,,,,,0x03,
17582,-995,-12,-53,-210,-1120,140,,,,,,,0x03,
17592,-998,-12,-51,-420,-1400,140,,,,,,,0x03,
17601,-1000,-10,-49,-420,-1260,0,,,,,,,0x03,
17611,-999,-8,-49,-420,-1120,0,,,,,,,0x03,
17621,-995,-8,-49,-350,-980,-70,,,,,,,0x03,
17630,-995,-8,-50,-140,-1120,-490,,,,,,,0x03,
17640,-999,-8,-51,-70,-1190,-770,,,,,,,0x03,
17650,-1002,-9,-52,70,-1190,-630,,,,,,,0x03,
17659,-1001,-10,-51,0,-1260,-420,,,,,,,0x03,
17669,-1004,-10,-52,70,-1260,-350,,,,,,,0x03,
17679,-1007,-10,-49,0,-1330,-350,,,,,,,0x03,
17688,-1009,-9,-47,-140,-1190,-350,,,,,,,0x03,
17698,-1008,-9,-47,0,-910,-350,,,,,,,0x03,
17708,-1009,-9,-48,70,-700,-420,,,,,,,0x03,
17717,-1009,-12,-50,280,-630,-350,,,,,,,0x03,
17727,-1008,-12,-54,350,-560,0,,,,,,,0x03,
17737,-1005,-13,-55,140,-630,140,,,,,,,0x03,
17746,-1005,-12,-55,-140,-630,0,,,,,,,0x03,
17756,-1007,-11,-55,-350,-490,-70,,,,,,,0x03,
17766,-1003,-10,-53,-350,-420,70,,,,,,,0x03,
17775,-1003,-8,-52,-280,-420,0,,,,,,,0x03,
17785,-1003,-11,-51,-140,-560,-70,,,,,,,0x03,
17795,-1002,-10,-50,-70,-490,0,,,,,,,0x03,
17804,-1002,-9,-51,-140,-420,-140,,,,,,,0x03,
17814,-1003,-9,-52,-140,-70,-420,,,,,,,0x03,
17824,-998,-8,-54,-280,0,-490,,,,,,,0x03,
17833,-994,-9,-53,-350,-210,-420,,,,,,,0x03,
17843,-993,-11,-52,-140,-630,-420,,,,,,,0x03,
17853,-996,-12,-50,0,-1120,-420,,,,,,,0x03,
17862,-998,-11,-48,140,-1190,-280,,,,,,,0x03,
17872,-995,-10,-50,0,-910,-350,,,,,,,0x03,
17882,-997,-13,-50,-70,-630,-910,,,,,,,0x03,
17891,-1003,-14,-51,-70,-700,-1330,,,,,,,0x03,
17901,-1005,-15,-51,-70,-1050,-910,,,,,,,0x03,
17911,-1003,-14,-50,70,-1330,-420,,,,,,,0x03,
17920,-1005,-13,-51,0,-1470,-280,,,,,,,0x03,
17930,-1006,-13,-51,-70,-1260,-420,,,,,,,0x03,
17940,-1005,-13,-51,-210,-910,-490,,,,,,,0x03,
17949,-1003,-12,-51,-420,-700,-490,,,,,,,0x03,
17959,-1004,-11,-50,-350,-630,-840,,,,,,,0x03,
17969,-1009,-12,-49,-350,-630,-1190,,,,,,,0x03,
17978,-1008,-14,-49,-280,-490,-980,,,,,,,0x03,
17988,-1006,-12,-50,-350,-420,-700,,,,,,,0x03,
17998,-1007,-9,-51,-490,-280,-630,,,,,,,0x03,
18007,-1004,-8,-51,-560,-140,-420,,,,,,,0x03,
18017,-1000,-6,-52,-630,-210,-280,,,,,,,0x03,
18027,-997,-5,-53,-490,-140,-350,,,,,,,0x03,
18036,-1000,-5,-52,-490,-280,-700,,,,,,,0x03,
18046,-1002,-6,-50,-350,-280,-840,,,,,,,0x03,
18056,-1000,-5,-49,-140,-280,-770,,,,,,,0x03,
18065,-999,-5,-49,70,-280,-770,,,,,,,0x03,
18075,-1001,-10,-51,210,-140,-840,,,,,,,0x03,
18085,-1000,-10,-52,140,-350,-700,,,,,,,0x03,
18094,-1001,-10,-50,140,-630,-490,,,,,,,0x03,
18104,-1002,-11,-51,210,-700,-350,,,,,,,0x03,
18114,-1001,-12,-50,140,-630,-140,,,,,,,0x03,
18123,-999,-10,-49,70,-490,-140,,,,,,,0x03,
18133,-998,-10,-52,0,-350,-280,,,,,,,0x03,
18143,-997,-9,-53,0,-140,-420,,,,,,,0x03,
18153,-995,-10,-55,140,-70,-560,,,,,,,0x03,
18162,-996,-12,-59,210,-280,-700,,,,,,,0x03,
18172,-994,-14,-60,280,-700,-630,,,,,,,0x03,
18182,-998,-15,-60,70,-1120,-700,,,,,,,0x03,
18191,-1005,-16,-57,0,-1190,-770,,,,,,,0x03,
18201,-1005,-17,-54,-140,-1050,-560,,,,,,,0x03,
18211,-1006,-14,-53,-280,-840,-630,,,,,,,0x03,
18220,-1007,-11,-55,-210,-560,-840,,,,,,,0x03,
18230,-1006,-9,-55,-210,-420,-980,,,,,,,0x03,
18240,-1008,-11,-54,0,-420,-1190,,,,,,,0x03,
18249,-1009,-13,-54,70,-560,-980,,,,,,,0x03,
18259,-1011,-13,-55,0,-490,-630,,,,,,,0x03,
18269,-1008,-15,-54,-70,-350,-280,,,,,,,0x03,
18278,-1007,-14,-52,-140,-210,-280,,,,,,,0x03,
18288,-1009,-12,-53,-210,-70,-490,,,,,,,0x03,
18298,-1006,-12,-53,-280,140,-700,,,,,,,0x03,
18307,-1003,-12,-54,-210,280,-560,,,,,,,0x03,
18317,-1001,-11,-55,-140,210,-490,,,,,,,0x03,
18327,-1001,-11,-56,-70,210,-420,,,,,,,0x03,
18336,-1000,-13,-55,-140,140,-210,,,,,,,0x03,
18346,-996,-10,-54,-210,0,-70,,,,,,,0x03,
18356,-996,-9,-53,-70,-210,-70,,,,,,,0x03,
18365,-996,-8,-52,-70,-280,-280,,,,,,,0x03,
18375,-993,-6,-52,0,-280,-350,,,,,,,0x03,
18385,-993,-5,-51,70,-210,-350,,,,,,,0x03,
18394,-993,-6,-53,210,-280,-420,,,,,,,0x03,
18404,-992,-7,-54,350,-490,-560,,,,,,,0x03,
18414,-993,-9,-54,350,-700,-630,,,,,,,0x03,
18423,-994,-9,-52,420,-980,-700,,,,,,,0x03,
18433,-998,-9,-53,560,-910,-770,,,,,,,0x03,
18443,-999,-11,-51,560,-980,-910,,,,,,,0x03,
18452,-1001,-13,-52,700,-980,-840,,,,,,,0x03,
18462,-1004,-15,-52,630,-980,-630,,,,,,,0x03,
18472,-1002,-14,-54,560,-910,-350,,,,,,,0x03,
18481,-1002,-12,-54,560,-910,-280,,,,,,,0x03,
18491,-1000,-13,-54,420,-910,-210,,,,,,,0x03,
18501,-999,-13,-55,490,-980,-280,,,,,,,0x03,
18510,-1001,-12,-56,350,-980,-350,,,,,,,0x03,
18520,-1005,-12,-55,280,-910,-350,,,,,,,0x03,
18530,-1005,-16,-56,210,-700,-420,,,,,,,0x03,
18539,-1005,-14,-54,0,-700,-350,,,,,,,0x03,
18549,-1006,-13,-54,210,-630,-350,,,,,,,0x03,
18559,-1006,-16,-54,210,-770,-210,,,,,,,0x03,
18568,-1007,-17,-53,280,-840,0,,,,,,,0x03,
18578,-1007,-16,-53,140,-840,210,,,,,,,0x03,
18588,-1004,-13,-54,0,-560,280,,,,,,,0x03,
18597,-1001,-13,-55,-140,-280,70,,,,,,,0x03,
18607,-1001,-13,-56,-210,-280,-140,,,,,,,0x03,
18617,-1001,-13,-57,-140,-350,-140,,,,,,,0x03,
18626,-999,-12,-55,-140,-630,-140,,,,,,,0x03,
18636,-1000,-10,-51,-70,-700,-280,,,,,,,0x03,
18646,-1003,-9,-51,70,-490,-560,,,,,,,0x03,
18655,-1001,-11,-52,0,-210,-700,,,,,,,0x03,
18665,-1000,-12,-52,0,-140,-700,,,,,,,0x03,
18675,-999,-10,-53,0,-420,-560,,,,,,,0x03,
18684,-999,-9,-52,70,-560,-420,,,,,,,0x03,
18694,-996,-8,-52,140,-560,-280,,,,,,,0x03,
18704,-993,-9,-53,210,-630,-490,,,,,,,0x03,
18713,-994,-11,-52,280,-770,-840,,,,,,,0x03,
18723,-998,-12,-51,140,-980,-770,,,,,,,0x03,
18733,-996,-11,-50,210,-1050,-630,,,,,,,0x03,
18742,-996,-9,-49,490,-1120,-770,,,,,,,0x03,
18752,-1001,-15,-52,700,-1190,-980,,,,,,,0x03,
18762,-1002,-17,-54,840,-1120,-910,,,,,,,0x03,
18771,-1000,-19,-55,630,-1120,-910,,,,,,,0x03,
18781,-1005,-18,-55,350,-1050,-1120,,,,,,,0x03,
18791,-1008,-20,-55,70,-840,-1050,,,,,,,0x03,
18800,-1007,-17,-56,-280,-770,-700,,,,,,,0x03,
18810,-1005,-14,-56,-420,-980,-210,,,,,,,0x03,
18820,-1008,-11,-52,-490,-1120,70,,,,,,,0x03,
18829,-1007,-11,-52,-350,-1050,210,,,,,,,0x03,
18839,-1005,-12,-50,-280,-980,210,,,,,,,0x03,
18849,-1008,-11,-50,-350,-700,-70,,,,,,,0x03,
18858,-1007,-11,-50,-420,-350,-210,,,,,,,0x03,
18868,-1005,-9,-50,-630,-140,-210,,,,,,,0x03,
18878,-1004,-7,-51,-420,-70,-210,,,,,,,0x03,
18888,-1001,-5,-52,-280,-210,0,,,,,,,0x03,
18897,-999,-4,-53,0,-350,70,,,,,,,0x03,
18907,-997,-5,-53,140,-490,-70,,,,,,,0x03,
18917,-999,-8,-53,140,-490,-280,,,,,,,0x03,
18926,-998,-8,-52,280,-350,-350,,,,,,,0x03,
18936,-999,-10,-53,280,-280,-560,,,,,,,0x03,
18946,-1002,-14,-52,420,-280,-840,,,,,,,0x03,
18955,-1006,-15,-52,280,-420,-700,,,,,,,0x03,
18965,-1001,-17,-53,70,-490,-420,,,,,,,0x03,
18975,-999,-15,-53,0,-560,-350,,,,,,,0x03,
18984,-1001,-14,-53,-140,-630,-350,,,,,,,0x03,
18994,-1003,-15,-55,-140,-630,-140,,,,,,,0x03,
19004,-998,-13,-57,-70,-700,280,,,,,,,0x03,
19013,-996,-11,-57,-140,-840,210,,,,,,,0x03,
19023,-998,-12,-56,-70,-910,-70,,,,,,,0x03,
19033,-999,-10,-56,-70,-910,-210,,,,,,,0x03,
19042,-999,-11,-56,-70,-840,-420,,,,,,,0x03,
19052,-1003,-11,-55,-70,-840,-630,,,,,,,0x03,
19062,-1005,-11,-54,-70,-910,-700,,,,,,,0x03,
19071,-1008,-11,-54,70,-910,-700,,,,,,,0x03,
19081,-1007,-12,-56,140,-910,-560,,,,,,,0x03,
19091,-1007,-12,-57,280,-840,-630,,,,,,,0x03,
19100,-1009,-10,-57,70,-630,-700,,,,,,,0x03,
19110,-1009,-9,-55,0,-350,-910,,,,,,,0x03,
19120,-1006,-9,-55,140,-70,-910,,,,,,,0x03,
19129,-1005,-8,-56,140,-70,-840,,,,,,,0x03,
19139,-1008,-10,-53,350,-350,-700,,,,,,,0x03,
19149,-1012,-9,-53,420,-490,-560,,,,,,,0x03,
19158,-1009,-8,-53,490,-280,-420,,,,,,,0x03,
19168,-1007,-10,-54,490,140,-420,,,,,,,0x03,
19178,-1004,-11,-56,420,280,-490,,,,,,,0x03,
19187,-1004,-11,-57,350,210,-420,,,,,,,0x03,
19197,-1001,-12,-56,350,0,-70,,,,,,,0x03,
19207,-998,-10,-55,420,-70,-70,,,,,,,0x03,
19216,-999,-11,-54,490,-140,-280,,,,,,,0x03,
19226,-997,-9,-54,420,-70,-420,,,,,,,0x03,
19236,-995,-10,-54,490,70,-700,,,,,,,0x03,
19245,-995,-9,-54,420,70,-770,,,,,,,0x03,
19255,-993,-9,-56,490,0,-840,,,,,,,0x03,
19265,-995,-9,-55,630,-280,-840,,,,,,,0x03,
19274,-997,-10,-54,630,-560,-630,,,,,,,0x03,
19284,-997,-11,-53,700,-630,-560,,,,,,,0x03,
19294,-998,-10,-53,630,-700,-630,,,,,,,0x03,
19303,-999,-9,-53,770,-560,-840,,,,,,,0x03,
19313,-998,-11,-55,770,-490,-840,,,,,,,0x03,
19323,-997,-13,-57,770,-630,-910,,,,,,,0x03,
19332,-1002,-13,-57,770,-770,-1050,,,,,,,0x03,
19342,-1006,-14,-58,700,-770,-910,,,,,,,0x03,
19352,-1004,-16,-59,630,-770,-700,,,,,,,0x03,
19361,-1004,-14,-57,560,-630,-560,,,,,,,0x03,
19371,-1007,-14,-55,630,-700,-630,,,,,,,0x03,
19381,-1009,-15,-55,630,-630,-560,,,,,,,0x03,
19390,-1006,-13,-54,560,-420,-420,,,,,,,0x03,
19400,-1006,-12,-55,490,-210,-350,,,,,,,0x03,
19410,-1003,-12,-57,490,-140,-490,,,,,,,0x03,
19419,-1003,-13,-56,490,-280,-420,,,,,,,0x03,
19429,-1006,-11,-55,490,-350,-350,,,,,,,0x03,
19439,-1005,-10,-56,560,-210,-350,,,,,,,0x03,
19448,-1000,-11,-55,630,0,-350,,,,,,,0x03,
19458,-998,-11,-57,630,0,-560,,,,,,,0x03,
19468,-1000,-10,-57,630,-140,-630,,,,,,,0x03,
19477,-999,-10,-55,700,-210,-560,,,,,,,0x03,
19487,-1000,-11,-58,910,-280,-420,,,,,,,0x03,
19497,-1001,-16,-62,1050,-210,-280,,,,,,,0x03,
19506,-1002,-23,-64,840,-420,-140,,,,,,,0x03,
19516,-1006,-25,-64,560,-560,140,,,,,,,0x03,
19526,-1007,-28,-62,350,-490,280,,,,,,,0x03,
19535,-1009,-32,-63,140,-210,280,,,,,,,0x03,
19545,-1008,-33,-64,-140,0,350,,,,,,,0x03,
19555,-1008,-30,-62,-770,210,560,,,,,,,0x03,
19564,-1002,-25,-61,-1190,420,840,,,,,,,0x03,
19574,-996,-19,-62,-1540,490,910,,,,,,,0x03,
19584,-993,-15,-62,-1680,350,910,,,,,,,0x03,
19593,-989,-10,-59,-1680,0,840,,,,,,,0x03,
19603,-989,-6,-54,-1680,-490,700,,,,,,,0x03,
19613,-992,-2,-50,-1400,-700,490,,,,,,,0x03,
19623,-993,0,-47,-1120,-700,140,,,,,,,0x03,
19632,-992,-2,-47,-630,-700,-280,,,,,,,0x03,
19642,-995,-2,-47,-140,-630,-840,,,,,,,0x03,
19652,-998,-5,-49,280,-840,-1120,,,,,,,0x03,
19661,-1001,-8,-50,630,-980,-1190,,,,,,,0x03,
19671,-1004,-12,-52,700,-1050,-1190,,,,,,,0x03,
19681,-1006,-15,-53,630,-840,-1190,,,,,,,0x03,
19690,-1007,-15,-54,490,-630,-1120,,,,,,,0x03,
19700,-1005,-12,-54,280,-630,-980,,,,,,,0x03,
19710,-1004,-9,-55,140,-420,-980,,,,,,,0x03,
19719,-1003,-8,-55,210,-420,-910,,,,,,,0x03,
19729,-1003,-9,-55,350,-350,-700,,,,,,,0x03,
19739,-1002,-6,-53,350,-420,-490,,,,,,,0x03,
19748,-1001,-4,-53,350,-350,-560,,,,,,,0x03,
19758,-999,-3,-52,420,0,-700,,,,,,,0x03,
19768,-999,-3,-54,560,0,-840,,,,,,,0x03,
19777,-1001,-3,-54,770,-70,-840,,,,,,,0x03,
19787,-1000,-5,-56,910,-210,-350,,,,,,,0x03,
19797,-998,-9,-59,1120,-490,-70,,,,,,,0x03,
19806,-1001,-11,-60,1190,-700,-210,,,,,,,0x03,
19816,-1005,-15,-60,1190,-630,-490,,,,,,,0x03,
19826,-1007,-19,-60,1190,-350,-700,,,,,,,0x03,
19835,-1010,-24,-61,980,0,-630,,,,,,,0x03,
19845,-1011,-27,-62,770,140,-350,,,,,,,0x03,
19855,-1011,-31,-63,560,70,140,,,,,,,0x03,
19864,-1013,-37,-66,420,-70,560,,,,,,,0x03,
19874,-1012,-41,-68,140,0,980,,,,,,,0x03,
19884,-1010,-41,-71,-560,210,1190,,,,,,,0x03,
19893,-1009,-39,-74,-1400,490,1330,,,,,,,0x03,
19903,-1004,-33,-72,-2240,630,1470,,,,,,,0x03,
19913,-998,-26,-68,-2660,490,1470,,,,,,,0x03,
19922,-998,-19,-65,-2800,350,1330,,,,,,,0x03,
19932,-998,-15,-61,-2870,70,1260,,,,,,,0x03,
19942,-997,-8,-60,-2870,0,1540,,,,,,,0x03,
19951,-996,-2,-55,-2800,0,1400,,,,,,,0x03,
19961,-997,0,-51,-2520,0,910,,,,,,,0x03,
19971,-1000,0,-52,-2030,0,490,,,,,,,0x03,
19980,-1003,0,-52,-1750,70,350,,,,,,,0x03,
19990,-1000,2,-51,-1540,140,140,,,,,,,0x03,
20000,-998,5,-49,-1400,350,-350,,,,,,,0x03,
20009,-999,7,-50,-1120,560,-980,,,,,,,0x03,
20019,-996,9,-47,-630,700,-1330,,,,,,,0x03,
20029,-995,6,-52,-210,700,-1260,,,,,,,0x03,
20038,-996,8,-49,140,210,-770,,,,,,,0x03,
20048,-998,9,-52,630,210,-980,,,,,,,0x03,
20058,-995,9,-49,1190,140,-840,,,,,,,0x03,
20067,-994,7,-52,1610,280,-1330,,,,,,,0x03,
20077,-995,3,-53,1750,350,-1680,,,,,,,0x03,
20087,-998,4,-53,1820,210,-1540,,,,,,,0x03,
20096,-994,5,-54,1960,70,-1330,,,,,,,0x03,
20106,-991,6,-57,2170,70,-1260,,,,,,,0x03,
20116,-989,7,-59,2310,0,-1190,,,,,,,0x03,
20125,-989,7,-59,2520,-210,-1190,,,,,,,0x03,
20135,-989,3,-61,2940,-490,-980,,,,,,,0x03,
20145,-990,0,-61,3220,-840,-770,,,,,,,0x03,
20154,-994,-5,-64,3640,-1050,-700,,,,,,,0x03,
20164,-996,-11,-66,3710,-1190,-700,,,,,,,0x03,
20174,-999,-17,-69,3570,-1190,-840,,,,,,,0x03,
20183,-1001,-24,-71,3290,-980,-770,,,,,,,0x03,
20193,-1001,-25,-71,2660,-910,-560,,,,,,,0x03,
20203,-1001,-24,-68,2310,-1120,-490,,,,,,,0x03,
20212,-1009,-22,-66,1960,-1120,-350,,,,,,,0x03,
20222,-1012,-24,-64,1820,-1190,210,,,,,,,0x03,
20232,-1011,-23,-63,1890,-1260,840,,,,,,,0x03,
20241,-1009,-23,-65,1750,-1400,1190,,,,,,,0x03,
20251,-1010,-22,-65,1540,-1190,1050,,,,,,,0x03,
20261,-1008,-21,-63,1050,-840,700,,,,,,,0x03,
20270,-1004,-21,-64,700,-560,490,,,,,,,0x03,
20280,-1003,-19,-63,560,-490,350,,,,,,,0x03,
20290,-1003,-16,-61,420,-630,350,,,,,,,0x03,
20299,-1001,-15,-61,630,-770,350,,,,,,,0x03,
20309,-1000,-18,-60,840,-840,210,,,,,,,0x03,
20319,-1003,-20,-59,770,-770,-70,,,,,,,0x03,
20328,-1002,-20,-61,560,-560,-210,,,,,,,0x03,
20338,-1000,-22,-61,350,-350,-490,,,,,,,0x03,
20348,-1001,-22,-63,140,-210,-910,,,,,,,0x03,
20358,-999,-23,-63,-70,-280,-840,,,,,,,0x03,
20367,-995,-22,-63,-70,-420,-840,,,,,,,0x03,
20377,-998,-19,-61,-210,-770,-770,,,,,,,0x03,
20387,-997,-17,-61,-210,-770,-840,,,,,,,0x03,
20396,-992,-16,-60,-420,-560,-980,,,,,,,0x03,
20406,-991,-14,-59,-770,-420,-1120,,,,,,,0x03,
20416,-992,-11,-59,-770,-490,-1330,,,,,,,0x03,
20425,-990,-10,-60,-700,-700,-1330,,,,,,,0x03,
20435,-988,-10,-60,-490,-980,-1190,,,,,,,0x03,
20445,-991,-11,-60,-350,-1330,-1120,,,,,,,0x03,
20454,-990,-12,-58,-350,-1680,-1120,,,,,,,0x03,
20464,-995,-11,-57,-210,-1820,-1120,,,,,,,0x03,
20474,-995,-11,-57,-350,-1890,-1120,,,,,,,0x03,
20483,-998,-10,-56,-350,-1890,-1260,,,,,,,0x03,
20493,-1003,-11,-56,-350,-1820,-1400,,,,,,,0x03,
20503,-1007,-13,-58,-280,-1820,-1260,,,,,,,0x03,
20512,-1008,-13,-59,-280,-1820,-840,,,,,,,0x03,
20522,-1006,-12,-58,-420,-1750,-420,,,,,,,0x03,
20532,-1008,-11,-58,-420,-1540,-560,,,,,,,0x03,
20541,-1009,-12,-60,-350,-1330,-840,,,,,,,0x03,
20551,-1010,-14,-61,-420,-1050,-980,,,,,,,0x03,
20561,-1012,-15,-61,-420,-770,-770,,,,,,,0x03,
20570,-1010,-13,-61,-700,-700,-420,,,,,,,0x03,
20580,-1004,-13,-62,-700,-630,-280,,,,,,,0x03,
20590,-1003,-12,-62,-840,-560,-350,,,,,,,0x03,
20599,-1001,-10,-63,-910,-560,-280,,,,,,,0x03,
20609,-997,-8,-62,-840,-560,-210,,,,,,,0x03,
20619,-996,-9,-61,-770,-770,-70,,,,,,,0x03,
20628,-995,-8,-62,-490,-910,140,,,,,,,0x03,
20638,-991,-7,-61,-420,-1120,210,,,,,,,0x03,
20648,-989,-7,-61,-420,-1120,-210,,,,,,,0x03,
20657,-992,-8,-61,-350,-1120,-840,,,,,,,0x03,
20667,-993,-10,-59,-280,-1330,-910,,,,,,,0x03,
20677,-995,-9,-57,-70,-1680,-770,,,,,,,0x03,
20686,-995,-7,-56,0,-1890,-560,,,,,,,0x03,
20696,-991,-6,-59,140,-1610,-560,,,,,,,0x03,
20706,-989,-8,-62,140,-1610,-770,,,,,,,0x03,
20715,-988,-6,-62,210,-1750,-980,,,,,,,0x03,
20725,-990,-7,-65,490,-1960,-1120,,,,,,,0x03,
20735,-988,-9,-69,770,-2240,-1260,,,,,,,0x03,
20744,-991,-10,-70,980,-2520,-1330,,,,,,,0x03,
20754,-1002,-12,-70,1190,-3080,-840,,,,,,,0x03,
20764,-1004,-15,-70,910,-3360,-350,,,,,,,0x03,
20773,-1004,-14,-70,420,-3080,-630,,,,,,,0x03,
20783,-1008,-11,-65,-210,-2660,-1260,,,,,,,0x03,
20793,-1013,-7,-60,-420,-2240,-1470,,,,,,,0x03,
20802,-1014,-5,-57,-210,-2030,-1120,,,,,,,0x03,
20812,-1015,-6,-53,70,-2240,-560,,,,,,,0x03,
20822,-1017,-5,-52,490,-2240,-70,,,,,,,0x03,
20831,-1014,-6,-52,490,-2030,210,,,,,,,0x03,
20841,-1014,-5,-52,490,-1680,70,,,,,,,0x03,
20851,-1013,-3,-52,420,-1330,0,,,,,,,0x03,
20860,-1010,-3,-53,560,-1120,-70,,,,,,,0x03,
20870,-1009,-6,-54,910,-1050,-70,,,,,,,0x03,
20880,-1009,-7,-54,980,-1050,-70,,,,,,,0x03,
20889,-1009,-9,-53,1050,-840,-210,,,,,,,0x03,
20899,-1008,-11,-50,980,-560,-350,,,,,,,0x03,
20909,-1009,-12,-50,980,-280,-490,,,,,,,0x03,
20918,-1006,-13,-49,1190,-210,-420,,,,,,,0x03,
20928,-1005,-17,-50,1330,-350,-70,,,,,,,0x03,
20938,-1002,-16,-52,1260,-420,350,,,,,,,0x03,
20947,-999,-15,-52,980,-560,560,,,,,,,0x03,
20957,-996,-13,-52,770,-420,350,,,,,,,0x03,
20967,-998,-15,-52,700,-280,-70,,,,,,,0x03,
20976,-998,-14,-51,560,-350,-140,,,,,,,0x03,
20986,-997,-13,-49,630,-630,140,,,,,,,0x03,
20996,-996,-12,-45,700,-840,140,,,,,,,0x03,
21005,-1002,-12,-44,840,-840,-140,,,,,,,0x03,
21015,-1003,-16,-44,840,-630,0,,,,,,,0x03,
21025,-1000,-17,-43,700,-420,210,,,,,,,0x03,
21034,-999,-19,-44,700,-420,280,,,,,,,0x03,
21044,-997,-20,-45,700,-490,210,,,,,,,0x03,
21054,-994,-23,-48,770,-560,140,,,,,,,0x03,
21063,-994,-27,-51,700,-700,70,,,,,,,0x03,
21073,-993,-27,-55,420,-840,70,,,,,,,0x03,
21083,-995,-24,-54,70,-1050,70,,,,,,,0x03,
21093,-993,-20,-54,-140,-1050,-210,,,,,,,0x03,
21102,-993,-22,-54,-210,-1120,-490,,,,,,,0x03,
21112,-996,-20,-56,-210,-1330,-700,,,,,,,0x03,
21122,-997,-18,-57,-210,-1540,-770,,,,,,,0x03,
21131,-997,-19,-56,-140,-1750,-910,,,,,,,0x03,
21141,-1003,-19,-57,-210,-1890,-770,,,,,,,0x03,
21151,-1006,-16,-55,-140,-2030,-420,,,,,,,0x03,
21160,-1005,-14,-53,-350,-1820,-700,,,,,,,0x03,
21170,-1005,-13,-53,-560,-1470,-1400,,,,,,,0x03,
21180,-1007,-13,-53,-630,-1190,-1820,,,,,,,0x03,
21189,-1010,-13,-53,-630,-1260,-1750,,,,,,,0x03,
21199,-1011,-13,-49,-560,-1540,-1400,,,,,,,0x03,
21209,-1014,-15,-46,-490,-1680,-1190,,,,,,,0x03,
21218,-1015,-12,-44,-490,-1400,-980,,,,,,,0x03,
21228,-1013,-11,-43,-560,-910,-840,,,,,,,0x03,
21238,-1011,-9,-43,-490,-490,-1050,,,,,,,0x03,
21247,-1012,-11,-47,-210,-280,-1190,,,,,,,0x03,
21257,-1007,-14,-52,-140,-210,-840,,,,,,,0x03,
21267,-1003,-14,-52,-140,-280,-630,,,,,,,0x03,
21276,-1005,-16,-52,-210,-350,-840,,,,,,,0x03,
21286,-1008,-18,-51,-420,-140,-910,,,,,,,0x03,
21296,-1003,-18,-51,-490,0,-700,,,,,,,0x03,
21305,-999,-18,-52,-560,-140,-560,,,,,,,0x03,
21315,-999,-17,-53,-420,-350,-700,,,,,,,0x03,
21325,-1002,-20,-54,-490,-560,-770,,,,,,,0x03,
21334,-1002,-19,-53,-490,-630,-560,,,,,,,0x03,
21344,-1002,-17,-54,-490,-560,-560,,,,,,,0x03,
21354,-1002,-17,-55,-630,-280,-770,,,,,,,0x03,
21363,-1003,-18,-56,-700,-70,-840,,,,,,,0x03,
21373,-1004,-17,-57,-980,-140,-840,,,,,,,0x03,
21383,-1004,-14,-54,-1120,-210,-770,,,,,,,0x03,
21392,-1005,-11,-52,-1260,-210,-770,,,,,,,0x03,
21402,-1008,-10,-50,-1190,-210,-980,,,,,,,0x03,
21412,-1011,-10,-51,-1120,0,-840,,,,,,,0x03,
21421,-1011,-7,-48,-980,0,-420,,,,,,,0x03,
21431,-1011,-6,-47,-770,0,-140,,,,,,,0x03,
21441,-1010,-5,-46,-560,70,0,,,,,,,0x03,
21450,-1009,-4,-46,-420,350,-140,,,,,,,0x03,
21460,-1007,-5,-45,-280,700,-280,,,,,,,0x03,
21470,-1005,-5,-47,-210,980,-420,,,,,,,0x03,
