#Format version: 1.0
time[ms],accX[mg],accY[mg],accZ[mg],gyroX[mdps],gyroY[mdps],gyroZ[mdps],magnX[mG],magnY[mG],magnZ[mG],press[hPa],temp[°C],hum[0,-803,706,5,-26110,-17640,4130,,,,,,,0x03,
10,-775,571,-3,-29470,-17780,4340,,,,,,,0x03,
19,-758,499,12,-23240,-17360,5880,,,,,,,0x03,
29,-759,486,34,-13790,-15960,7700,,,,,,,0x03,
39,-791,524,38,-5250,-14280,10920,,,,,,,0x03,
48,-802,596,50,-2310,-12880,13370,,,,,,,0x03,
58,-786,649,62,-2660,-11060,15400,,,,,,,0x03,
67,-792,643,51,-5040,-9800,17850,,,,,,,0x03,
77,-801,624,57,-7420,-9870,18270,,,,,,,0x03,
87,-794,646,49,-4480,-10990,17500,,,,,,,0x03,
96,-789,659,26,-3010,-11340,19110,,,,,,,0x03,
106,-777,625,3,-3710,-11550,20860,,,,,,,0x03,
116,-800,597,-1,-1820,-11340,21630,,,,,,,0x03,
125,-834,580,6,840,-11270,22120,,,,,,,0x03,
135,-845,617,0,5530,-12250,22960,,,,,,,0x03,
145,-846,621,-8,7280,-13020,24850,,,,,,,0x03,
154,-839,591,-10,6370,-13650,25270,,,,,,,0x03,
164,-818,569,-14,5600,-14980,23520,,,,,,,0x03,
173,-808,556,-4,5530,-15610,21350,,,,,,,0x03,
183,-811,558,-6,4900,-16730,19600,,,,,,,0x03,
193,-806,573,-5,2170,-17850,18480,,,,,,,0x03,
202,-790,564,-8,-3150,-18200,18130,,,,,,,0x03,
212,-747,528,-23,-7210,-18480,17710,,,,,,,0x03,
222,-733,495,-38,-8260,-19320,17360,,,,,,,0x03,
231,-764,471,-41,-10290,-22400,17080,,,,,,,0x03,
241,-776,476,-41,-16100,-27720,15050,,,,,,,0x03,
251,-717,504,-43,-17780,-28910,12110,,,,,,,0x03,
260,-661,541,-20,-18340,-25900,11760,,,,,,,0x03,
270,-638,605,8,-20580,-23730,12320,,,,,,,0x03,
280,-659,676,47,-23730,-22890,12110,,,,,,,0x03,
289,-715,781,58,-25060,-24010,11970,,,,,,,0x03,
299,-754,848,59,-27510,-25270,12950,,,,,,,0x03,
308,-752,846,84,-30660,-26180,12810,,,,,,,0x03,
318,-749,833,78,-25900,-28350,12320,,,,,,,0x03,
328,-735,783,71,-19460,-29120,12950,,,,,,,0x03,
337,-682,694,79,-14560,-28700,11760,,,,,,,0x03,
347,-654,644,91,-6230,-28000,10150,,,,,,,0x03,
357,-672,659,103,1260,-27300,9030,,,,,,,0x03,
366,-691,693,111,3850,-26740,7980,,,,,,,0x03,
376,-689,699,118,2030,-25900,7070,,,,,,,0x03,
386,-658,692,112,-210,-24990,5950,,,,,,,0x03,
395,-637,696,119,-1820,-23660,5320,,,,,,,0x03,
405,-644,707,134,-4970,-21980,4970,,,,,,,0x03,
414,-665,716,153,-8680,-20510,4970,,,,,,,0x03,
424,-681,718,167,-12250,-19180,4830,,,,,,,0x03,
434,-670,697,167,-13020,-17990,5320,,,,,,,0x03,
443,-668,687,165,-10220,-17290,6160,,,,,,,0x03,
453,-724,728,169,-5320,-17850,6160,,,,,,,0x03,
463,-801,791,169,-2100,-19110,5110,,,,,,,0x03,
472,-793,765,166,-5600,-18340,3990,,,,,,,0x03,
482,-714,684,163,-9450,-16660,2520,,,,,,,0x03,
492,-662,630,159,-7420,-15680,1750,,,,,,,0x03,
501,-664,643,161,-3850,-15750,2030,,,,,,,0x03,
511,-691,689,159,-5950,-16170,2940,,,,,,,0x03,
520,-699,725,154,-13020,-16100,3010,,,,,,,0x03,
530,-719,735,159,-23310,-18340,1680,,,,,,,0x03,
540,-743,714,150,-36330,-24500,-700,,,,,,,0x03,
549,-724,693,157,-43680,-26460,-3500,,,,,,,0x03,
559,-712,697,181,-43400,-23240,-4690,,,,,,,0x03,
569,-707,681,205,-40390,-19810,-5320,,,,,,,0x03,
578,-684,642,225,-34930,-16520,-5600,,,,,,,0x03,
588,-668,596,237,-25620,-13440,-5740,,,,,,,0x03,
598,-671,582,239,-13510,-10710,-5390,,,,,,,0x03,
607,-692,618,235,-2870,-8190,-4830,,,,,,,0x03,
617,-714,666,228,2380,-6440,-4830,,,,,,,0x03,
627,-712,723,223,1540,-4760,-5460,,,,,,,0x03,
636,-699,778,224,-4760,-3220,-6790,,,,,,,0x03,
646,-695,793,238,-14630,-2870,-8820,,,,,,,0x03,
655,-693,758,250,-25270,-3920,-10710,,,,,,,0x03,
665,-664,698,238,-30240,-4480,-12320,,,,,,,0x03,
675,-641,620,232,-26880,-3080,-12530,,,,,,,0x03,
684,-641,559,224,-16660,-1750,-12040,,,,,,,0x03,
694,-659,526,224,-2030,-840,-11410,,,,,,,0x03,
704,-683,551,227,13790,-280,-10500,,,,,,,0x03,
713,-703,627,231,27300,-70,-9380,,,,,,,0x03,
723,-696,695,201,34510,-630,-7350,,,,,,,0x03,
733,-677,735,191,32410,-420,-5460,,,,,,,0x03,
742,-667,812,207,25410,630,-5180,,,,,,,0x03,
752,-656,859,212,17780,840,-6020,,,,,,,0x03,
761,-645,815,200,5670,630,-6020,,,,,,,0x03,
771,-642,762,207,-7070,1120,-6510,,,,,,,0x03,
781,-683,715,227,-12320,2520,-7770,,,,,,,0x03,
790,-703,635,232,-12250,3850,-7840,,,,,,,0x03,
800,-697,580,234,-8120,5320,-7280,,,,,,,0x03,
810,-696,571,246,-350,7070,-6440,,,,,,,0x03,
819,-706,595,254,8680,8400,-5530,,,,,,,0x03,
829,-720,635,223,17640,7840,-5040,,,,,,,0x03,
839,-719,675,185,22190,7630,-5110,,,,,,,0x03,
848,-718,664,173,20090,8470,-5320,,,,,,,0x03,
858,-737,631,168,18200,9100,-6300,,,,,,,0x03,
867,-763,634,178,20580,8890,-7980,,,,,,,0x03,
877,-765,650,185,22540,8400,-9030,,,,,,,0x03,
887,-752,663,194,21560,8820,-8820,,,,,,,0x03,
896,-738,665,204,20580,9240,-8680,,,,,,,0x03,
906,-725,647,202,21280,9310,-8400,,,,,,,0x03,
916,-720,624,192,22050,8890,-7770,,,,,,,0x03,
925,-732,617,163,25130,7770,-8260,,,,,,,0x03,
935,-748,621,142,27510,7350,-8610,,,,,,,0x03,
945,-749,616,143,27370,7630,-8470,,,,,,,0x03,
954,-756,630,134,28280,7980,-8680,,,,,,,0x03,
964,-753,635,117,27790,7420,-8610,,,,,,,0x03,
974,-741,626,109,23590,6650,-7560,,,,,,,0x03,
983,-741,629,111,18410,6160,-7070,,,,,,,0x03,
993,-743,668,121,13300,5810,-7490,,,,,,,0x03,
1002,-730,710,137,8330,5460,-8330,,,,,,,0x03,
1012,-703,705,137,2940,5250,-7770,,,,,,,0x03,
1022,-692,643,116,-420,4900,-6300,,,,,,,0x03,
1031,-706,586,100,770,4760,-5880,,,,,,,0x03,
1041,-739,602,103,4970,4410,-7000,,,,,,,0x03,
1051,-754,667,111,8470,3780,-7560,,,,,,,0x03,
1060,-739,693,105,7770,3430,-5950,,,,,,,0x03,
1070,-718,655,103,3570,3640,-4340,,,,,,,0x03,
1080,-707,610,108,1050,3640,-4270,,,,,,,0x03,
1089,-725,594,125,-560,1890,-4480,,,,,,,0x03,
1099,-741,602,137,-6230,-3920,-4410,,,,,,,0x03,
1108,-737,607,147,-13790,-10150,-4410,,,,,,,0x03,
1118,-718,627,132,-21070,-13930,-3360,,,,,,,0x03,
1128,-704,666,111,-28910,-10780,-1260,,,,,,,0x03,
1137,-718,699,130,-42770,-5740,630,,,,,,,0x03,
1147,-724,753,139,-51940,-1890,-910,,,,,,,0x03,
1157,-724,753,157,-55720,1120,-770,,,,,,,0x03,
1166,-709,648,163,-59430,2800,840,,,,,,,0x03,
1176,-686,520,164,-54390,4060,-140,,,,,,,0x03,
1186,-695,428,158,-36050,5040,-1680,,,,,,,0x03,
1195,-732,412,158,-10990,6090,-2030,,,,,,,0x03,
1205,-769,505,169,15190,7350,-2240,,,,,,,0x03,
1214,-790,639,181,36960,8050,-2100,,,,,,,0x03,
1224,-779,727,190,48020,8960,-910,,,,,,,0x03,
1234,-741,756,186,49420,10220,-980,,,,,,,0x03,
1243,-715,765,179,46410,10360,-2170,,,,,,,0x03,
1253,-708,762,150,39550,9800,-2520,,,,,,,0x03,
1263,-725,747,119,32830,8820,-2590,,,,,,,0x03,
1272,-748,725,119,24150,7910,-2100,,,,,,,0x03,
1282,-759,691,107,13090,6090,-1890,,,,,,,0x03,
1292,-776,718,87,6790,5530,-2520,,,,,,,0x03,
1301,-775,707,100,-1680,5880,-1610,,,,,,,0x03,
1311,-769,689,107,-7420,5250,-1190,,,,,,,0x03,
1321,-755,667,86,-6440,3920,-1120,,,,,,,0x03,
1330,-726,599,84,-6580,3710,0,,,,,,,0x03,
1340,-718,539,86,-1680,3920,210,,,,,,,0x03,
1349,-736,532,91,8960,3640,0,,,,,,,0x03,
1359,-743,578,98,17500,3780,630,,,,,,,0x03,
1369,-741,639,124,20440,4340,1470,,,,,,,0x03,
1378,-755,655,159,12600,2310,2590,,,,,,,0x03,
1388,-734,661,126,910,-3150,2240,,,,,,,0x03,
1398,-711,649,129,-8120,-4690,2520,,,,,,,0x03,
1407,-725,585,224,-24150,-7490,3920,,,,,,,0x03,
1417,-702,602,99,-38150,-9870,4760,,,,,,,0x03,
1427,-715,657,59,-37310,-4690,7700,,,,,,,0x03,
1436,-737,701,76,-38570,-1400,10360,,,,,,,0x03,
1446,-758,733,87,-41860,-70,11690,,,,,,,0x03,
1455,-761,693,96,-48510,-70,12040,,,,,,,0x03,
1465,-759,615,104,-55160,140,10780,,,,,,,0x03,
1475,-766,601,120,-53270,630,7910,,,,,,,0x03,
1484,-773,639,150,-44800,560,5600,,,,,,,0x03,
1494,-753,624,170,-37730,560,5600,,,,,,,0x03,
1504,-731,569,175,-30100,1120,5460,,,,,,,0x03,
1513,-730,532,185,-17430,1260,3430,,,,,,,0x03,
1523,-732,571,189,-490,1260,1610,,,,,,,0x03,
1533,-729,622,195,13300,1120,1750,,,,,,,0x03,
1542,-719,627,190,18970,770,2660,,,,,,,0x03,
1552,-711,646,175,21910,1050,2730,,,,,,,0x03,
1561,-726,657,175,22470,1470,2660,,,,,,,0x03,
1571,-746,648,162,19250,1890,2450,,,,,,,0x03,
1581,-757,665,148,16170,1960,1470,,,,,,,0x03,
1590,-759,680,145,11970,2100,1050,,,,,,,0x03,
1600,-754,679,151,6650,2450,910,,,,,,,0x03,
1610,-746,678,160,2450,2870,420,,,,,,,0x03,
1619,-743,672,160,140,3150,-210,,,,,,,0x03,
1629,-736,654,164,-560,3500,-630,,,,,,,0x03,
1639,-734,660,169,1120,3430,-1400,,,,,,,0x03,
1648,-735,686,156,6300,2730,-2520,,,,,,,0x03,
1658,-745,689,117,11690,2380,-2800,,,,,,,0x03,
1667,-738,653,94,15610,2170,-2730,,,,,,,0x03,
1677,-730,627,105,18900,2100,-2870,,,,,,,0x03,
1687,-731,627,145,19530,1540,-2940,,,,,,,0x03,
1696,-728,646,149,15260,490,-2380,,,,,,,0x03,
1706,-715,660,142,9450,140,-1260,,,,,,,0x03,
1716,-703,664,146,4970,210,-350,,,,,,,0x03,
1725,-700,666,146,2100,560,210,,,,,,,0x03,
1735,-708,685,139,140,1050,420,,,,,,,0x03,
1745,-719,687,135,-2730,1470,490,,,,,,,0x03,
1754,-728,675,130,-5740,1890,280,,,,,,,0x03,
1764,-737,650,128,-6580,2170,-280,,,,,,,0x03,
1774,-746,623,125,-5530,1960,-700,,,,,,,0x03,
1783,-753,614,118,-1610,1470,-980,,,,,,,0x03,
1793,-752,640,114,3920,1820,-1120,,,,,,,0x03,
1802,-738,657,122,7280,2660,-1120,,,,,,,0x03,
1812,-723,659,129,9170,3920,-910,,,,,,,0x03,
1822,-716,639,130,10640,4900,-700,,,,,,,0x03,
1831,-716,616,130,11200,5460,-350,,,,,,,0x03,
1841,-732,611,132,12110,5180,-420,,,,,,,0x03,
1851,-747,625,127,13020,4480,-560,,,,,,,0x03,
1860,-753,640,124,12250,4270,-350,,,,,,,0x03,
1870,-751,654,126,9730,4480,-210,,,,,,,0x03,
1880,-745,668,130,6930,4760,-350,,,,,,,0x03,
1889,-734,680,132,4620,4970,-700,,,,,,,0x03,
1899,-731,672,131,3080,5180,-770,,,,,,,0x03,
1908,-735,636,117,3360,4480,-1120,,,,,,,0x03,
1918,-741,607,107,6020,3780,-1540,,,,,,,0x03,
1928,-742,603,109,10710,3990,-1820,,,,,,,0x03,
1937,-741,629,112,15890,4480,-1610,,,,,,,0x03,
1947,-736,665,114,18970,4760,-1190,,,,,,,0x03,
1957,-727,682,112,17570,4760,-490,,,,,,,0x03,
1966,-726,677,106,13790,4620,-140,,,,,,,0x03,
1976,-738,668,97,10150,4060,-70,,,,,,,0x03,
1986,-744,670,95,6860,3430,-280,,,,,,,0x03,
1995,-740,677,92,4060,2800,-210,,,,,,,0x03,
2005,-736,692,94,980,2450,140,,,,,,,0x03,
2014,-725,696,95,-2590,2240,210,,,,,,,0x03,
2024,-716,691,95,-5530,2030,420,,,,,,,0x03,
2034,-719,655,93,-7140,1680,490,,,,,,,0x03,
2043,-725,609,87,-6650,1330,840,,,,,,,0x03,
2053,-736,588,86,-2660,980,910,,,,,,,0x03,
2063,-748,604,89,2940,840,1050,,,,,,,0x03,
2072,-754,637,91,6580,980,1400,,,,,,,0x03,
2082,-750,658,88,6440,910,1540,,,,,,,0x03,
2092,-745,657,88,3710,770,1400,,,,,,,0x03,
2101,-747,658,89,1400,560,840,,,,,,,0x03,
2111,-746,662,94,-280,490,420,,,,,,,0x03,
2121,-741,663,97,-1540,280,350,,,,,,,0x03,
2130,-736,654,97,-2240,210,560,,,,,,,0x03,
2140,-736,642,97,-2240,490,700,,,,,,,0x03,
2149,-737,635,96,-1330,490,630,,,,,,,0x03,
2159,-741,632,92,-140,490,630,,,,,,,0x03,
2169,-742,637,91,700,490,700,,,,,,,0x03,
2178,-742,644,87,1400,560,770,,,,,,,0x03,
2188,-742,643,83,1260,560,910,,,,,,,0x03,
2198,-737,648,83,840,420,770,,,,,,,0x03,
2207,-739,656,89,210,420,630,,,,,,,0x03,
2217,-740,666,92,-630,560,560,,,,,,,0x03,
2227,-735,664,93,-2100,630,560,,,,,,,0x03,
2236,-726,667,96,-2940,560,420,,,,,,,0x03,
2246,-720,673,98,-3010,910,280,,,,,,,0x03,
2255,-723,665,96,-3360,1190,350,,,,,,,0x03,
2265,-730,639,96,-3500,1190,210,,,,,,,0x03,
2275,-742,620,97,-2170,1120,-140,,,,,,,0x03,
2284,-747,637,100,1960,1050,-490,,,,,,,0x03,
2294,-741,679,102,5950,1120,-560,,,,,,,0x03,
2304,-722,701,99,6160,1330,70,,,,,,,0x03,
2313,-709,697,91,3780,1400,420,,,,,,,0x03,
2323,-716,668,85,1190,1190,140,,,,,,,0x03,
2333,-733,649,83,700,630,-350,,,,,,,0x03,
2342,-747,647,84,2030,350,-770,,,,,,,0x03,
2352,-743,650,86,2450,350,-490,,,,,,,0x03,
2361,-738,655,90,2450,560,-140,,,,,,,0x03,
2371,-735,657,92,2240,770,140,,,,,,,0x03,
2381,-730,663,92,1680,770,210,,,,,,,0x03,
2390,-734,661,89,770,840,280,,,,,,,0x03,
2400,-737,652,87,-350,840,280,,,,,,,0x03,
2410,-741,646,84,-420,840,140,,,,,,,0x03,
2419,-743,646,85,280,840,0,,,,,,,0x03,
2429,-742,654,89,0,1050,0,,,,,,,0x03,
2439,-741,662,91,-980,1120,0,,,,,,,0x03,
2448,-740,665,92,-2170,1400,140,,,,,,,0x03,
2458,-735,662,95,-3500,1610,350,,,,,,,0x03,
2468,-729,659,90,-3360,1610,210,,,,,,,0x03,
2477,-730,646,82,-2240,1260,140,,,,,,,0x03,
2487,-735,636,78,-1050,980,70,,,,,,,0x03,
2496,-746,629,73,350,770,-210,,,,,,,0x03,
2506,-753,631,72,2170,420,-350,,,,,,,0x03,
2516,-750,650,69,4200,0,-490,,,,,,,0x03,
2525,-741,667,65,4480,-280,-140,,,,,,,0x03,
2535,-737,655,61,2730,-770,0,,,,,,,0x03,
2545,-737,633,61,910,-1330,70,,,,,,,0x03,
2554,-742,647,70,1470,-1890,-210,,,,,,,0x03,
2564,-738,678,80,2240,-1960,-210,,,,,,,0x03,
2574,-731,686,80,420,-1960,280,,,,,,,0x03,
2583,-726,666,82,-2660,-2240,560,,,,,,,0x03,
2593,-727,647,83,-4130,-2240,210,,,,,,,0x03,
2602,-739,636,88,-3290,-2170,-70,,,,,,,0x03,
2612,-743,647,96,-1680,-1960,-70,,,,,,,0x03,
2622,-737,665,101,-560,-1610,210,,,,,,,0x03,
2631,-726,669,97,-350,-1120,700,,,,,,,0x03,
2641,-721,658,93,-980,-910,840,,,,,,,0x03,
2651,-730,652,88,-1330,-910,630,,,,,,,0x03,
2660,-744,645,84,-770,-1050,420,,,,,,,0x03,
2670,-743,655,85,-210,-980,420,,,,,,,0x03,
2680,-738,659,86,-210,-770,420,,,,,,,0x03,
2689,-737,657,87,-770,-840,630,,,,,,,0x03,
2699,-736,652,88,-1260,-770,630,,,,,,,0x03,
2708,-734,650,84,-1400,-770,700,,,,,,,0x03,
2718,-733,651,86,-1470,-770,770,,,,,,,0x03,
2728,-737,659,92,-1540,-560,700,,,,,,,0x03,
2737,-736,663,94,-1540,-280,630,,,,,,,0x03,
2747,-730,666,96,-1820,0,560,,,,,,,0x03,
2757,-727,669,96,-1540,140,210,,,,,,,0x03,
2766,-725,657,91,-1400,350,280,,,,,,,0x03,
2776,-729,639,88,-1260,490,420,,,,,,,0x03,
2786,-738,633,88,140,490,350,,,,,,,0x03,
2795,-747,644,87,2240,560,280,,,,,,,0x03,
2805,-746,653,85,3010,630,350,,,,,,,0x03,
2814,-743,658,85,2240,560,350,,,,,,,0x03,
2824,-738,672,86,1260,490,140,,,,,,,0x03,
2834,-732,686,88,560,490,-210,,,,,,,0x03,
2843,-726,688,85,-490,490,-350,,,,,,,0x03,
2853,-718,686,87,-2030,420,-280,,,,,,,0x03,
2863,-718,662,82,-2730,280,-420,,,,,,,0x03,
2872,-725,632,77,-2030,-140,-280,,,,,,,0x03,
2882,-741,628,76,350,-560,-280,,,,,,,0x03,
2892,-750,644,79,2730,-700,-70,,,,,,,0x03,
2901,-745,655,81,2870,-560,420,,,,,,,0x03,
2911,-737,662,85,1470,-490,560,,,,,,,0x03,
2921,-732,669,88,490,-560,350,,,,,,,0x03,
2930,-728,671,88,-350,-490,350,,,,,,,0x03,
2940,-733,655,86,-1610,-490,280,,,,,,,0x03,
2949,-739,648,86,-1470,-770,-70,,,,,,,0x03,
2959,-741,644,83,-140,-840,-140,,,,,,,0x03,
2969,-740,639,83,840,-630,0,,,,,,,0x03,
2978,-742,649,85,1540,-560,-140,,,,,,,0x03,
2988,-741,662,85,2380,-630,-280,,,,,,,0x03,
2998,-737,664,84,1820,-560,-140,,,,,,,0x03,
3007,-734,665,84,1260,-630,-280,,,,,,,0x03,
3017,-738,663,79,1400,-980,-560,,,,,,,0x03,
3027,-736,664,78,1610,-1260,-560,,,,,,,0x03,
3036,-730,664,80,1120,-1190,-630,,,,,,,0x03,
3046,-729,655,80,420,-1190,-630,,,,,,,0x03,
3055,-731,645,81,-420,-1330,-420,,,,,,,0x03,
3065,-736,638,82,-1050,-1330,-280,,,,,,,0x03,
3075,-740,645,86,-910,-1120,-140,,,,,,,0x03,
3084,-736,663,88,-420,-980,-70,,,,,,,0x03,
3094,-728,676,86,-840,-840,70,,,,,,,0x03,
3104,-725,665,79,-2380,-770,210,,,,,,,0x03,
3113,-732,637,80,-3570,-910,140,,,,,,,0x03,
3123,-743,639,82,-2660,-1120,-350,,,,,,,0x03,
3133,-745,666,84,-140,-1260,-560,,,,,,,0x03,
3142,-732,682,87,280,-980,-210,,,,,,,0x03,
3152,-722,676,86,-840,-840,-70,,,,,,,0x03,
3161,-721,656,85,-1470,-980,-140,,,,,,,0x03,
3171,-730,643,82,-910,-1120,-350,,,,,,,0x03,
3181,-743,624,78,0,-1400,-280,,,,,,,0x03,
3190,-753,627,78,910,-1610,-280,,,,,,,0x03,
3200,-754,651,83,1750,-1470,-280,,,,,,,0x03,
3210,-740,682,86,980,-1260,-210,,,,,,,0x03,
3219,-725,697,90,-2030,-1190,-140,,,,,,,0x03,
3229,-717,687,90,-5530,-1120,-140,,,,,,,0x03,
3239,-720,664,87,-7210,-1260,-350,,,,,,,0x03,
3248,-726,644,82,-6930,-1470,-420,,,,,,,0x03,
3258,-741,624,76,-5950,-1750,-140,,,,,,,0x03,
3268,-752,624,81,-4340,-1960,-140,,,,,,,0x03,
3277,-749,657,91,-2380,-1750,-280,,,,,,,0x03,
3287,-737,681,99,-2800,-1190,70,,,,,,,0x03,
3296,-725,685,100,-5390,-980,280,,,,,,,0x03,
3306,-722,668,101,-7000,-980,-210,,,,,,,0x03,
3316,-723,641,94,-6650,-980,-630,,,,,,,0x03,
3325,-727,620,89,-4130,-1050,-770,,,,,,,0x03,
3335,-732,619,88,-350,-1120,-700,,,,,,,0x03,
3345,-733,644,92,3500,-910,-420,,,,,,,0x03,
3354,-734,666,92,4690,-560,70,,,,,,,0x03,
3364,-730,671,90,3220,-490,490,,,,,,,0x03,
3374,-729,664,88,1050,-630,700,,,,,,,0x03,
3383,-734,655,89,-700,-630,910,,,,,,,0x03,
3393,-739,653,89,-1540,-770,980,,,,,,,0x03,
3402,-744,658,90,-1890,-1050,980,,,,,,,0x03,
3412,-741,668,92,-2520,-1120,1050,,,,,,,0x03,
3422,-736,674,94,-3500,-1190,980,,,,,,,0x03,
3431,-733,668,98,-4620,-1400,910,,,,,,,0x03,
3441,-733,654,100,-5040,-1470,840,,,,,,,0x03,
3451,-737,636,95,-4830,-1400,840,,,,,,,0x03,
3460,-742,619,96,-3010,-1400,980,,,,,,,0x03,
3470,-750,622,99,-490,-1400,1050,,,,,,,0x03,
3480,-750,642,97,1960,-1540,840,,,,,,,0x03,
3489,-741,656,94,2940,-1260,840,,,,,,,0x03,
3499,-731,660,97,1960,-980,1050,,,,,,,0x03,
3508,-729,662,99,630,-910,1120,,,,,,,0x03,
3518,-729,661,98,-210,-910,1120,,,,,,,0x03,
3528,-728,660,95,-980,-840,1260,,,,,,,0x03,
3537,-733,653,96,-1820,-770,1470,,,,,,,0x03,
3547,-737,647,96,-2240,-700,1540,,,,,,,0x03,
3557,-740,643,98,-2030,-560,1540,,,,,,,0x03,
3566,-740,653,103,-1050,-420,1330,,,,,,,0x03,
3576,-735,671,103,420,-280,980,,,,,,,0x03,
3586,-726,671,99,700,-210,1050,,,,,,,0x03,
3595,-719,666,96,140,-210,980,,,,,,,0x03,
3605,-722,658,92,280,-210,770,,,,,,,0x03,
3615,-725,657,92,1330,-140,840,,,,,,,0x03,
3624,-726,670,97,1890,-70,1050,,,,,,,0x03,
3634,-723,681,98,1540,0,1190,,,,,,,0x03,
3643,-719,686,98,210,70,1190,,,,,,,0x03,
3653,-721,673,96,-1610,140,1120,,,,,,,0x03,
3663,-730,652,93,-3150,0,980,,,,,,,0x03,
3672,-737,645,94,-2800,70,560,,,,,,,0x03,
3682,-736,655,96,-1190,280,490,,,,,,,0x03,
3692,-726,666,98,-140,420,700,,,,,,,0x03,
3701,-722,668,97,-560,490,910,,,,,,,0x03,
3711,-727,662,93,-1120,350,770,,,,,,,0x03,
3721,-738,658,90,-770,140,420,,,,,,,0x03,
3730,-742,651,86,-350,-140,210,,,,,,,0x03,
3740,-741,658,90,280,-280,0,,,,,,,0x03,
3749,-734,667,94,1120,-210,-280,,,,,,,0x03,
3759,-728,672,95,1470,-280,-420,,,,,,,0x03,
3769,-721,671,94,910,-420,-350,,,,,,,0x03,
3778,-721,665,93,210,-490,-420,,,,,,,0x03,
3788,-727,657,94,280,-490,-490,,,,,,,0x03,
3798,-727,663,95,700,-490,-490,,,,,,,0x03,
3807,-726,669,96,770,-280,-490,,,,,,,0x03,
3817,-725,660,92,140,-140,-280,,,,,,,0x03,
3827,-728,653,93,-420,-210,-280,,,,,,,0x03,
3836,-732,654,90,0,-280,-420,,,,,,,0x03,
3846,-731,661,89,770,-350,-350,,,,,,,0x03,
3855,-733,666,91,210,-280,-140,,,,,,,0x03,
3865,-734,664,89,-490,-350,-140,,,,,,,0x03,
3875,-734,651,87,-980,-490,-210,,,,,,,0x03,
3884,-740,642,90,-1400,-560,-350,,,,,,,0x03,
3894,-744,638,91,-1050,-700,-630,,,,,,,0x03,
3904,-743,639,95,-700,-700,-490,,,,,,,0x03,
3913,-742,651,97,-210,-630,-420,,,,,,,0x03,
3923,-740,662,100,210,-700,-560,,,,,,,0x03,
3933,-730,669,101,-560,-490,-770,,,,,,,0x03,
3942,-722,671,101,-980,-420,-980,,,,,,,0x03,
3952,-721,662,95,-420,-350,-910,,,,,,,0x03,
3962,-724,645,95,70,-350,-560,,,,,,,0x03,
3971,-729,650,96,1540,-350,-560,,,,,,,0x03,
3981,-723,675,96,3990,-210,-490,,,,,,,0x03,
3990,-711,688,89,4270,-70,70,,,,,,,0x03,
4000,-707,687,83,2100,-420,490,,,,,,,0x03,
4010,-717,677,80,-280,-770,490,,,,,,,0x03,
4019,-730,669,78,-1470,-980,490,,,,,,,0x03,
4029,-738,661,75,-2380,-1470,630,,,,,,,0x03,
4039,-745,654,76,-3780,-2100,840,,,,,,,0x03,
4048,-748,663,85,-4900,-2240,630,,,,,,,0x03,
4058,-743,663,92,-5810,-2170,420,,,,,,,0x03,
4068,-736,655,96,-7280,-2310,420,,,,,,,0x03,
4077,-737,646,99,-7350,-2520,70,,,,,,,0x03,
4087,-740,639,98,-5530,-2520,-280,,,,,,,0x03,
4096,-741,628,94,-3780,-2590,-280,,,,,,,0x03,
4106,-741,641,95,-2170,-2800,-560,,,,,,,0x03,
4116,-742,661,101,-560,-2660,-840,,,,,,,0x03,
4125,-738,674,102,-770,-2380,-840,,,,,,,0x03,
4135,-727,675,101,-2240,-2590,-910,,,,,,,0x03,
4145,-719,673,99,-3500,-2660,-980,,,,,,,0x03,
4154,-718,661,100,-4200,-2520,-840,,,,,,,0x03,
4164,-724,650,102,-4340,-2520,-630,,,,,,,0x03,
4174,-726,643,104,-3570,-2660,-630,,,,,,,0x03,
4183,-726,644,107,-1960,-2450,-420,,,,,,,0x03,
4193,-724,655,111,-490,-2030,-140,,,,,,,0x03,
4202,-722,667,113,0,-1750,70,,,,,,,0x03,
4212,-717,671,115,-350,-1470,210,,,,,,,0x03,
4222,-717,659,113,-980,-1120,490,,,,,,,0x03,
4231,-725,649,113,-1050,-840,560,,,,,,,0x03,
4241,-730,649,111,70,-560,420,,,,,,,0x03,
4251,-733,652,111,1260,-280,560,,,,,,,0x03,
4260,-734,663,112,1400,70,630,,,,,,,0x03,
4270,-735,662,110,980,420,490,,,,,,,0x03,
4280,-735,654,106,210,560,420,,,,,,,0x03,
4289,-737,644,104,210,420,420,,,,,,,0x03,
4299,-737,652,101,630,350,560,,,,,,,0x03,
4308,-737,661,104,770,420,560,,,,,,,0x03,
4318,-732,672,104,630,490,630,,,,,,,0x03,
4328,-726,667,100,-280,490,700,,,,,,,0x03,
4337,-726,646,96,-1540,140,630,,,,,,,0x03,
4347,-738,632,91,-630,-210,490,,,,,,,0x03,
4357,-741,634,90,1260,-490,490,,,,,,,0x03,
4366,-736,656,91,2940,-700,560,,,,,,,0x03,
4376,-733,665,95,2800,-770,840,,,,,,,0x03,
4386,-729,674,98,1330,-840,910,,,,,,,0x03,
4395,-727,680,100,70,-1050,630,,,,,,,0x03,
4405,-722,676,99,-910,-1190,490,,,,,,,0x03,
4415,-724,665,96,-1960,-1330,350,,,,,,,0x03,
4424,-731,660,101,-1750,-1540,0,,,,,,,0x03,
4434,-733,663,105,-280,-1470,-420,,,,,,,0x03,
4443,-728,660,105,840,-1260,-560,,,,,,,0x03,
4453,-724,649,103,1680,-1260,-560,,,,,,,0x03,
4463,-723,648,104,2800,-1260,-560,,,,,,,0x03,
4472,-725,663,107,4410,-1050,-490,,,,,,,0x03,
4482,-723,670,106,4620,-840,-140,,,,,,,0x03,
4492,-725,671,104,3220,-840,0,,,,,,,0x03,
4501,-728,668,104,1890,-770,0,,,,,,,0x03,
4511,-729,678,104,1400,-630,-140,,,,,,,0x03,
4521,-725,684,103,210,-280,-140,,,,,,,0x03,
4530,-719,684,100,-1820,-420,-70,,,,,,,0x03,
4540,-719,675,98,-3850,-490,0,,,,,,,0x03,
4549,-727,658,95,-5250,-490,140,,,,,,,0x03,
4559,-734,638,92,-5460,-630,140,,,,,,,0x03,
4569,-739,638,94,-4760,-1050,210,,,,,,,0x03,
4578,-741,648,97,-3570,-1120,420,,,,,,,0x03,
4588,-737,668,103,-2870,-910,630,,,,,,,0x03,
4598,-731,681,105,-3570,-910,630,,,,,,,0x03,
4607,-724,678,106,-5250,-980,420,,,,,,,0x03,
4617,-720,668,104,-6370,-980,70,,,,,,,0x03,
4627,-726,650,102,-6230,-1050,-210,,,,,,,0x03,
4636,-730,642,104,-5320,-1190,-210,,,,,,,0x03,
4646,-733,651,105,-3710,-1260,-280,,,,,,,0x03,
4655,-729,669,107,-2590,-1120,0,,,,,,,0x03,
4665,-721,685,107,-2940,-980,210,,,,,,,0x03,
4675,-718,675,104,-4690,-1050,490,,,,,,,0x03,
4684,-723,653,102,-6510,-1190,630,,,,,,,0x03,
4694,-735,633,103,-6790,-1330,490,,,,,,,0x03,
4704,-744,628,106,-5460,-1540,350,,,,,,,0x03,
4713,-744,637,110,-3360,-1540,210,,,,,,,0x03,
4723,-738,648,114,-2310,-1400,350,,,,,,,0x03,
4733,-729,656,115,-2100,-1190,280,,,,,,,0x03,
4742,-722,659,116,-2030,-1120,280,,,,,,,0x03,
4752,-723,660,116,-1820,-1050,140,,,,,,,0x03,
4762,-725,657,117,-1190,-840,-70,,,,,,,0x03,
4771,-731,654,118,-490,-630,-140,,,,,,,0x03,
4781,-734,653,115,490,-560,-280,,,,,,,0x03,
4790,-731,656,114,1190,-490,-490,,,,,,,0x03,
4800,-729,656,114,1330,-280,-560,,,,,,,0x03,
4810,-730,665,114,1470,-210,-630,,,,,,,0x03,
4819,-728,675,113,1330,-70,-770,,,,,,,0x03,
4829,-722,673,112,280,70,-770,,,,,,,0x03,
4839,-718,661,114,-700,140,-840,,,,,,,0x03,
4848,-719,655,116,-420,350,-910,,,,,,,0x03,
4858,-720,654,117,980,490,-910,,,,,,,0x03,
4868,-719,661,121,2100,700,-630,,,,,,,0x03,
4877,-717,668,117,2730,1050,-350,,,,,,,0x03,
4887,-715,669,114,2730,1190,-70,,,,,,,0x03,
4896,-721,662,107,2310,1190,70,,,,,,,0x03,
4906,-730,657,102,1750,910,70,,,,,,,0x03,
4916,-737,659,102,1610,840,140,,,,,,,0x03,
4925,-738,658,104,1190,980,280,,,,,,,0x03,
4935,-738,655,106,490,910,420,,,,,,,0x03,
4945,-735,656,107,0,840,350,,,,,,,0x03,
4954,-736,652,107,0,700,280,,,,,,,0x03,
4964,-737,652,107,-210,770,280,,,,,,,0x03,
4974,-737,657,104,280,630,0,,,,,,,0x03,
4983,-734,658,103,350,630,0,,,,,,,0x03,
4993,-728,663,103,70,700,0,,,,,,,0x03,
5002,-726,660,104,-420,700,-70,,,,,,,0x03,
5012,-724,659,103,-980,490,0,,,,,,,0x03,
5022,-726,655,102,-840,420,140,,,,,,,0x03,
5031,-732,652,101,-490,350,420,,,,,,,0x03,
5041,-729,654,102,-210,210,560,,,,,,,0x03,
5051,-729,653,101,70,70,700,,,,,,,0x03,
5060,-727,653,100,70,-70,980,,,,,,,0x03,
5070,-728,653,101,-280,-140,1190,,,,,,,0x03,
5080,-730,657,103,-560,-140,1330,,,,,,,0x03,
5089,-731,655,104,-840,-70,1470,,,,,,,0x03,
5099,-730,654,107,-1190,-70,1610,,,,,,,0x03,
5109,-729,663,108,-1120,0,1610,,,,,,,0x03,
5118,-726,664,109,-980,70,1610,,,,,,,0x03,
5128,-727,657,105,-1260,140,1610,,,,,,,0x03,
5137,-730,648,102,-840,0,1470,,,,,,,0x03,
5147,-733,651,102,140,-70,1260,,,,,,,0x03,
5157,-731,663,103,1190,70,1190,,,,,,,0x03,
5166,-728,673,105,1190,140,1260,,,,,,,0x03,
5176,-724,674,106,210,140,1190,,,,,,,0x03,
5186,-724,671,104,-630,70,980,,,,,,,0x03,
5195,-724,665,102,-1050,0,910,,,,,,,0x03,
5205,-727,660,102,-1400,-140,910,,,,,,,0x03,
5215,-727,656,105,-1330,-140,980,,,,,,,0x03,
5224,-729,665,108,-840,-140,980,,,,,,,0x03,
5234,-726,672,107,-700,0,1050,,,,,,,0x03,
5243,-721,672,105,-1330,0,1190,,,,,,,0x03,
5253,-719,662,105,-2100,0,1050,,,,,,,0x03,
5263,-721,658,104,-2030,-70,980,,,,,,,0x03,
5272,-722,665,106,-910,0,840,,,,,,,0x03,
5282,-724,665,107,-280,210,910,,,,,,,0x03,
5292,-725,664,106,70,140,840,,,,,,,0x03,
5301,-720,660,103,560,70,770,,,,,,,0x03,
5311,-719,664,101,1260,70,630,,,,,,,0x03,
5321,-724,666,102,1610,70,700,,,,,,,0x03,
5330,-727,667,104,1470,70,700,,,,,,,0x03,
5340,-729,666,102,1120,70,770,,,,,,,0x03,
5349,-728,663,105,560,210,700,,,,,,,0x03,
5359,-732,665,105,420,210,560,,,,,,,0x03,
5369,-728,674,106,560,0,490,,,,,,,0x03,
5378,-723,678,103,140,70,490,,,,,,,0x03,
5388,-721,668,101,-1190,210,560,,,,,,,0x03,
5398,-724,654,101,-2170,70,490,,,,,,,0x03,
5407,-726,657,100,-1260,-140,210,,,,,,,0x03,
5417,-726,662,98,-210,-210,350,,,,,,,0x03,
5427,-725,664,99,-490,-280,700,,,,,,,0x03,
5436,-725,670,102,-910,-350,630,,,,,,,0x03,
5446,-726,677,103,-1120,-350,490,,,,,,,0x03,
5455,-723,673,102,-1750,-350,420,,,,,,,0x03,
5465,-721,667,102,-2450,-630,280,,,,,,,0x03,
5475,-721,658,100,-2310,-700,280,,,,,,,0x03,
5484,-724,660,99,-1470,-770,210,,,,,,,0x03,
5494,-728,665,101,-980,-840,140,,,,,,,0x03,
5504,-727,670,103,-1120,-980,140,,,,,,,0x03,
5513,-725,676,105,-1470,-1050,140,,,,,,,0x03,
5523,-720,678,104,-2240,-1050,140,,,,,,,0x03,
5533,-717,674,104,-2870,-1120,70,,,,,,,0x03,
5542,-718,668,102,-3150,-1260,70,,,,,,,0x03,
5552,-721,660,102,-2870,-1330,70,,,,,,,0x03,
5562,-727,648,101,-2450,-1400,140,,,,,,,0x03,
5571,-729,652,105,-1330,-1470,140,,,,,,,0x03,
5581,-729,664,108,-140,-1330,140,,,,,,,0x03,
5590,-722,675,106,210,-1330,280,,,,,,,0x03,
5600,-719,673,108,-840,-1260,350,,,,,,,0x03,
5610,-722,665,107,-1890,-1330,280,,,,,,,0x03,
5619,-726,658,106,-1750,-1400,70,,,,,,,0x03,
5629,-726,657,105,-1120,-1400,0,,,,,,,0x03,
5639,-727,654,108,-840,-1400,140,,,,,,,0x03,
5648,-727,659,108,-280,-1470,70,,,,,,,0x03,
5658,-728,670,109,280,-1330,0,,,,,,,0x03,
5668,-729,673,110,-210,-1190,-70,,,,,,,0x03,
5677,-727,666,107,-1050,-1190,-350,,,,,,,0x03,
5687,-721,666,108,-910,-1190,-630,,,,,,,0x03,
5696,-718,668,110,-490,-1050,-770,,,,,,,0x03,
5706,-722,664,109,-210,-1120,-770,,,,,,,0x03,
5716,-724,661,108,-70,-1190,-980,,,,,,,0x03,
5725,-724,665,108,210,-1190,-1050,,,,,,,0x03,
5735,-722,671,109,630,-980,-1050,,,,,,,0x03,
5745,-718,676,109,490,-980,-1050,,,,,,,0x03,
5754,-715,672,110,-140,-980,-980,,,,,,,0x03,
5764,-715,671,110,-630,-980,-980,,,,,,,0x03,
5774,-717,674,112,-210,-980,-910,,,,,,,0x03,
5783,-715,675,110,280,-980,-840,,,,,,,0x03,
5793,-716,669,110,210,-980,-770,,,,,,,0x03,
5802,-724,650,105,70,-980,-700,,,,,,,0x03,
5812,-735,635,104,490,-1120,-630,,,,,,,0x03,
5822,-738,643,108,1680,-980,-700,,,,,,,0x03,
5831,-732,664,112,2730,-770,-560,,,,,,,0x03,
5841,-721,684,115,2030,-490,-280,,,,,,,0x03,
5851,-715,688,112,0,-350,-210,,,,,,,0x03,
5860,-716,672,109,-2100,-490,-350,,,,,,,0x03,
5870,-726,655,104,-2730,-630,-700,,,,,,,0x03,
5880,-735,641,103,-1820,-700,-840,,,,,,,0x03,
5889,-739,642,104,0,-770,-1050,,,,,,,0x03,
5899,-734,654,106,1680,-700,-910,,,,,,,0x03,
5909,-726,666,106,2800,-700,-980,,,,,,,0x03,
5918,-723,677,109,3080,-700,-1120,,,,,,,0x03,
5928,-720,684,110,2660,-700,-1260,,,,,,,0x03,
5937,-721,674,105,1820,-840,-1330,,,,,,,0x03,
5947,-724,665,104,1330,-980,-1540,,,,,,,0x03,
5957,-725,660,102,1540,-1050,-1680,,,,,,,0x03,
5966,-725,656,101,1750,-1190,-1680,,,,,,,0x03,
5976,-729,649,100,1470,-1330,-1540,,,,,,,0x03,
5986,-732,650,100,1540,-1680,-1540,,,,,,,0x03,
5995,-733,661,106,1960,-1540,-1540,,,,,,,0x03,
6005,-725,675,111,2170,-1400,-1610,,,,,,,0x03,
6015,-719,681,110,1610,-1330,-1470,,,,,,,0x03,
6024,-708,678,108,1120,-1330,-1540,,,,,,,0x03,
6034,-710,670,107,980,-1400,-1540,,,,,,,0x03,
6043,-719,663,107,1260,-1400,-1610,,,,,,,0x03,
6053,-727,658,104,1890,-1400,-1610,,,,,,,0x03,
6063,-730,655,103,2240,-1470,-1400,,,,,,,0x03,
6072,-732,655,103,2170,-1540,-1190,,,,,,,0x03,
6082,-733,661,106,1820,-1330,-980,,,,,,,0x03,
6092,-730,665,106,910,-1260,-770,,,,,,,0x03,
6101,-728,659,106,-700,-1190,-560,,,,,,,0x03,
6111,-725,661,109,-2030,-1120,-350,,,,,,,0x03,
6121,-727,669,111,-2170,-840,-280,,,,,,,0x03,
6130,-729,662,110,-2800,-770,0,,,,,,,0x03,
6140,-733,653,110,-4200,-910,70,,,,,,,0x03,
6149,-735,647,109,-3990,-840,-280,,,,,,,0x03,
6159,-735,641,107,-2660,-770,-140,,,,,,,0x03,
6169,-731,654,108,-1330,-630,-70,,,,,,,0x03,
6178,-724,667,110,-490,-490,70,,,,,,,0x03,
6188,-722,669,110,-420,-280,280,,,,,,,0x03,
6198,-722,666,109,-770,-280,210,,,,,,,0x03,
6207,-727,655,107,-1050,-420,140,,,,,,,0x03,
6217,-728,650,106,-420,-420,70,,,,,,,0x03,
6227,-729,653,108,490,-350,140,,,,,,,0x03,
6236,-728,658,106,1050,-280,350,,,,,,,0x03,
6246,-725,668,109,770,-210,560,,,,,,,0x03,
6256,-723,667,107,140,-140,700,,,,,,,0x03,
6265,-726,657,106,-700,-210,840,,,,,,,0x03,
6275,-727,662,108,-560,-140,700,,,,,,,0x03,
6284,-724,674,111,280,0,770,,,,,,,0x03,
6294,-720,677,111,70,280,1050,,,,,,,0x03,
6304,-724,662,108,-980,350,1120,,,,,,,0x03,
6313,-732,635,104,-1190,280,910,,,,,,,0x03,
6323,-737,626,104,70,210,770,,,,,,,0x03,
6333,-739,638,107,2100,280,770,,,,,,,0x03,
6342,-737,660,111,3290,560,980,,,,,,,0x03,
6352,-732,678,113,2450,910,1190,,,,,,,0x03,
6362,-724,681,109,490,1050,1050,,,,,,,0x03,
6371,-718,671,105,-1610,1050,910,,,,,,,0x03,
6381,-722,658,101,-3220,910,840,,,,,,,0x03,
6390,-728,665,104,-3150,770,700,,,,,,,0x03,
6400,-729,677,105,-2940,700,700,,,,,,,0x03,
6410,-720,677,102,-3920,630,910,,,,,,,0x03,
6419,-719,668,100,-5250,350,980,,,,,,,0x03,
6429,-723,657,100,-5530,210,980,,,,,,,0x03,
6439,-726,654,104,-4480,210,840,,,,,,,0x03,
6448,-730,654,106,-3010,70,840,,,,,,,0x03,
6458,-732,655,108,-1820,0,980,,,,,,,0x03,
6468,-727,662,110,-910,140,910,,,,,,,0x03,
6477,-723,667,107,-210,210,630,,,,,,,0x03,
6487,-723,664,103,0,0,490,,,,,,,0x03,
6496,-726,666,102,-210,-210,280,,,,,,,0x03,
6506,-725,668,105,-210,-140,210,,,,,,,0x03,
6516,-720,675,107,70,0,210,,,,,,,0x03,
6525,-718,678,110,-350,0,350,,,,,,,0x03,
6535,-717,671,108,-910,-70,420,,,,,,,0x03,
6545,-719,662,110,-840,-70,420,,,,,,,0x03,
6554,-723,661,107,70,-70,210,,,,,,,0x03,
6564,-726,654,106,910,-70,350,,,,,,,0x03,
6574,-728,660,106,1750,-70,420,,,,,,,0x03,
6583,-729,660,106,2240,0,420,,,,,,,0x03,
6593,-728,661,109,1890,140,490,,,,,,,0x03,
6603,-729,658,108,1120,350,560,,,,,,,0x03,
6612,-726,662,108,910,280,560,,,,,,,0x03,
6622,-722,665,107,490,350,700,,,,,,,0x03,
6631,-722,670,107,-490,490,840,,,,,,,0x03,
6641,-725,676,107,-1190,490,700,,,,,,,0x03,
6651,-725,672,103,-1750,490,630,,,,,,,0x03,
6660,-727,665,102,-2590,490,630,,,,,,,0x03,
6670,-726,665,102,-2590,350,420,,,,,,,0x03,
6680,-723,674,104,-1820,350,280,,,,,,,0x03,
6689,-721,677,103,-1680,280,350,,,,,,,0x03,
6699,-722,662,100,-2380,70,350,,,,,,,0x03,
6709,-723,642,98,-2660,-140,280,,,,,,,0x03,
6718,-727,641,101,-1190,-280,70,,,,,,,0x03,
6728,-726,662,105,910,-280,70,,,,,,,0x03,
6737,-727,672,107,1190,-210,280,,,,,,,0x03,
6747,-725,667,103,-280,-350,420,,,,,,,0x03,
6757,-722,666,102,-840,-490,140,,,,,,,0x03,
6766,-722,669,104,-840,-420,70,,,,,,,0x03,
6776,-723,670,103,-980,-490,0,,,,,,,0x03,
6786,-723,667,104,-1260,-700,0,,,,,,,0x03,
6795,-721,671,107,-840,-700,0,,,,,,,0x03,
6805,-721,667,104,-490,-560,70,,,,,,,0x03,
6815,-723,655,102,-630,-770,70,,,,,,,0x03,
6824,-726,657,103,-280,-840,0,,,,,,,0x03,
6834,-728,665,105,1050,-840,0,,,,,,,0x03,
6843,-729,668,106,1400,-840,140,,,,,,,0x03,
6853,-729,675,108,980,-840,70,,,,,,,0x03,
6863,-725,676,111,420,-630,-70,,,,,,,0x03,
6872,-716,671,112,-420,-420,-210,,,,,,,0x03,
6882,-715,660,109,-770,-420,-210,,,,,,,0x03,
6892,-719,653,106,-280,-490,-140,,,,,,,0x03,
6901,-726,653,105,560,-350,0,,,,,,,0x03,
6911,-729,656,103,1120,-210,210,,,,,,,0x03,
6921,-728,667,104,910,-210,280,,,,,,,0x03,
6930,-728,677,106,490,0,280,,,,,,,0x03,
6940,-723,678,106,-630,140,420,,,,,,,0x03,
6949,-722,674,103,-1610,0,350,,,,,,,0x03,
6959,-725,658,103,-2520,0,420,,,,,,,0x03,
6969,-728,649,102,-2240,-140,210,,,,,,,0x03,
6978,-727,656,104,-1120,-210,210,,,,,,,0x03,
6988,-723,669,106,-630,-70,350,,,,,,,0x03,
6998,-719,673,105,-980,-70,490,,,,,,,0x03,
7007,-719,670,103,-1750,-210,490,,,,,,,0x03,
7017,-722,658,102,-2310,-350,490,,,,,,,0x03,
7027,-726,654,102,-1960,-420,420,,,,,,,0x03,
7036,-726,666,105,-630,-490,350,,,,,,,0x03,
7046,-723,673,104,-70,-560,700,,,,,,,0x03,
7056,-720,677,104,-630,-840,840,,,,,,,0x03,
7065,-718,679,107,-1400,-840,840,,,,,,,0x03,
7075,-720,674,106,-2030,-840,910,,,,,,,0x03,
7084,-722,660,105,-2590,-910,1050,,,,,,,0x03,
7094,-727,651,104,-2520,-1050,980,,,,,,,0x03,
7104,-729,651,108,-1610,-910,910,,,,,,,0x03,
7113,-725,657,110,-700,-770,840,,,,,,,0x03,
7123,-723,660,110,-490,-770,910,,,,,,,0x03,
7133,-721,658,108,-420,-700,980,,,,,,,0x03,
7142,-721,660,109,-210,-630,980,,,,,,,0x03,
7152,-725,659,108,0,-490,980,,,,,,,0x03,
7162,-726,663,107,280,-490,910,,,,,,,0x03,
7171,-725,673,110,420,-490,770,,,,,,,0x03,
7181,-723,682,109,350,-350,560,,,,,,,0x03,
7190,-721,679,109,-140,-280,350,,,,,,,0x03,
7200,-721,661,108,-840,-210,210,,,,,,,0x03,
7210,-722,652,109,-350,-210,70,,,,,,,0x03,
7219,-721,656,110,1400,-70,-140,,,,,,,0x03,
7229,-719,669,110,2800,70,-70,,,,,,,0x03,
7239,-714,680,105,2800,70,70,,,,,,,0x03,
7248,-711,678,104,1820,140,140,,,,,,,0x03,
7258,-713,676,105,910,140,70,,,,,,,0x03,
7268,-718,666,101,700,70,70,,,,,,,0x03,
7277,-722,655,100,910,-210,140,,,,,,,0x03,
7287,-724,659,103,1680,-210,210,,,,,,,0x03,
7296,-722,665,106,2450,0,350,,,,,,,0x03,
7306,-717,674,108,2310,140,490,,,,,,,0x03,
7316,-718,675,107,1820,210,630,,,,,,,0x03,
7325,-719,664,107,1190,210,700,,,,,,,0x03,
7335,-722,668,105,1260,280,490,,,,,,,0x03,
7345,-724,679,107,1750,490,280,,,,,,,0x03,
7354,-719,690,109,1120,630,210,,,,,,,0x03,
7364,-713,690,106,-140,770,140,,,,,,,0x03,
7374,-709,677,101,-1050,770,70,,,,,,,0x03,
7383,-715,658,97,-1400,560,140,,,,,,,0x03,
7393,-723,658,96,-490,420,140,,,,,,,0x03,
7403,-728,667,97,910,350,210,,,,,,,0x03,
7412,-730,667,94,1050,350,490,,,,,,,0x03,
7422,-727,665,95,70,70,560,,,,,,,0x03,
7431,-724,676,100,0,70,210,,,,,,,0x03,
7441,-721,680,99,70,140,140,,,,,,,0x03,
7451,-718,671,98,-770,-70,280,,,,,,,0x03,
7460,-717,666,99,-1260,-350,280,,,,,,,0x03,
7470,-720,668,101,-350,-350,140,,,,,,,0x03,
7480,-719,675,99,700,-350,0,,,,,,,0x03,
7489,-719,665,97,280,-490,210,,,,,,,0x03,
7499,-724,651,97,-140,-700,210,,,,,,,0x03,
7509,-726,659,101,910,-630,210,,,,,,,0x03,
7518,-724,677,104,1820,-420,350,,,,,,,0x03,
7528,-718,687,102,1120,-420,700,,,,,,,0x03,
7537,-714,688,100,-770,-490,700,,,,,,,0x03,
7547,-718,682,98,-2170,-630,350,,,,,,,0x03,
7557,-725,665,97,-3010,-770,70,,,,,,,0x03,
7566,-723,671,98,-2730,-1050,-210,,,,,,,0x03,
7576,-717,675,101,-1960,-980,-280,,,,,,,0x03,
7586,-713,678,100,-1610,-980,0,,,,,,,0x03,
7595,-713,667,98,-1890,-1190,140,,,,,,,0x03,
7605,-716,654,100,-2310,-1260,210,,,,,,,0x03,
7615,-719,668,106,-910,-1120,70,,,,,,,0x03,
7624,-717,678,106,350,-980,280,,,,,,,0x03,
7634,-714,677,104,-280,-1050,560,,,,,,,0x03,
7643,-716,667,104,-1750,-1050,630,,,,,,,0x03,
7653,-725,662,105,-2030,-980,420,,,,,,,0x03,
7663,-728,665,104,-1330,-910,420,,,,,,,0x03,
7672,-726,671,104,-1330,-910,630,,,,,,,0x03,
7682,-723,673,104,-2100,-840,700,,,,,,,0x03,
7692,-719,676,105,-2380,-700,420,,,,,,,0x03,
7701,-716,672,106,-2800,-700,280,,,,,,,0x03,
7711,-717,668,107,-3220,-630,210,,,,,,,0x03,
7721,-716,671,106,-1820,-560,-70,,,,,,,0x03,
7730,-713,673,107,-700,-420,0,,,,,,,0x03,
7740,-716,672,105,-560,-420,70,,,,,,,0x03,
7750,-719,668,105,-630,-420,-70,,,,,,,0x03,
7759,-722,662,103,-420,-350,-140,,,,,,,0x03,
7769,-726,652,97,-420,-490,0,,,,,,,0x03,
7778,-729,641,97,-560,-700,140,,,,,,,0x03,
7788,-731,659,103,-210,-560,210,,,,,,,0x03,
7798,-726,680,107,140,-420,280,,,,,,,0x03,
7807,-713,689,108,-1540,-490,630,,,,,,,0x03,
7817,-705,682,108,-3850,-420,770,,,,,,,0x03,
7827,-709,666,109,-5110,-420,840,,,,,,,0x03,
7836,-716,664,110,-4620,-420,770,,,,,,,0x03,
7846,-720,667,109,-3500,-490,770,,,,,,,0x03,
7856,-720,679,106,-2730,-630,840,,,,,,,0x03,
7865,-722,688,103,-2100,-630,700,,,,,,,0x03,
7875,-719,680,98,-3010,-770,350,,,,,,,0x03,
7884,-723,657,98,-3920,-1050,70,,,,,,,0x03,
7894,-724,647,101,-3010,-1330,-280,,,,,,,0x03,
7904,-721,663,107,-210,-1400,-350,,,,,,,0x03,
7913,-713,682,110,1540,-1260,-70,,,,,,,0x03,
7923,-707,688,108,840,-1330,210,,,,,,,0x03,
7933,-707,677,106,-490,-1540,140,,,,,,,0x03,
7942,-718,663,106,-1470,-1610,70,,,,,,,0x03,
7952,-725,663,107,-1120,-1750,0,,,,,,,0x03,
7962,-726,668,108,-700,-1750,140,,,,,,,0x03,
7971,-723,667,111,-1260,-1540,350,,,,,,,0x03,
7981,-721,663,113,-2170,-1330,420,,,,,,,0x03,
7990,-719,675,117,-2100,-1330,210,,,,,,,0x03,
8000,-715,683,117,-1680,-1120,140,,,,,,,0x03,
8010,-709,678,116,-2240,-1050,350,,,,,,,0x03,
8019,-706,674,117,-2450,-980,280,,,,,,,0x03,
8029,-711,662,116,-1960,-770,280,,,,,,,0x03,
8039,-717,647,111,-1400,-700,560,,,,,,,0x03,
8048,-721,644,113,-490,-700,770,,,,,,,0x03,
8058,-727,657,116,770,-350,1120,,,,,,,0x03,
8068,-728,675,117,1120,0,1400,,,,,,,0x03,
8077,-719,689,116,-140,70,1330,,,,,,,0x03,
8087,-714,690,114,-2100,140,1190,,,,,,,0x03,
8096,-712,691,113,-3430,210,770,,,,,,,0x03,
8106,-715,685,106,-3500,-140,140,,,,,,,0x03,
8116,-717,663,101,-3570,-490,-140,,,,,,,0x03,
8125,-719,648,99,-2800,-840,-280,,,,,,,0x03,
8135,-727,648,102,-490,-980,-210,,,,,,,0x03,
8145,-728,652,109,1610,-910,0,,,,,,,0x03,
8154,-721,671,116,2240,-770,280,,,,,,,0x03,
8164,-716,681,118,1750,-630,350,,,,,,,0x03,
8174,-709,689,119,700,-560,280,,,,,,,0x03,
8183,-705,696,117,-700,-560,140,,,,,,,0x03,
8193,-705,700,117,-2240,-560,-140,,,,,,,0x03,
8203,-709,684,112,-3360,-490,-280,,,,,,,0x03,
8212,-712,662,107,-3920,-840,-420,,,,,,,0x03,
8222,-715,651,107,-2660,-980,-490,,,,,,,0x03,
8231,-715,661,107,-280,-1120,-280,,,,,,,0x03,
8241,-717,678,111,1540,-1120,0,,,,,,,0x03,
8251,-714,693,110,1820,-1260,70,,,,,,,0x03,
8260,-715,676,106,490,-1470,140,,,,,,,0x03,
8270,-719,665,107,-420,-1610,-210,,,,,,,0x03,
8280,-722,665,110,280,-1820,-630,,,,,,,0x03,
8289,-718,678,112,1050,-1890,-630,,,,,,,0x03,
8299,-712,682,116,420,-1890,-560,,,,,,,0x03,
8309,-710,678,114,-980,-1750,-490,,,,,,,0x03,
8318,-717,664,112,-1890,-1750,-490,,,,,,,0x03,
8328,-724,660,109,-1750,-1960,-630,,,,,,,0x03,
8337,-727,659,113,-1190,-2030,-700,,,,,,,0x03,
8347,-725,668,116,-630,-1820,-700,,,,,,,0x03,
8357,-721,665,113,-210,-1820,-770,,,,,,,0x03,
8366,-717,665,117,70,-2030,-980,,,,,,,0x03,
8376,-717,671,118,280,-2450,-1190,,,,,,,0x03,
8386,-721,672,120,-210,-3290,-1400,,,,,,,0x03,
8395,-717,670,117,-1260,-4480,-1680,,,,,,,0x03,
8405,-727,662,124,-2940,-6020,-2030,,,,,,,0x03,
8415,-739,653,130,-6230,-10430,-2800,,,,,,,0x03,
8424,-716,662,121,-6300,-13510,-3920,,,,,,,0x03,
8434,-700,678,119,-3710,-12180,-3430,,,,,,,0x03,
8443,-704,688,122,-2870,-9660,-2310,,,,,,,0x03,
8453,-708,683,122,-3220,-7910,-2170,,,,,,,0x03,
8463,-709,689,121,-2870,-6440,-2030,,,,,,,0x03,
8472,-710,686,120,-2800,-5460,-1890,,,,,,,0x03,
8482,-706,682,122,-3360,-5180,-1820,,,,,,,0x03,
8492,-715,668,122,-3850,-5460,-1750,,,,,,,0x03,
8501,-718,648,123,-3710,-5880,-1540,,,,,,,0x03,
8511,-729,643,136,-4200,-6300,-1330,,,,,,,0x03,
8521,-727,660,137,-3710,-7560,-1610,,,,,,,0x03,
8530,-714,691,140,-2870,-7140,-1400,,,,,,,0x03,
8540,-706,699,142,-4200,-6230,-1050,,,,,,,0x03,
8550,-701,687,150,-6580,-5740,-1190,,,,,,,0x03,
8559,-699,661,146,-8260,-5810,-1400,,,,,,,0x03,
8569,-707,643,140,-7350,-5460,-1400,,,,,,,0x03,
8578,-720,632,147,-5530,-4900,-1120,,,,,,,0x03,
8588,-730,632,142,-3360,-4830,-840,,,,,,,0x03,
8598,-729,657,139,-1190,-4270,-700,,,,,,,0x03,
8607,-725,670,137,-840,-3500,-350,,,,,,,0x03,
8617,-719,672,138,-1750,-3080,-140,,,,,,,0x03,
8627,-719,672,146,-3430,-3010,-140,,,,,,,0x03,
8636,-717,668,145,-4200,-3010,-280,,,,,,,0x03,
8646,-712,668,153,-4060,-2660,-210,,,,,,,0x03,
8656,-706,663,150,-3570,-2380,70,,,,,,,0x03,
8665,-704,660,149,-2240,-1820,280,,,,,,,0x03,
8675,-708,660,149,-560,-1470,280,,,,,,,0x03,
8684,-715,660,150,1330,-980,280,,,,,,,0x03,
8694,-717,651,154,2380,-490,560,,,,,,,0x03,
8704,-712,640,156,3220,140,1050,,,,,,,0x03,
8713,-709,631,155,4550,560,1680,,,,,,,0x03,
8723,-712,626,156,5250,630,2240,,,,,,,0x03,
8733,-721,635,157,5180,840,2800,,,,,,,0x03,
8742,-729,634,149,4690,1190,3150,,,,,,,0x03,
8752,-732,628,146,3990,1540,3500,,,,,,,0x03,
8762,-733,648,147,3570,1750,3500,,,,,,,0x03,
8771,-734,669,141,3290,1890,3710,,,,,,,0x03,
8781,-733,679,139,2170,2100,3640,,,,,,,0x03,
8790,-727,686,139,770,2240,3360,,,,,,,0x03,
8800,-721,688,139,-630,2310,3080,,,,,,,0x03,
8810,-718,672,136,-1610,2380,2520,,,,,,,0x03,
8819,-718,658,131,-1190,2100,1890,,,,,,,0x03,
8829,-716,657,133,-70,1750,1610,,,,,,,0x03,
8839,-714,679,132,1820,1470,1400,,,,,,,0x03,
8848,-708,701,132,3080,1330,1400,,,,,,,0x03,
8858,-702,714,133,2450,1120,1330,,,,,,,0x03,
8868,-698,704,128,70,1050,1330,,,,,,,0x03,
8877,-700,685,122,-1820,840,1050,,,,,,,0x03,
8887,-706,690,125,-1330,560,700,,,,,,,0x03,
8897,-704,702,133,-700,280,770,,,,,,,0x03,
8906,-697,700,135,-1260,210,1120,,,,,,,0x03,
8916,-693,684,134,-2520,280,1330,,,,,,,0x03,
8925,-701,668,139,-3220,420,1610,,,,,,,0x03,
8935,-710,648,144,-3290,630,2030,,,,,,,0x03,
8945,-716,636,145,-2240,910,2450,,,,,,,0x03,
8954,-716,643,147,-280,1330,2940,,,,,,,0x03,
8964,-714,655,154,910,1680,3360,,,,,,,0x03,
8974,-709,669,154,350,2170,3640,,,,,,,0x03,
8983,-709,679,146,-770,2660,3710,,,,,,,0x03,
8993,-713,679,142,-2100,2870,3430,,,,,,,0x03,
9003,-719,676,142,-3500,3080,3080,,,,,,,0x03,
9012,-722,666,135,-3850,3150,2730,,,,,,,0x03,
9022,-721,657,130,-3220,3360,2450,,,,,,,0x03,
9031,-726,644,125,-1820,3360,2310,,,,,,,0x03,
9041,-725,653,125,840,3360,2030,,,,,,,0x03,
9051,-722,669,131,3150,3430,1960,,,,,,,0x03,
9060,-718,677,130,4480,3640,1750,,,,,,,0x03,
9070,-712,684,134,5040,3570,1470,,,,,,,0x03,
9080,-705,688,136,4480,3570,1050,,,,,,,0x03,
9089,-699,691,132,3780,3570,700,,,,,,,0x03,
9099,-699,683,128,3360,3500,420,,,,,,,0x03,
9109,-701,683,124,3710,3430,210,,,,,,,0x03,
9118,-703,688,124,5110,3360,0,,,,,,,0x03,
9128,-704,687,124,6020,3220,140,,,,,,,0x03,
9137,-706,683,120,5880,3220,140,,,,,,,0x03,
9147,-709,680,120,5950,3080,140,,,,,,,0x03,
9157,-709,681,118,5810,2800,70,,,,,,,0x03,
9166,-702,696,116,5950,2590,-70,,,,,,,0x03,
9176,-699,699,119,5180,2520,70,,,,,,,0x03,
9186,-701,696,125,3570,2450,70,,,,,,,0x03,
9195,-701,689,122,2380,2240,-140,,,,,,,0x03,
9205,-706,672,118,1680,2100,-210,,,,,,,0x03,
9215,-716,657,111,1680,2100,-280,,,,,,,0x03,
9224,-722,663,112,3500,2170,-420,,,,,,,0x03,
9234,-719,675,116,5110,2170,-280,,,,,,,0x03,
9244,-713,684,115,5460,2310,-140,,,,,,,0x03,
9253,-709,692,117,4760,2380,-140,,,,,,,0x03,
9263,-705,690,112,3220,2380,-280,,,,,,,0x03,
9272,-704,677,110,1750,2450,-280,,,,,,,0x03,
9282,-709,666,109,1050,2730,-280,,,,,,,0x03,
9292,-707,672,111,2310,2800,-140,,,,,,,0x03,
9301,-703,678,108,3430,2800,280,,,,,,,0x03,
9311,-703,685,101,3850,2590,770,,,,,,,0x03,
9321,-707,696,95,3570,2310,910,,,,,,,0x03,
9330,-715,700,89,2450,1890,770,,,,,,,0x03,
9340,-720,695,82,1330,1190,350,,,,,,,0x03,
9350,-723,690,86,350,770,-140,,,,,,,0x03,
9359,-723,691,96,140,280,-770,,,,,,,0x03,
9369,-711,686,108,-70,-560,-1050,,,,,,,0x03,
9378,-702,677,101,-910,-1260,-980,,,,,,,0x03,
9388,-706,661,99,-1190,-1610,-910,,,,,,,0x03,
9398,-719,652,101,-630,-1750,-910,,,,,,,0x03,
9407,-726,667,106,1470,-1820,-1120,,,,,,,0x03,
9417,-719,688,111,2660,-1610,-1120,,,,,,,0x03,
9427,-710,704,111,1960,-1260,-1050,,,,,,,0x03,
9436,-706,693,109,-70,-980,-1260,,,,,,,0x03,
9446,-709,679,105,-1470,-700,-1750,,,,,,,0x03,
9456,-714,665,101,-1190,-490,-2030,,,,,,,0x03,
9465,-716,670,101,1120,-140,-2030,,,,,,,0x03,
9475,-711,678,103,3360,560,-1610,,,,,,,0x03,
9484,-706,688,103,4970,1400,-1260,,,,,,,0x03,
9494,-711,685,102,4970,2100,-1050,,,,,,,0x03,
9504,-721,686,101,3850,2800,-1050,,,,,,,0x03,
9513,-732,693,103,2240,3710,-1330,,,,,,,0x03,
9523,-739,691,110,-420,4900,-1400,,,,,,,0x03,
9533,-730,688,116,-3430,6090,-1470,,,,,,,0x03,
9542,-710,685,120,-6300,7000,-1470,,,,,,,0x03,
9552,-698,680,122,-8190,7280,-1750,,,,,,,0x03,
9562,-694,676,122,-8750,7070,-2170,,,,,,,0x03,
9571,-693,677,119,-7910,6860,-2590,,,,,,,0x03,
9581,-691,670,116,-5880,6650,-2590,,,,,,,0x03,
9590,-695,655,109,-2660,6510,-2310,,,,,,,0x03,
9600,-705,641,101,1260,6160,-1750,,,,,,,0x03,
9610,-714,639,98,5040,5880,-1260,,,,,,,0x03,
9619,-720,654,94,8190,5600,-1120,,,,,,,0x03,
9629,-714,677,96,9590,5460,-770,,,,,,,0x03,
9639,-710,693,93,8260,5250,-420,,,,,,,0x03,
9648,-707,697,86,5320,4760,-140,,,,,,,0x03,
9658,-703,690,84,1750,4060,140,,,,,,,0x03,
9668,-707,688,86,-1330,3500,420,,,,,,,0x03,
9677,-716,688,88,-2870,2940,420,,,,,,,0x03,
9687,-721,683,87,-3500,2310,210,,,,,,,0x03,
9697,-724,675,84,-3640,1680,-140,,,,,,,0x03,
9706,-725,664,83,-2940,1190,-630,,,,,,,0x03,
9716,-728,655,80,-1120,630,-1190,,,,,,,0x03,
9725,-731,641,80,490,-350,-1540,,,,,,,0x03,
9735,-737,630,84,1260,-2170,-1750,,,,,,,0x03,
9745,-744,634,96,1470,-4690,-2310,,,,,,,0x03,
9754,-738,652,101,1960,-7350,-2940,,,,,,,0x03,
9764,-716,671,95,2940,-8260,-3010,,,,,,,0x03,
9774,-707,686,99,2940,-7350,-2380,,,,,,,0x03,
9783,-726,677,114,-210,-8960,-2170,,,,,,,0x03,
9793,-717,664,104,-2870,-11970,-3010,,,,,,,0x03,
9803,-704,670,99,-2730,-11200,-3010,,,,,,,0x03,
9812,-706,672,95,-1960,-8820,-2310,,,,,,,0x03,
9822,-710,670,89,-630,-6370,-1960,,,,,,,0x03,
9831,-718,670,86,280,-4690,-1400,,,,,,,0x03,
9841,-722,676,84,1260,-3290,-1260,,,,,,,0x03,
9851,-723,690,87,2030,-2170,-1330,,,,,,,0x03,
9860,-721,701,92,1890,-1890,-1470,,,,,,,0x03,
9870,-720,700,104,-140,-2520,-1680,,,,,,,0x03,
9880,-711,692,112,-3010,-3990,-2170,,,,,,,0x03,
9889,-703,686,106,-4830,-5180,-2660,,,,,,,0x03,
9899,-704,675,98,-4970,-5040,-2800,,,,,,,0x03,
9909,-710,667,106,-4480,-4830,-2730,,,,,,,0x03,
9918,-713,677,104,-3500,-4900,-2660,,,,,,,0x03,
9928,-711,692,97,-3010,-4690,-2170,,,,,,,0x03,
9937,-709,697,98,-3710,-4130,-1750,,,,,,,0x03,
9947,-714,693,95,-4690,-3500,-1680,,,,,,,0x03,
9957,-717,684,90,-5460,-3360,-1750,,,,,,,0x03,
9966,-721,666,88,-6090,-3220,-1610,,,,,,,0x03,
9976,-729,650,92,-6300,-3010,-1400,,,,,,,0x03,
9986,-738,651,97,-4830,-3010,-1330,,,,,,,0x03,
9995,-741,660,100,-3290,-3290,-1190,,,,,,,0x03,
10005,-733,666,103,-2660,-3290,-1120,,,,,,,0x03,
10015,-727,659,104,-3010,-3220,-980,,,,,,,0x03,
10024,-730,652,102,-2590,-3150,-1120,,,,,,,0x03,
10034,-734,637,104,-1610,-3220,-1190,,,,,,,0x03,
10044,-738,639,109,-350,-2940,-1120,,,,,,,0x03,
10053,-738,657,121,1540,-2380,-1120,,,,,,,0x03,
10063,-729,663,133,1400,-2310,-980,,,,,,,0x03,
10072,-713,677,136,-350,-2310,-1120,,,,,,,0x03,
10082,-708,673,129,-1820,-2450,-1330,,,,,,,0x03,
10092,-711,652,121,-2450,-2450,-1470,,,,,,,0x03,
10101,-718,648,119,-1330,-2240,-1540,,,,,,,0x03,
10111,-725,644,117,560,-1820,-1330,,,,,,,0x03,
10121,-727,646,117,2240,-1540,-910,,,,,,,0x03,
10130,-724,666,119,3710,-1190,-840,,,,,,,0x03,
10140,-719,676,118,3920,-840,-700,,,,,,,0x03,
10150,-714,686,113,3290,-630,-700,,,,,,,0x03,
10159,-715,678,110,2100,-490,-840,,,,,,,0x03,
10169,-719,669,110,1260,-70,-910,,,,,,,0x03,
10178,-722,668,112,1820,490,-980,,,,,,,0x03,
10188,-720,667,114,3010,1330,-910,,,,,,,0x03,
10198,-715,670,116,3990,2170,-770,,,,,,,0x03,
10207,-712,669,117,4690,2800,-700,,,,,,,0x03,
10217,-714,664,120,4970,3220,-700,,,,,,,0x03,
10227,-712,652,119,5040,3150,-560,,,,,,,0x03,
10236,-717,642,115,4970,3360,0,,,,,,,0x03,
10246,-727,649,117,6090,3430,420,,,,,,,0x03,
10256,-736,665,116,7140,3640,630,,,,,,,0x03,
10265,-732,679,111,6440,3780,700,,,,,,,0x03,
10275,-724,682,107,3640,3920,840,,,,,,,0x03,
10284,-722,670,105,770,4060,700,,,,,,,0x03,
10294,-728,654,104,-210,3990,560,,,,,,,0x03,
10304,-731,654,101,420,3780,700,,,,,,,0x03,
10313,-731,662,99,1120,3570,980,,,,,,,0x03,
10323,-728,658,97,1330,3290,1260,,,,,,,0x03,
10333,-729,658,94,1610,2940,1190,,,,,,,0x03,
10342,-734,652,92,1890,2800,1050,,,,,,,0x03,
10352,-737,650,92,2380,2380,910,,,,,,,0x03,
10362,-733,657,93,3150,2100,770,,,,,,,0x03,
10371,-731,665,95,3850,1960,560,,,,,,,0x03,
10381,-724,678,100,3780,1750,350,,,,,,,0x03,
10391,-721,681,103,3220,1680,0,,,,,,,0x03,
10400,-720,670,98,2800,1540,-420,,,,,,,0x03,
10410,-718,659,98,3360,1400,-910,,,,,,,0x03,
10419,-717,657,95,4900,1330,-1330,,,,,,,0x03,
10429,-714,665,95,6930,1330,-1470,,,,,,,0x03,
10439,-711,682,93,8190,1400,-1470,,,,,,,0x03,
10448,-708,691,88,8260,1400,-1330,,,,,,,0x03,
10458,-703,692,85,7350,1260,-1260,,,,,,,0x03,
10468,-707,690,80,6300,1050,-1260,,,,,,,0x03,
10477,-712,682,77,5040,770,-1050,,,,,,,0x03,
10487,-718,673,77,3850,490,-770,,,,,,,0x03,
10497,-722,675,79,3710,140,-770,,,,,,,0x03,
10506,-728,676,83,3010,140,-630,,,,,,,0x03,
10516,-728,674,87,1750,140,-560,,,,,,,0x03,
10525,-725,670,88,910,140,-630,,,,,,,0x03,
10535,-720,656,87,770,70,-560,,,,,,,0x03,
10545,-724,647,88,1190,210,-420,,,,,,,0x03,
10554,-731,651,85,2800,280,-420,,,,,,,0x03,
10564,-729,661,86,3920,420,-350,,,,,,,0x03,
10574,-726,680,86,3850,700,-280,,,,,,,0x03,
10583,-726,679,85,2590,910,-210,,,,,,,0x03,
10593,-730,664,81,980,910,-140,,,,,,,0x03,
10603,-732,658,79,350,840,-280,,,,,,,0x03,
10612,-733,660,80,420,770,-350,,,,,,,0x03,
10622,-732,660,78,420,840,-70,,,,,,,0x03,
10631,-728,667,79,0,770,0,,,,,,,0x03,
10641,-723,676,79,-70,770,-70,,,,,,,0x03,
10651,-718,672,77,-280,700,0,,,,,,,0x03,
10660,-719,660,75,-840,490,350,,,,,,,0x03,
10670,-723,667,76,0,70,420,,,,,,,0x03,
10680,-727,684,77,910,-210,840,,,,,,,0x03,
10689,-728,712,73,-280,-490,1400,,,,,,,0x03,
10699,-724,716,69,-4060,-840,1540,,,,,,,0x03,
10709,-725,702,68,-9240,-1120,1260,,,,,,,0x03,
10718,-727,671,68,-13020,-1540,630,,,,,,,0x03,
10728,-726,657,72,-14070,-2240,70,,,,,,,0x03,
10737,-725,655,79,-12600,-2450,-280,,,,,,,0x03,
10747,-725,648,83,-10640,-2450,0,,,,,,,0x03,
10757,-723,645,88,-8330,-2380,210,,,,,,,0x03,
10766,-723,648,91,-5740,-2170,210,,,,,,,0x03,
10776,-720,653,93,-3710,-1960,280,,,,,,,0x03,
10786,-721,655,93,-2660,-1820,280,,,,,,,0x03,
10795,-724,650,91,-2100,-1890,280,,,,,,,0x03,
10805,-726,656,93,-1400,-1820,210,,,,,,,0x03,
10815,-727,666,98,-1050,-1470,350,,,,,,,0x03,
10824,-725,677,100,-1400,-1120,560,,,,,,,0x03,
10834,-722,672,97,-2450,-910,840,,,,,,,0x03,
10844,-717,664,92,-3150,-980,770,,,,,,,0x03,
10853,-722,654,89,-3290,-980,560,,,,,,,0x03,
10863,-729,653,91,-2170,-1050,350,,,,,,,0x03,
10872,-731,667,92,-490,-1120,140,,,,,,,0x03,
10882,-728,667,90,140,-1050,280,,,,,,,0x03,
10892,-725,666,89,420,-1050,280,,,,,,,0x03,
10901,-724,670,89,1400,-1260,-280,,,,,,,0x03,
10911,-723,673,87,2170,-1610,-630,,,,,,,0x03,
10921,-724,679,87,2730,-1820,-1050,,,,,,,0x03,
10930,-719,685,90,3640,-1890,-1540,,,,,,,0x03,
10940,-717,668,86,4060,-1960,-1750,,,,,,,0x03,
10950,-716,651,82,4830,-2310,-1890,,,,,,,0x03,
10959,-719,649,83,6370,-2380,-1960,,,,,,,0x03,
10969,-723,657,86,7700,-2310,-1680,,,,,,,0x03,
10978,-725,677,96,7630,-2240,-1330,,,,,,,0x03,
10988,-718,694,103,6090,-1750,-1260,,,,,,,0x03,
10998,-710,693,103,3990,-1260,-1120,,,,,,,0x03,
11007,-706,682,102,2590,-980,-1050,,,,,,,0x03,
11017,-709,666,101,1820,-770,-980,,,,,,,0x03,
11027,-719,652,98,2310,-280,-840,,,,,,,0x03,
11036,-731,641,94,3640,140,-840,,,,,,,0x03,
11046,-736,641,89,4760,350,-630,,,,,,,0x03,
11056,-738,647,81,5530,490,-490,,,,,,,0x03,
11065,-738,659,76,5250,560,-350,,,,,,,0x03,
11075,-741,667,73,3430,630,-280,,,,,,,0x03,
11084,-742,666,70,1190,350,-350,,,,,,,0x03,
11094,-740,664,70,-560,-140,-420,,,,,,,0x03,
11104,-734,667,77,-2170,-420,-490,,,,,,,0x03,
11113,-729,680,84,-2940,-630,-560,,,,,,,0x03,
11123,-720,683,88,-3780,-770,-490,,,,,,,0x03,
11133,-715,677,88,-4620,-840,-280,,,,,,,0x03,
11142,-713,662,87,-4620,-910,-210,,,,,,,0x03,
11152,-721,645,84,-3920,-910,-140,,,,,,,0x03,
11162,-729,634,84,-2240,-980,0,,,,,,,0x03,
11171,-734,638,85,-350,-910,140,,,,,,,0x03,
11181,-735,649,83,1120,-700,420,,,,,,,0x03,
11191,-730,659,83,1470,-630,700,,,,,,,0x03,
11200,-728,665,87,700,-630,770,,,,,,,0x03,
11210,-727,671,91,-70,-490,630,,,,,,,0x03,
11219,-724,670,94,-560,-280,560,,,,,,,0x03,
11229,-719,664,96,-560,0,630,,,,,,,0x03,
11239,-718,654,99,-70,420,840,,,,,,,0x03,
11248,-723,649,96,1400,770,840,,,,,,,0x03,
11258,-725,657,96,3360,980,980,,,,,,,0x03,
11268,-720,678,98,4060,1610,1120,,,,,,,0x03,
11277,-714,689,94,4270,2100,1470,,,,,,,0x03,
11287,-706,683,90,2940,2450,2170,,,,,,,0x03,
11297,-711,675,85,980,2590,2520,,,,,,,0x03,
11306,-722,670,84,70,2450,2590,,,,,,,0x03,
11316,-729,679,82,0,2030,2590,,,,,,,0x03,
11325,-733,693,79,-420,1610,2660,,,,,,,0x03,
11335,-732,702,71,-2030,1400,2730,,,,,,,0x03,
11345,-728,689,76,-4970,1400,2660,,,,,,,0x03,
11354,-730,682,79,-5600,980,1960,,,,,,,0x03,
11364,-727,671,77,-4620,140,1400,,,,,,,0x03,
11374,-725,662,78,-3640,-350,1190,,,,,,,0x03,
11383,-730,646,78,-1750,-630,1260,,,,,,,0x03,
11393,-734,644,84,280,-490,1190,,,,,,,0x03,
11403,-732,669,94,2590,70,770,,,,,,,0x03,
11412,-721,699,99,4060,700,420,,,,,,,0x03,
11422,-707,707,101,2940,1050,350,,,,,,,0x03,
11431,-705,698,92,1890,1190,-70,,,,,,,0x03,
11441,-711,676,81,1820,1330,-490,,,,,,,0x03,
11451,-722,656,72,2520,1470,-980,,,,,,,0x03,
11460,-730,644,68,4200,1330,-1330,,,,,,,0x03,
11470,-726,658,69,6300,1330,-1540,,,,,,,0x03,
11480,-723,679,73,7350,1330,-1400,,,,,,,0x03,
11489,-724,688,68,6860,1050,-1120,,,,,,,0x03,
11499,-724,687,61,5390,630,-1330,,,,,,,0x03,
11509,-718,670,62,3640,420,-1820,,,,,,,0x03,
11518,-719,661,61,3850,140,-2240,,,,,,,0x03,
11528,-717,663,63,4970,-70,-2380,,,,,,,0x03,
11538,-712,674,66,5530,-140,-2310,,,,,,,0x03,
11547,-707,688,71,5670,-140,-2380,,,,,,,0x03,
11557,-706,689,67,4550,-140,-2170,,,,,,,0x03,
11566,-715,661,58,2800,-420,-1890,,,,,,,0x03,
11576,-723,651,57,2450,-840,-1890,,,,,,,0x03,
11586,-730,671,63,2870,-910,-2240,,,,,,,0x03,
11595,-727,685,66,2240,-840,-2100,,,,,,,0x03,
11605,-720,680,65,840,-980,-1960,,,,,,,0x03,
11615,-716,675,64,-70,-1330,-2030,,,,,,,0x03,
11624,-721,675,66,-210,-1330,-2240,,,,,,,0x03,
11634,-726,672,65,-210,-1400,-2240,,,,,,,0x03,
11644,-730,665,63,-70,-1680,-2310,,,,,,,0x03,
11653,-734,650,61,-70,-1890,-2170,,,,,,,0x03,
11663,-738,648,64,280,-2030,-2100,,,,,,,0x03,
11672,-738,658,64,560,-2030,-2030,,,,,,,0x03,
11682,-738,671,68,-210,-2100,-1750,,,,,,,0x03,
11692,-730,684,71,-1820,-2100,-1540,,,,,,,0x03,
11701,-723,686,70,-3920,-2100,-1610,,,,,,,0x03,
11711,-717,669,66,-5670,-2380,-1540,,,,,,,0x03,
11721,-722,653,68,-6020,-2800,-1540,,,,,,,0x03,
11730,-731,648,71,-4410,-3010,-1540,,,,,,,0x03,
11740,-740,639,72,-2450,-3150,-1120,,,,,,,0x03,
11750,-744,650,71,-420,-3290,-980,,,,,,,0x03,
11759,-738,673,75,840,-3220,-1190,,,,,,,0x03,
11769,-727,687,76,630,-3080,-1190,,,,,,,0x03,
11778,-718,684,73,-840,-3220,-1330,,,,,,,0x03,
11788,-720,663,72,-2170,-3500,-1470,,,,,,,0x03,
11798,-727,650,74,-2100,-3640,-1610,,,,,,,0x03,
11807,-732,653,77,-1400,-3570,-1610,,,,,,,0x03,
11817,-731,656,80,-1540,-3430,-1190,,,,,,,0x03,
11827,-729,654,82,-2310,-3290,-770,,,,,,,0x03,
11836,-726,661,86,-3220,-3010,-490,,,,,,,0x03,
11846,-722,677,91,-3430,-2730,-490,,,,,,,0x03,
11856,-719,678,90,-4270,-2450,-280,,,,,,,0x03,
11865,-717,670,89,-4410,-2380,-280,,,,,,,0x03,
11875,-720,657,88,-3780,-2170,-210,,,,,,,0x03,
11885,-728,639,85,-2520,-1890,0,,,,,,,0x03,
11894,-735,636,87,-980,-1750,210,,,,,,,0x03,
11904,-738,641,87,630,-1470,630,,,,,,,0x03,
11913,-737,651,87,910,-1120,1260,,,,,,,0x03,
11923,-732,672,91,210,-700,1470,,,,,,,0x03,
11933,-730,678,91,-1820,-350,1470,,,,,,,0x03,
11942,-727,671,88,-3920,-280,1400,,,,,,,0x03,
11952,-725,676,89,-4550,-210,980,,,,,,,0x03,
11962,-727,670,87,-4410,0,700,,,,,,,0x03,
11971,-729,644,81,-4550,-70,840,,,,,,,0x03,
11981,-733,627,78,-3360,-280,770,,,,,,,0x03,
11991,-735,638,79,-280,-350,700,,,,,,,0x03,
12000,-737,664,81,1820,-210,980,,,,,,,0x03,
12010,-729,686,82,1960,-210,1050,,,,,,,0x03,
12019,-722,682,78,140,-350,1050,,,,,,,0x03,
12029,-717,663,76,-1540,-560,840,,,,,,,0x03,
12039,-721,651,79,-1750,-840,560,,,,,,,0x03,
12048,-723,657,85,-700,-910,490,,,,,,,0x03,
12058,-721,669,90,420,-770,840,,,,,,,0x03,
12068,-720,671,88,770,-560,1120,,,,,,,0x03,
12077,-722,658,84,210,-560,1330,,,,,,,0x03,
12087,-725,646,83,350,-630,1120,,,,,,,0x03,
12097,-727,653,86,2030,-560,700,,,,,,,0x03,
12106,-726,659,86,3780,-350,700,,,,,,,0x03,
12116,-722,661,86,4760,-280,840,,,,,,,0x03,
12125,-717,663,82,5530,-280,770,,,,,,,0x03,
12135,-718,659,80,6020,-70,980,,,,,,,0x03,
12145,-723,659,82,6580,140,1260,,,,,,,0x03,
12154,-730,673,82,6930,280,1330,,,,,,,0x03,
12164,-734,681,80,6020,350,1680,,,,,,,0x03,
12174,-737,672,80,4270,700,1750,,,,,,,0x03,
12183,-736,666,79,3080,770,1540,,,,,,,0x03,
12193,-732,680,81,2870,770,1190,,,,,,,0x03,
12203,-722,687,83,1890,1050,980,,,,,,,0x03,
12212,-717,678,81,630,1120,1050,,,,,,,0x03,
12222,-716,673,84,-140,1120,1190,,,,,,,0x03,
12231,-721,676,80,420,980,1190,,,,,,,0x03,
12241,-721,680,73,1120,980,1260,,,,,,,0x03,
12251,-721,679,68,700,840,1050,,,,,,,0x03,
12260,-726,671,65,-70,630,910,,,,,,,0x03,
12270,-731,667,61,-140,210,630,,,,,,,0x03,
12280,-732,673,62,630,-70,350,,,,,,,0x03,
12289,-729,674,64,980,-560,280,,,,,,,0x03,
12299,-724,677,67,700,-910,210,,,,,,,0x03,
12309,-721,678,70,910,-1120,-210,,,,,,,0x03,
12318,-722,664,71,770,-1190,-280,,,,,,,0x03,
12328,-726,650,73,840,-1400,-350,,,,,,,0x03,
12338,-726,653,76,1890,-1400,-560,,,,,,,0x03,
12347,-727,665,81,3360,-1120,-630,,,,,,,0x03,
12357,-725,672,82,3290,-630,-420,,,,,,,0x03,
12366,-721,671,83,2100,-420,-490,,,,,,,0x03,
12376,-719,672,81,1330,-210,-560,,,,,,,0x03,
12386,-719,678,83,1400,140,-700,,,,,,,0x03,
12395,-720,677,80,1400,420,-560,,,,,,,0x03,
12405,-717,673,76,770,490,-420,,,,,,,0x03,
12415,-718,671,78,490,770,-350,,,,,,,0x03,
12424,-723,674,78,1120,1120,-350,,,,,,,0x03,
12434,-723,678,75,1400,1190,-420,,,,,,,0x03,
12444,-717,687,70,1050,980,-560,,,,,,,0x03,
12453,-720,686,65,140,840,-700,,,,,,,0x03,
12463,-726,665,62,-1400,350,-770,,,,,,,0x03,
12472,-733,652,62,-2240,-280,-1050,,,,,,,0x03,
12482,-740,654,70,-1890,-1400,-1470,,,,,,,0x03,
12492,-755,649,82,-4480,-5110,-1680,,,,,,,0x03,
12501,-743,649,80,-7840,-11130,-2870,,,,,,,0x03,
12511,-710,665,75,-6790,-13020,-3710,,,,,,,0x03,
12521,-712,678,78,-4620,-12320,-2870,,,,,,,0x03,
12530,-709,681,74,-3640,-11200,-2310,,,,,,,0x03,
12540,-706,687,75,-3080,-8750,-1750,,,,,,,0x03,
12550,-711,686,79,-2660,-6230,-1260,,,,,,,0x03,
12559,-714,679,76,-1750,-4060,-1260,,,,,,,0x03,
12569,-718,665,75,-1400,-2800,-1050,,,,,,,0x03,
12578,-722,659,73,-980,-2100,-770,,,,,,,0x03,
12588,-730,670,81,210,-1540,-770,,,,,,,0x03,
12598,-734,678,84,420,-1820,-840,,,,,,,0x03,
12607,-729,681,82,-280,-1960,-910,,,,,,,0x03,
12617,-724,670,83,-1120,-1330,-910,,,,,,,0x03,
12627,-726,638,93,-2030,-1050,-770,,,,,,,0x03,
12636,-727,631,90,-1190,-1610,-910,,,,,,,0x03,
12646,-724,649,87,2170,-1610,-910,,,,,,,0x03,
12656,-723,667,100,3850,-1330,-490,,,,,,,0x03,
12665,-726,675,100,3080,-1680,-490,,,,,,,0x03,
12675,-724,666,88,1680,-1960,-770,,,,,,,0x03,
12685,-728,647,85,560,-1680,-910,,,,,,,0x03,
12694,-734,624,104,-490,-2240,-910,,,,,,,0x03,
12704,-725,624,90,-350,-3290,-840,,,,,,,0x03,
12713,-715,660,70,2310,-3010,-350,,,,,,,0x03,
12723,-714,684,70,3780,-2030,630,,,,,,,0x03,
12733,-718,692,69,3220,-1260,1190,,,,,,,0x03,
12742,-727,697,68,2170,-910,1120,,,,,,,0x03,
12752,-733,693,86,70,-910,700,,,,,,,0x03,
12762,-726,681,76,-2870,-1400,420,,,,,,,0x03,
12771,-717,680,57,-3430,-1330,210,,,,,,,0x03,
12781,-723,663,57,-3920,-1330,140,,,,,,,0x03,
12791,-733,660,63,-3220,-1540,-140,,,,,,,0x03,
12800,-742,680,68,-630,-1960,-700,,,,,,,0x03,
12810,-743,687,80,770,-2520,-910,,,,,,,0x03,
12819,-731,679,79,-420,-3080,-980,,,,,,,0x03,
12829,-722,663,73,-1960,-3430,-1190,,,,,,,0x03,
12839,-724,652,73,-1680,-3710,-1610,,,,,,,0x03,
12848,-727,664,78,350,-3920,-1820,,,,,,,0x03,
12858,-727,692,91,2100,-3850,-1750,,,,,,,0x03,
12868,-720,703,105,1190,-3640,-1470,,,,,,,0x03,
12877,-718,690,98,-1540,-3430,-1470,,,,,,,0x03,
12887,-717,656,90,-4060,-3500,-1680,,,,,,,0x03,
12897,-724,640,84,-4480,-3290,-1680,,,,,,,0x03,
12906,-733,650,92,-2450,-3150,-1470,,,,,,,0x03,
12916,-734,681,93,-350,-2940,-1190,,,,,,,0x03,
12925,-725,688,98,-840,-2730,-630,,,,,,,0x03,
12935,-723,690,100,-3430,-2170,-630,,,,,,,0x03,
12945,-724,689,100,-4760,-1890,-1190,,,,,,,0x03,
12954,-724,687,92,-4900,-1750,-1890,,,,,,,0x03,
12964,-724,671,84,-3920,-1820,-2310,,,,,,,0x03,
12974,-737,650,77,-2380,-1890,-2800,,,,,,,0x03,
12983,-750,646,66,1470,-1890,-3640,,,,,,,0x03,
12993,-751,650,65,6440,-1680,-4130,,,,,,,0x03,
13003,-740,653,76,10570,-1470,-4060,,,,,,,0x03,
13012,-733,657,91,13860,-1260,-4060,,,,,,,0x03,
13022,-727,669,93,15470,-910,-4130,,,,,,,0x03,
13032,-723,683,108,14770,0,-4130,,,,,,,0x03,
13041,-724,681,118,11690,1120,-3710,,,,,,,0x03,
13051,-730,687,109,8890,2450,-3570,,,,,,,0x03,
13060,-723,691,103,6370,3430,-3850,,,,,,,0x03,
13070,-716,670,98,3640,3920,-3780,,,,,,,0x03,
13080,-719,640,91,1750,4340,-3850,,,,,,,0x03,
13089,-728,642,86,1190,4550,-3920,,,,,,,0x03,
13099,-738,638,85,1330,4690,-3500,,,,,,,0x03,
13109,-741,632,80,2170,4550,-3010,,,,,,,0x03,
13118,-737,637,77,3640,4270,-2730,,,,,,,0x03,
13128,-735,650,80,4550,4200,-2380,,,,,,,0x03,
13138,-734,652,82,4340,3990,-1960,,,,,,,0x03,
13147,-734,671,81,4550,3500,-2030,,,,,,,0x03,
13157,-726,680,84,3990,3010,-2170,,,,,,,0x03,
13166,-718,672,75,2240,2520,-2030,,,,,,,0x03,
13176,-718,658,68,910,1820,-2170,,,,,,,0x03,
13186,-727,648,64,210,1120,-2310,,,,,,,0x03,
13195,-740,634,61,-420,770,-2030,,,,,,,0x03,
13205,-747,622,62,-1260,210,-1680,,,,,,,0x03,
13215,-747,638,68,-1120,-560,-1680,,,,,,,0x03,
13224,-740,662,67,-770,-1120,-1680,,,,,,,0x03,
13234,-730,661,70,-2660,-1470,-980,,,,,,,0x03,
13244,-742,656,81,-6300,-3220,-910,,,,,,,0x03,
13253,-750,640,83,-9310,-7070,-1750,,,,,,,0x03,
13263,-753,618,88,-10640,-11060,-2380,,,,,,,0x03,
13272,-759,604,104,-11690,-15680,-2870,,,,,,,0x03,
13282,-745,599,109,-11760,-19040,-3010,,,,,,,0x03,
13292,-724,612,138,-11270,-18130,-1960,,,,,,,0x03,
13301,-703,624,131,-14210,-16310,70,,,,,,,0x03,
13311,-693,671,72,-13720,-10780,1400,,,,,,,0x03,
13321,-704,694,74,-11480,-6370,2730,,,,,,,0x03,
13330,-727,663,77,-10920,-3850,3570,,,,,,,0x03,
13340,-752,630,80,-10710,-2730,3640,,,,,,,0x03,
13350,-769,604,83,-9520,-2590,2800,,,,,,,0x03,
13359,-775,591,78,-7350,-2240,2240,,,,,,,0x03,
13369,-765,610,84,-4900,-2380,1820,,,,,,,0x03,
13378,-748,646,83,-1820,-2100,1820,,,,,,,0x03,
13388,-729,675,87,-420,-1960,2310,,,,,,,0x03,
13398,-719,676,92,-1540,-1540,2520,,,,,,,0x03,
13407,-719,676,92,-2310,-1050,2450,,,,,,,0x03,
13417,-726,665,95,-2730,-770,2590,,,,,,,0x03,
13427,-737,655,92,-1820,-560,2450,,,,,,,0x03,
13436,-748,655,96,-420,-630,1890,,,,,,,0x03,
13446,-750,676,98,1330,-770,1050,,,,,,,0x03,
13456,-745,698,101,1960,-840,350,,,,,,,0x03,
13465,-736,711,98,980,-840,-420,,,,,,,0x03,
13475,-729,697,97,-630,-770,-1050,,,,,,,0x03,
13485,-729,673,98,-1400,-910,-1470,,,,,,,0x03,
13494,-733,651,97,140,-1400,-1890,,,,,,,0x03,
13504,-734,650,107,3150,-1680,-2170,,,,,,,0x03,
13513,-735,659,117,5320,-1680,-2100,,,,,,,0x03,
13523,-727,672,118,6230,-1680,-2100,,,,,,,0x03,
13533,-719,684,120,5530,-1540,-2100,,,,,,,0x03,
13542,-719,690,118,4060,-1260,-2380,,,,,,,0x03,
13552,-724,686,108,2800,-1190,-2800,,,,,,,0x03,
13562,-736,667,96,2310,-1260,-3080,,,,,,,0x03,
13571,-751,634,83,2870,-1120,-3500,,,,,,,0x03,
13581,-764,637,78,7700,-1050,-4340,,,,,,,0x03,
13591,-763,662,73,13720,-1260,-4690,,,,,,,0x03,
13600,-750,686,67,16870,-1260,-4480,,,,,,,0x03,
13610,-737,682,77,16660,-1050,-4340,,,,,,,0x03,
13619,-721,671,101,14840,-630,-4410,,,,,,,0x03,
13629,-717,658,106,13510,-210,-4690,,,,,,,0x03,
13639,-716,626,109,12810,140,-4340,,,,,,,0x03,
13648,-719,610,112,12670,700,-3850,,,,,,,0x03,
13658,-728,621,117,13510,1890,-3500,,,,,,,0x03,
13668,-731,661,122,14070,3570,-3150,,,,,,,0x03,
13677,-723,695,121,11830,5600,-2590,,,,,,,0x03,
13687,-712,705,112,6860,7140,-2170,,,,,,,0x03,
13697,-710,678,100,1260,7980,-1890,,,,,,,0x03,
13706,-721,635,92,-2940,8470,-1820,,,,,,,0x03,
13716,-740,608,84,-3010,8400,-2030,,,,,,,0x03,
13725,-753,597,77,-630,8120,-1610,,,,,,,0x03,
13735,-757,593,70,1610,7770,-490,,,,,,,0x03,
13745,-758,598,67,2450,7350,420,,,,,,,0x03,
13754,-758,622,64,3430,6650,700,,,,,,,0x03,
13764,-757,638,61,3080,5880,1050,,,,,,,0x03,
13774,-754,650,59,1050,5110,1470,,,,,,,0x03,
13783,-752,654,60,-700,4480,1540,,,,,,,0x03,
13793,-753,655,64,-1680,3990,1540,,,,,,,0x03,
13803,-747,665,68,-1260,3360,1120,,,,,,,0x03,
13812,-738,668,66,-630,2520,630,,,,,,,0x03,
13822,-734,664,63,-70,1820,280,,,,,,,0x03,
13832,-736,647,56,700,1260,0,,,,,,,0x03,
13841,-743,611,53,1400,700,70,,,,,,,0x03,
13851,-752,593,55,2870,210,490,,,,,,,0x03,
13860,-763,610,56,6580,-280,630,,,,,,,0x03,
13870,-760,645,60,8890,-490,1190,,,,,,,0x03,
13880,-748,673,63,7070,-630,1820,,,,,,,0x03,
13889,-740,675,64,2310,-840,2030,,,,,,,0x03,
13899,-742,676,66,-1610,-1120,1680,,,,,,,0x03,
13909,-742,672,70,-3500,-1190,1120,,,,,,,0x03,
13918,-738,662,68,-5040,-1120,1050,,,,,,,0x03,
13928,-735,649,67,-5740,-1260,1120,,,,,,,0x03,
13938,-741,631,68,-5250,-1470,980,,,,,,,0x03,
13947,-756,618,81,-4900,-2380,980,,,,,,,0x03,
13957,-821,613,141,-10360,-9730,420,,,,,,,0x03,
13966,-791,624,145,-18130,-26810,-3220,,,,,,,0x03,
13976,-641,655,76,-13930,-27790,-4480,,,,,,,0x03,
13986,-647,680,80,-10150,-14210,1050,,,,,,,0x03,
13995,-698,667,76,-10920,-7140,2940,,,,,,,0x03,
14005,-742,663,81,-10570,-3990,3220,,,,,,,0x03,
14015,-754,679,81,-9170,-2030,3360,,,,,,,0x03,
14024,-743,692,74,-9100,-560,2940,,,,,,,0x03,
14034,-733,684,77,-10640,70,2800,,,,,,,0x03,
14044,-736,669,72,-12180,70,2450,,,,,,,0x03,
14053,-742,650,69,-11760,210,2240,,,,,,,0x03,
14063,-749,638,78,-9380,-70,1820,,,,,,,0x03,
14072,-749,648,78,-6020,-560,1260,,,,,,,0x03,
14082,-742,662,76,-3080,-840,1120,,,,,,,0x03,
14092,-734,661,84,-2310,-1260,980,,,,,,,0x03,
14101,-734,666,89,-1890,-1610,280,,,,,,,0x03,
14111,-733,668,88,-980,-2030,-140,,,,,,,0x03,
14121,-730,662,102,-910,-2240,-280,,,,,,,0x03,
14130,-728,654,108,-2240,-2730,-420,,,,,,,0x03,
14140,-722,663,96,-2310,-2800,-350,,,,,,,0x03,
14150,-727,655,99,-3150,-2380,70,,,,,,,0x03,
14159,-732,660,99,-3570,-1960,210,,,,,,,0x03,
14169,-738,668,98,-3080,-1750,280,,,,,,,0x03,
14179,-734,672,99,-3710,-1470,490,,,,,,,0x03,
14188,-733,677,101,-4200,-910,420,,,,,,,0x03,
14198,-730,666,99,-4620,-700,280,,,,,,,0x03,
14207,-734,653,95,-4410,-630,70,,,,,,,0x03,
14217,-745,629,90,-3500,-770,-140,,,,,,,0x03,
14227,-751,599,86,-2170,-980,-140,,,,,,,0x03,
14236,-751,612,91,1330,-840,-140,,,,,,,0x03,
14246,-748,644,97,5670,-630,-70,,,,,,,0x03,
14256,-736,670,96,7420,-210,350,,,,,,,0x03,
14265,-733,688,101,6090,350,560,,,,,,,0x03,
14275,-735,674,109,2310,630,140,,,,,,,0x03,
14285,-734,651,103,-910,210,-420,,,,,,,0x03,
14294,-739,629,100,-2100,70,-490,,,,,,,0x03,
14304,-746,614,103,-1750,-770,-420,,,,,,,0x03,
14313,-742,629,110,140,-1120,-210,,,,,,,0x03,
14323,-737,653,111,1680,-1400,210,,,,,,,0x03,
14333,-730,660,109,700,-1470,490,,,,,,,0x03,
14342,-731,658,100,-1260,-1470,560,,,,,,,0x03,
14352,-736,646,96,-2660,-1330,490,,,,,,,0x03,
14362,-743,650,96,-2380,-1050,490,,,,,,,0x03,
14371,-743,650,95,-1680,-840,490,,,,,,,0x03,
14381,-737,662,98,-1260,-630,560,,,,,,,0x03,
14391,-733,673,100,-1120,-420,420,,,,,,,0x03,
14400,-723,686,104,-1120,-210,140,,,,,,,0x03,
14410,-720,683,99,-1400,-140,-210,,,,,,,0x03,
14419,-721,654,94,-2170,-350,-280,,,,,,,0x03,
14429,-733,632,98,-2100,-630,-350,,,,,,,0x03,
14439,-742,628,102,70,-1120,-490,,,,,,,0x03,
14448,-739,639,102,2520,-1680,-210,,,,,,,0x03,
14458,-732,657,107,2800,-2100,280,,,,,,,0x03,
14468,-726,660,108,490,-2590,560,,,,,,,0x03,
14477,-728,662,105,-1960,-2520,700,,,,,,,0x03,
14487,-733,669,105,-3360,-2030,840,,,,,,,0x03,
14497,-738,677,101,-4060,-1540,840,,,,,,,0x03,
14506,-738,673,100,-5530,-1120,840,,,,,,,0x03,
14516,-735,664,100,-7000,-700,770,,,,,,,0x03,
14526,-734,655,99,-7350,-420,490,,,,,,,0x03,
14535,-736,642,96,-6230,-490,210,,,,,,,0x03,
14545,-739,631,97,-4690,-630,210,,,,,,,0x03,
14554,-743,629,104,-2940,-770,350,,,,,,,0x03,
14564,-743,642,103,-420,-1260,70,,,,,,,0x03,
14574,-736,659,107,1050,-1610,140,,,,,,,0x03,
14583,-731,659,116,-70,-1960,140,,,,,,,0x03,
14593,-729,654,114,-2030,-2870,-70,,,,,,,0x03,
14603,-727,655,107,-2590,-3220,-210,,,,,,,0x03,
14612,-730,659,111,-2800,-3010,-70,,,,,,,0x03,
14622,-731,648,116,-3780,-3010,140,,,,,,,0x03,
14632,-733,650,113,-5110,-3360,420,,,,,,,0x03,
14641,-731,645,121,-6720,-3430,910,,,,,,,0x03,
14651,-731,642,121,-7770,-3500,1330,,,,,,,0x03,
14660,-725,663,112,-7700,-3150,1470,,,,,,,0x03,
14670,-723,659,117,-8190,-2240,1890,,,,,,,0x03,
14680,-725,637,111,-8330,-1400,2240,,,,,,,0x03,
14689,-735,622,112,-6300,-770,2100,,,,,,,0x03,
14699,-746,631,111,-2310,-560,1540,,,,,,,0x03,
14709,-744,651,117,1470,-630,1330,,,,,,,0x03,
14718,-738,662,116,1680,-630,1470,,,,,,,0x03,
14728,-735,660,110,140,-350,1260,,,,,,,0x03,
14738,-742,654,108,-1120,-140,980,,,,,,,0x03,
14747,-743,651,111,-1470,-70,840,,,,,,,0x03,
14757,-736,653,117,-1400,-350,980,,,,,,,0x03,
14766,-729,663,120,-2450,-490,1120,,,,,,,0x03,
14776,-722,677,126,-3640,-280,1120,,,,,,,0x03,
14786,-720,673,131,-5600,-140,1330,,,,,,,0x03,
14795,-720,665,124,-7350,0,1540,,,,,,,0x03,
14805,-725,638,120,-8470,490,1960,,,,,,,0x03,
14815,-733,615,123,-7630,910,2100,,,,,,,0x03,
14824,-737,632,122,-3990,1120,1890,,,,,,,0x03,
14834,-729,662,122,0,1050,1890,,,,,,,0x03,
14844,-719,682,117,1190,1050,2170,,,,,,,0x03,
14853,-721,681,107,0,910,2100,,,,,,,0x03,
14863,-732,655,102,-1820,700,1820,,,,,,,0x03,
14872,-743,660,101,-1260,280,1330,,,,,,,0x03,
14882,-745,669,106,350,-420,1120,,,,,,,0x03,
14892,-736,674,108,-420,-770,1120,,,,,,,0x03,
14901,-732,677,111,-2170,-910,840,,,,,,,0x03,
14911,-731,660,114,-3570,-980,420,,,,,,,0x03,
14921,-732,651,117,-3780,-980,70,,,,,,,0x03,
14930,-733,656,120,-2450,-980,-140,,,,,,,0x03,
14940,-730,655,121,-910,-1050,-210,,,,,,,0x03,
14950,-728,660,127,140,-1260,-280,,,,,,,0x03,
14959,-725,661,124,140,-1260,-420,,,,,,,0x03,
14969,-722,662,125,0,-1260,-560,,,,,,,0x03,
14979,-725,646,119,-560,-1260,-490,,,,,,,0x03,
14988,-727,642,119,-280,-1260,-280,,,,,,,0x03,
14998,-730,658,125,910,-1120,-140,,,,,,,0x03,
15007,-721,674,128,1050,-910,280,,,,,,,0x03,
15017,-717,681,130,-910,-700,630,,,,,,,0x03,
15027,-718,675,125,-3710,-420,770,,,,,,,0x03,
15036,-725,664,126,-5740,-280,630,,,,,,,0x03,
15046,-730,661,125,-6370,-140,420,,,,,,,0x03,
15056,-728,656,125,-6440,70,560,,,,,,,0x03,
15065,-725,655,122,-5810,0,560,,,,,,,0x03,
15075,-724,646,118,-5460,-140,700,,,,,,,0x03,
15085,-729,638,114,-5040,-280,910,,,,,,,0x03,
15094,-739,643,115,-3920,-420,840,,,,,,,0x03,
15104,-740,652,118,-2800,-700,840,,,,,,,0x03,
15113,-737,665,120,-2520,-840,910,,,,,,,0x03,
15123,-735,652,119,-3710,-980,910,,,,,,,0x03,
15133,-734,646,124,-4690,-980,700,,,,,,,0x03,
15142,-734,660,128,-3990,-980,280,,,,,,,0x03,
15152,-726,670,131,-3150,-980,140,,,,,,,0x03,
15162,-722,666,134,-3850,-910,140,,,,,,,0x03,
15171,-721,659,132,-4480,-910,0,,,,,,,0x03,
15181,-721,657,132,-3640,-770,-210,,,,,,,0x03,
15191,-724,653,129,-2800,-700,-70,,,,,,,0x03,
15200,-724,649,127,-1680,-700,-70,,,,,,,0x03,
15210,-729,647,128,-910,-700,0,,,,,,,0x03,
15219,-732,649,126,-350,-770,0,,,,,,,0x03,
15229,-733,646,125,140,-840,70,,,,,,,0x03,
15239,-730,650,122,490,-980,140,,,,,,,0x03,
15248,-725,653,129,420,-910,420,,,,,,,0x03,
15258,-724,658,133,350,-840,490,,,,,,,0x03,
15268,-721,665,136,630,-770,490,,,,,,,0x03,
15277,-715,665,134,420,-560,630,,,,,,,0x03,
15287,-721,659,131,0,-280,770,,,,,,,0x03,
15297,-731,644,126,-70,-210,630,,,,,,,0x03,
15306,-737,641,126,980,-280,490,,,,,,,0x03,
15316,-738,647,130,2310,-420,490,,,,,,,0x03,
15326,-732,651,130,2730,-420,700,,,,,,,0x03,
15335,-729,652,127,2450,-420,840,,,,,,,0x03,
15345,-731,647,121,1890,-560,910,,,,,,,0x03,
15354,-733,645,119,1470,-770,1050,,,,,,,0x03,
15364,-736,656,122,1330,-840,1120,,,,,,,0x03,
15374,-734,672,128,1260,-980,1120,,,,,,,0x03,
15383,-727,677,130,-140,-1050,1190,,,,,,,0x03,
15393,-719,678,132,-2030,-840,1050,,,,,,,0x03,
15403,-720,669,130,-3500,-700,840,,,,,,,0x03,
15412,-721,652,129,-3710,-700,700,,,,,,,0x03,
15422,-723,651,129,-2730,-630,560,,,,,,,0x03,
15432,-727,653,134,-1330,-350,630,,,,,,,0x03,
15441,-723,664,135,-140,-350,560,,,,,,,0x03,
15451,-717,669,132,560,-210,630,,,,,,,0x03,
15460,-715,664,130,-70,0,700,,,,,,,0x03,
15470,-721,658,128,-210,70,560,,,,,,,0x03,
15480,-727,656,125,210,0,420,,,,,,,0x03,
15489,-728,660,124,1190,0,280,,,,,,,0x03,
15499,-729,658,124,1470,-140,280,,,,,,,0x03,
15509,-729,657,125,1330,-280,280,,,,,,,0x03,
15518,-725,654,125,1260,-280,210,,,,,,,0x03,
15528,-726,651,130,1400,-140,210,,,,,,,0x03,
15538,-730,643,125,2170,-140,210,,,,,,,0x03,
15547,-730,637,123,3290,-280,140,,,,,,,0x03,
15557,-732,652,127,4970,-210,0,,,,,,,0x03,
15566,-736,657,122,6440,-210,-280,,,,,,,0x03,
15576,-737,644,116,6650,-350,-630,,,,,,,0x03,
15586,-736,637,117,6790,-490,-1120,,,,,,,0x03,
15595,-732,664,121,8960,-420,-1750,,,,,,,0x03,
15605,-722,678,127,10360,-280,-1820,,,,,,,0x03,
15615,-713,678,130,9310,-70,-1540,,,,,,,0x03,
15624,-709,691,130,8540,210,-1750,,,,,,,0x03,
15634,-709,701,133,7910,490,-2030,,,,,,,0x03,
15644,-707,698,127,6090,840,-2170,,,,,,,0x03,
15653,-708,692,119,3990,980,-2170,,,,,,,0x03,
15663,-712,686,120,2520,1050,-2170,,,,,,,0x03,
15673,-716,680,119,1680,1050,-2100,,,,,,,0x03,
15682,-717,673,112,840,910,-1890,,,,,,,0x03,
15692,-724,667,107,350,700,-1680,,,,,,,0x03,
15701,-731,666,105,280,420,-1610,,,,,,,0x03,
15711,-732,659,105,0,70,-1470,,,,,,,0x03,
15721,-731,658,107,-840,-70,-1120,,,,,,,0x03,
15730,-728,669,114,-910,-210,-980,,,,,,,0x03,
15740,-723,673,117,-1120,-280,-770,,,,,,,0x03,
15750,-721,656,111,-2800,-420,-350,,,,,,,0x03,
15759,-731,635,110,-3780,-420,-210,,,,,,,0x03,
15769,-746,618,111,-3430,-350,-280,,,,,,,0x03,
15779,-754,618,112,-1540,-420,-280,,,,,,,0x03,
15788,-752,632,113,490,-420,-140,,,,,,,0x03,
15798,-742,652,112,1540,-490,0,,,,,,,0x03,
15807,-732,654,111,560,-490,210,,,,,,,0x03,
15817,-730,648,110,-910,-350,280,,,,,,,0x03,
15827,-736,628,108,-1400,-420,280,,,,,,,0x03,
15836,-742,627,114,210,-350,140,,,,,,,0x03,
15846,-741,635,116,3220,-210,210,,,,,,,0x03,
15856,-729,645,121,5320,70,350,,,,,,,0x03,
15865,-725,646,121,6230,490,420,,,,,,,0x03,
15875,-726,635,111,7070,630,350,,,,,,,0x03,
15885,-729,637,104,8890,490,210,,,,,,,0x03,
15894,-731,653,106,11200,350,70,,,,,,,0x03,
15904,-732,663,102,12390,350,0,,,,,,,0x03,
15913,-733,663,99,12530,350,-140,,,,,,,0x03,
15923,-732,662,102,12390,350,-420,,,,,,,0x03,
15933,-729,662,108,12040,280,-770,,,,,,,0x03,
15942,-724,687,114,11550,140,-1050,,,,,,,0x03,
15952,-712,710,115,10430,280,-1050,,,,,,,0x03,
15962,-704,717,116,8260,560,-770,,,,,,,0x03,
15971,-699,714,107,6090,840,-910,,,,,,,0x03,
15981,-705,685,97,3850,770,-980,,,,,,,0x03,
15991,-718,669,93,2520,700,-1260,,,,,,,0x03,
16000,-730,667,92,3010,700,-1260,,,,,,,0x03,
16010,-732,666,89,3710,560,-980,,,,,,,0x03,
16019,-730,658,90,3290,280,-560,,,,,,,0x03,
16029,-734,643,87,1540,70,-140,,,,,,,0x03,
16039,-737,654,88,1190,0,70,,,,,,,0x03,
16048,-738,664,91,1400,-140,210,,,,,,,0x03,
16058,-736,661,92,0,-210,350,,,,,,,0x03,
16068,-734,670,91,-840,-140,210,,,,,,,0x03,
16077,-731,670,96,-1260,-70,-70,,,,,,,0x03,
16087,-724,665,100,-2100,-210,-140,,,,,,,0x03,
16097,-721,673,102,-2450,-140,-350,,,,,,,0x03,
16106,-723,665,99,-2450,-140,-420,,,,,,,0x03,
16116,-725,655,94,-2030,-280,-420,,,,,,,0x03,
16126,-729,648,90,-1120,-560,-280,,,,,,,0x03,
16135,-732,651,87,-70,-630,-140,,,,,,,0x03,
16145,-735,654,84,1330,-910,0,,,,,,,0x03,
16154,-733,644,85,910,-1190,210,,,,,,,0x03,
16164,-737,652,89,420,-1120,350,,,,,,,0x03,
16174,-734,661,95,420,-1190,420,,,,,,,0x03,
16183,-725,690,97,140,-1190,490,,,,,,,0x03,
16193,-720,699,100,-1890,-1050,630,,,,,,,0x03,
16203,-718,685,94,-4690,-980,350,,,,,,,0x03,
16212,-726,658,93,-6230,-980,-70,,,,,,,0x03,
16222,-736,632,93,-5880,-1120,-420,,,,,,,0x03,
16232,-740,632,97,-2730,-1330,-630,,,,,,,0x03,
16241,-733,648,99,420,-1540,-280,,,,,,,0x03,
16251,-723,666,105,2100,-1400,70,,,,,,,0x03,
16260,-719,683,104,1820,-1260,210,,,,,,,0x03,
16270,-721,678,103,210,-1120,140,,,,,,,0x03,
16280,-726,661,96,-2030,-1050,70,,,,,,,0x03,
16289,-738,635,90,-3220,-1050,70,,,,,,,0x03,
16299,-746,631,90,-2310,-1120,-140,,,,,,,0x03,
16309,-742,662,101,-70,-1260,-210,,,,,,,0x03,
16318,-723,690,105,-70,-1190,210,,,,,,,0x03,
16328,-711,695,104,-2520,-840,350,,,,,,,0x03,
16338,-715,677,100,-4970,-700,70,,,,,,,0x03,
16347,-726,647,95,-5670,-770,-280,,,,,,,0x03,
16357,-737,633,95,-4200,-910,-420,,,,,,,0x03,
16366,-741,642,96,-770,-1120,-350,,,,,,,0x03,
16376,-732,661,102,1960,-1050,-140,,,,,,,0x03,
16386,-723,678,104,2380,-980,0,,,,,,,0x03,
16395,-719,680,106,1050,-980,-210,,,,,,,0x03,
16405,-719,667,101,-1400,-1050,-350,,,,,,,0x03,
16415,-726,663,97,-2380,-1050,-350,,,,,,,0x03,
16424,-733,656,97,-2100,-1050,-140,,,,,,,0x03,
16434,-733,649,97,-1960,-1190,-70,,,,,,,0x03,
16444,-732,654,94,-1470,-1260,0,,,,,,,0x03,
16453,-728,660,96,-910,-1330,70,,,,,,,0x03,
16463,-733,656,92,-1190,-1540,140,,,,,,,0x03,
16473,-735,647,96,-1750,-1610,140,,,,,,,0x03,
16482,-737,658,100,-910,-1540,-70,,,,,,,0x03,
16492,-731,664,105,490,-1470,-70,,,,,,,0x03,
16501,-724,670,103,980,-1400,0,,,,,,,0x03,
16511,-727,660,96,1120,-1330,0,,,,,,,0x03,
16521,-734,639,96,1050,-1330,-210,,,,,,,0x03,
16530,-739,648,96,2730,-1260,-560,,,,,,,0x03,
16540,-737,650,101,3920,-1750,-420,,,,,,,0x03,
16550,-728,658,109,3570,-1750,0,,,,,,,0x03,
16559,-728,663,114,2660,-1820,70,,,,,,,0x03,
16569,-720,662,110,1400,-1960,140,,,,,,,0x03,
16579,-721,670,111,490,-1890,210,,,,,,,0x03,
16588,-722,657,112,-1190,-1960,210,,,,,,,0x03,
16598,-724,658,109,-1960,-1960,210,,,,,,,0x03,
16607,-723,665,109,-1540,-1750,210,,,,,,,0x03,
16617,-720,665,106,-1050,-1330,420,,,,,,,0x03,
16627,-719,676,107,-630,-980,490,,,,,,,0x03,
16636,-725,672,104,-630,-770,350,,,,,,,0x03,
16646,-727,649,96,-1610,-840,350,,,,,,,0x03,
16656,-733,651,92,-1330,-840,140,,,,,,,0x03,
16665,-735,681,97,770,-980,-70,,,,,,,0x03,
16675,-723,696,99,910,-1400,-70,,,,,,,0x03,
16685,-713,702,100,-1190,-1540,-140,,,,,,,0x03,
16694,-713,677,98,-3360,-1680,-490,,,,,,,0x03,
16704,-718,656,98,-3850,-1890,-770,,,,,,,0x03,
16713,-726,660,100,-2170,-2240,-1050,,,,,,,0x03,
16723,-731,657,98,-980,-2520,-630,,,,,,,0x03,
16733,-733,661,102,-700,-2940,-420,,,,,,,0x03,
16742,-727,670,102,-1260,-3220,-490,,,,,,,0x03,
16752,-720,680,109,-1960,-2940,-490,,,,,,,0x03,
16762,-718,669,110,-3080,-2730,-350,,,,,,,0x03,
16771,-728,643,102,-3640,-2730,-210,,,,,,,0x03,
16781,-744,611,102,-3640,-2730,-210,,,,,,,0x03,
16791,-753,626,110,-770,-2380,-490,,,,,,,0x03,
16800,-745,658,119,2240,-2030,-420,,,,,,,0x03,
16810,-726,680,122,2100,-1890,-70,,,,,,,0x03,
16820,-714,681,117,-280,-1540,0,,,,,,,0x03,
16829,-718,654,114,-2940,-1260,-210,,,,,,,0x03,
16839,-728,639,112,-3500,-840,-350,,,,,,,0x03,
16848,-736,638,109,-1190,-770,-280,,,,,,,0x03,
16858,-732,642,106,910,-840,280,,,,,,,0x03,
16868,-728,656,107,1890,-700,770,,,,,,,0x03,
16877,-727,663,109,1330,-560,980,,,,,,,0x03,
16887,-729,670,105,280,-630,910,,,,,,,0x03,
16897,-731,665,103,-1050,-770,910,,,,,,,0x03,
16906,-733,652,96,-2380,-910,980,,,,,,,0x03,
16916,-737,650,104,-2240,-980,980,,,,,,,0x03,
16926,-732,669,111,-1120,-1120,840,,,,,,,0x03,
16935,-718,679,116,-840,-1330,980,,,,,,,0x03,
16945,-714,673,112,-2030,-1470,1120,,,,,,,0x03,
16954,-721,647,111,-3290,-1470,1050,,,,,,,0x03,
16964,-730,643,109,-2870,-1540,980,,,,,,,0x03,
16974,-734,658,108,-910,-1890,1050,,,,,,,0x03,
16983,-731,667,106,-840,-2030,1470,,,,,,,0x03,
16993,-729,664,107,-2380,-2030,1540,,,,,,,0x03,
17003,-727,666,111,-3640,-1890,1330,,,,,,,0x03,
17012,-728,660,117,-4270,-1750,1190,,,,,,,0x03,
17022,-722,669,123,-4060,-1540,1190,,,,,,,0x03,
17032,-717,665,122,-4060,-1470,1330,,,,,,,0x03,
17041,-719,640,115,-4620,-1400,1680,,,,,,,0x03,
17051,-729,628,114,-3990,-1260,1610,,,,,,,0x03,
17060,-735,654,118,-980,-1190,1470,,,,,,,0x03,
17070,-731,676,120,980,-1120,1610,,,,,,,0x03,
17080,-722,672,115,-70,-980,1750,,,,,,,0x03,
17089,-721,654,120,-2100,-560,1610,,,,,,,0x03,
17099,-722,659,118,-1470,-490,1120,,,,,,,0x03,
17109,-721,669,118,420,-560,1050,,,,,,,0x03,
17118,-718,671,116,560,-560,1190,,,,,,,0x03,
17128,-718,680,113,770,-490,1050,,,,,,,0x03,
17138,-719,682,113,840,-560,770,,,,,,,0x03,
17147,-719,676,110,700,-630,560,,,,,,,0x03,
17157,-721,655,110,-140,-910,490,,,,,,,0x03,
17167,-726,659,113,140,-1120,420,,,,,,,0x03,
17176,-721,682,120,1820,-1120,420,,,,,,,0x03,
17186,-708,697,121,1960,-1050,630,,,,,,,0x03,
17195,-703,687,117,-210,-1190,840,,,,,,,0x03,
17205,-709,670,114,-2380,-1260,630,,,,,,,0x03,
17215,-723,652,109,-2730,-1540,420,,,,,,,0x03,
17224,-729,651,112,-2030,-1750,560,,,,,,,0x03,
17234,-734,652,111,-1120,-1820,840,,,,,,,0x03,
17244,-737,649,115,-770,-1820,1050,,,,,,,0x03,
17253,-728,663,120,-490,-1470,1050,,,,,,,0x03,
17263,-720,685,126,-280,-840,910,,,,,,,0x03,
17273,-711,688,126,-1050,-560,700,,,,,,,0x03,
17282,-707,672,125,-2380,-350,630,,,,,,,0x03,
17292,-714,655,121,-2590,-70,350,,,,,,,0x03,
17301,-724,646,116,-560,0,140,,,,,,,0x03,
17311,-731,651,113,1820,-70,70,,,,,,,0x03,
17321,-731,654,110,3150,-280,70,,,,,,,0x03,
17330,-725,666,109,3430,-420,280,,,,,,,0x03,
17340,-723,680,115,3220,-490,280,,,,,,,0x03,
