#Format version: 1.0
time[ms],accX[mg],accY[mg],accZ[mg],gyroX[mdps],gyroY[mdps],gyroZ[mdps],magnX[mG],magnY[mG],magnZ[mG],press[hPa],temp[°C],hum[0,-442,645,843,81760,51660,-10570,,,,,,,0x03,
10,-512,676,823,53270,46900,-11620,,,,,,,0x03,
19,-551,683,878,24990,45500,-13230,,,,,,,0x03,
29,-595,668,920,-6300,45850,-14070,,,,,,,0x03,
39,-566,499,922,-30450,46760,-16100,,,,,,,0x03,
48,-518,350,901,-40180,47600,-17430,,,,,,,0x03,
58,-473,253,836,-34720,47040,-16660,,,,,,,0x03,
68,-444,198,815,-18550,44730,-13300,,,,,,,0x03,
77,-492,246,837,-3290,41860,-10430,,,,,,,0x03,
87,-547,317,829,5040,39690,-10080,,,,,,,0x03,
97,-558,346,764,6230,40670,-11410,,,,,,,0x03,
106,-524,370,666,3150,45010,-12880,,,,,,,0x03,
116,-470,385,628,-5950,51870,-14420,,,,,,,0x03,
125,-474,415,620,-22540,59780,-17640,,,,,,,0x03,
135,-490,394,642,-37100,66290,-21980,,,,,,,0x03,
145,-544,390,708,-49770,69860,-24220,,,,,,,0x03,
154,-603,427,766,-55440,67410,-25270,,,,,,,0x03,
164,-606,382,749,-62370,60480,-23450,,,,,,,0x03,
174,-550,301,681,-75530,53760,-21350,,,,,,,0x03,
183,-464,190,614,-89950,50050,-23240,,,,,,,0x03,
193,-419,73,611,-95060,47740,-27440,,,,,,,0x03,
203,-427,26,655,-79800,44660,-29330,,,,,,,0x03,
212,-444,42,677,-55300,40880,-25060,,,,,,,0x03,
222,-444,44,684,-35350,38570,-17570,,,,,,,0x03,
232,-492,66,801,-22610,37030,-11900,,,,,,,0x03,
241,-593,120,1040,-13300,30380,-8120,,,,,,,0x03,
251,-564,71,974,-2590,19250,-5180,,,,,,,0x03,
261,-398,24,781,11410,14490,-4270,,,,,,,0x03,
270,-356,40,680,11760,14630,-3710,,,,,,,0x03,
280,-427,28,634,7630,16590,-3080,,,,,,,0x03,
290,-497,1,689,7000,19390,-3150,,,,,,,0x03,
299,-561,39,836,6370,20020,-5810,,,,,,,0x03,
309,-588,99,935,3500,17010,-8890,,,,,,,0x03,
318,-570,153,924,700,13090,-8890,,,,,,,0x03,
328,-556,220,897,-3360,10500,-7980,,,,,,,0x03,
338,-588,256,867,-15330,7560,-7000,,,,,,,0x03,
347,-617,183,816,-29050,5110,-6790,,,,,,,0x03,
357,-630,91,802,-35350,4830,-7910,,,,,,,0x03,
367,-633,21,805,-30870,7280,-10150,,,,,,,0x03,
376,-632,-38,815,-19110,11970,-11900,,,,,,,0x03,
386,-621,-84,818,-3990,16310,-12320,,,,,,,0x03,
396,-594,-106,800,14280,20860,-11620,,,,,,,0x03,
405,-590,-63,773,34580,26250,-8820,,,,,,,0x03,
415,-592,32,746,59360,31150,-3220,,,,,,,0x03,
425,-580,98,715,78610,33810,4060,,,,,,,0x03,
434,-573,224,693,89530,33040,9380,,,,,,,0x03,
444,-564,341,682,91420,29050,11620,,,,,,,0x03,
454,-566,454,676,84070,22540,11690,,,,,,,0x03,
463,-554,548,672,70070,14000,10710,,,,,,,0x03,
473,-559,536,649,46550,4060,10220,,,,,,,0x03,
483,-604,512,640,25130,-4620,8750,,,,,,,0x03,
492,-668,420,652,7840,-11060,6650,,,,,,,0x03,
502,-728,315,665,-1260,-14910,5180,,,,,,,0x03,
512,-776,217,677,-980,-16450,3500,,,,,,,0x03,
521,-769,167,705,8120,-16030,2030,,,,,,,0x03,
531,-693,214,704,22890,-13860,1820,,,,,,,0x03,
540,-625,343,723,34370,-10710,3850,,,,,,,0x03,
550,-599,402,776,31850,-9100,6510,,,,,,,0x03,
560,-586,350,794,19390,-9730,6650,,,,,,,0x03,
569,-572,312,794,8820,-10920,4340,,,,,,,0x03,
579,-570,299,790,1890,-11550,2240,,,,,,,0x03,
589,-597,298,795,-2240,-11130,1610,,,,,,,0x03,
598,-629,278,799,-4830,-8960,1960,,,,,,,0x03,
608,-637,267,804,-6860,-6440,1610,,,,,,,0x03,
618,-602,284,817,-7840,-3990,0,,,,,,,0x03,
627,-531,299,799,-6370,-1540,-1820,,,,,,,0x03,
637,-497,317,769,-3990,210,-2520,,,,,,,0x03,
647,-524,320,756,-3220,630,-1890,,,,,,,0x03,
656,-578,294,758,-4900,560,-1260,,,,,,,0x03,
666,-607,274,757,-5810,560,-1890,,,,,,,0x03,
676,-614,274,751,-5670,630,-2730,,,,,,,0x03,
685,-608,288,750,-5460,560,-3290,,,,,,,0x03,
695,-594,311,763,-5950,700,-3430,,,,,,,0x03,
705,-568,321,691,-7630,1400,-3570,,,,,,,0x03,
714,-562,253,817,-12600,1260,-3710,,,,,,,0x03,
724,-673,164,698,-17500,-1470,-490,,,,,,,0x03,
733,-705,9,743,-16730,-350,-490,,,,,,,0x03,
743,-732,190,734,-3220,2660,-1330,,,,,,,0x03,
753,-553,205,757,15610,6230,-1400,,,,,,,0x03,
762,-513,402,769,24780,7280,1190,,,,,,,0x03,
772,-553,465,799,11830,5880,1330,,,,,,,0x03,
782,-614,371,731,-8190,2800,-770,,,,,,,0x03,
791,-657,280,727,-22400,70,-3430,,,,,,,0x03,
801,-663,251,716,-23870,-910,-5530,,,,,,,0x03,
811,-618,238,709,-17990,-1330,-5880,,,,,,,0x03,
820,-594,260,711,-14000,-1960,-4340,,,,,,,0x03,
830,-607,284,749,-18200,-3150,-2590,,,,,,,0x03,
840,-622,239,771,-27510,-4060,-1750,,,,,,,0x03,
849,-603,153,758,-34090,-4690,-1330,,,,,,,0x03,
859,-577,72,738,-32200,-4690,-700,,,,,,,0x03,
869,-575,57,726,-20510,-3990,140,,,,,,,0x03,
878,-616,97,738,-7910,-2870,1540,,,,,,,0x03,
888,-650,177,750,-350,-1960,2940,,,,,,,0x03,
898,-653,224,756,-910,-1540,3990,,,,,,,0x03,
907,-652,252,750,-5390,-1820,4270,,,,,,,0x03,
917,-650,255,729,-9870,-2520,3920,,,,,,,0x03,
927,-646,243,701,-12250,-3500,3640,,,,,,,0x03,
936,-648,246,694,-13440,-4900,3570,,,,,,,0x03,
946,-648,277,721,-14840,-5530,3780,,,,,,,0x03,
955,-628,281,749,-17290,-5670,4200,,,,,,,0x03,
965,-599,244,762,-20510,-5950,4690,,,,,,,0x03,
975,-577,194,752,-21490,-6510,4970,,,,,,,0x03,
984,-553,154,742,-19110,-7700,5530,,,,,,,0x03,
994,-543,160,741,-13790,-8890,6580,,,,,,,0x03,
1004,-560,195,738,-8960,-10150,7770,,,,,,,0x03,
1013,-590,218,746,-7560,-11550,8750,,,,,,,0x03,
1023,-631,226,768,-10010,-12740,9100,,,,,,,0x03,
1033,-648,210,766,-12600,-14070,8610,,,,,,,0x03,
1042,-639,193,746,-14420,-15540,7980,,,,,,,0x03,
1052,-615,191,739,-13860,-16870,7700,,,,,,,0x03,
1062,-614,214,745,-11900,-17570,8120,,,,,,,0x03,
1071,-609,223,735,-10360,-18480,8330,,,,,,,0x03,
1081,-606,222,743,-11620,-19740,7840,,,,,,,0x03,
1091,-610,243,749,-12740,-20790,7140,,,,,,,0x03,
1100,-596,248,738,-11690,-22330,6510,,,,,,,0x03,
1110,-579,264,732,-10430,-24570,6370,,,,,,,0x03,
1120,-580,280,758,-12600,-26250,6930,,,,,,,0x03,
1129,-586,260,781,-17780,-27510,7070,,,,,,,0x03,
1139,-580,198,781,-21560,-28980,6580,,,,,,,0x03,
1148,-567,145,784,-21490,-30100,6020,,,,,,,0x03,
1158,-564,137,788,-18340,-30380,5670,,,,,,,0x03,
1168,-555,137,794,-15050,-30380,5950,,,,,,,0x03,
1177,-546,132,800,-14560,-30800,6930,,,,,,,0x03,
1187,-554,119,826,-15750,-30940,7490,,,,,,,0x03,
1197,-561,93,823,-14000,-30520,7350,,,,,,,0x03,
1206,-537,57,807,-6860,-30170,7000,,,,,,,0x03,
1216,-537,80,807,1120,-29470,7070,,,,,,,0x03,
1226,-549,129,820,7420,-28420,7280,,,,,,,0x03,
1235,-531,165,821,11270,-27860,7420,,,,,,,0x03,
1245,-519,212,824,12530,-28000,7840,,,,,,,0x03,
1255,-524,238,830,11200,-28490,8120,,,,,,,0x03,
1264,-517,239,831,7980,-29050,7840,,,,,,,0x03,
1274,-501,226,828,4970,-29890,7210,,,,,,,0x03,
1284,-494,229,837,2800,-30170,6510,,,,,,,0x03,
1293,-493,223,841,630,-30030,6300,,,,,,,0x03,
1303,-494,211,831,490,-29960,5950,,,,,,,0x03,
1313,-518,218,835,-140,-29610,5810,,,,,,,0x03,
1322,-528,237,860,-2100,-28420,5320,,,,,,,0x03,
1332,-493,250,880,-5950,-26950,5320,,,,,,,0x03,
1341,-444,249,890,-9730,-25830,5250,,,,,,,0x03,
1351,-423,235,893,-11620,-24990,5040,,,,,,,0x03,
1361,-439,224,898,-12390,-23660,4550,,,,,,,0x03,
1370,-464,219,908,-13720,-22050,3780,,,,,,,0x03,
1380,-465,197,901,-15540,-20650,3080,,,,,,,0x03,
1390,-446,180,892,-15680,-19180,2520,,,,,,,0x03,
1399,-431,187,883,-14210,-17710,2170,,,,,,,0x03,
1409,-427,188,874,-12880,-16730,2310,,,,,,,0x03,
1419,-436,190,872,-11830,-16240,1960,,,,,,,0x03,
1428,-430,198,879,-10990,-15540,1750,,,,,,,0x03,
1438,-399,204,894,-10570,-14700,2030,,,,,,,0x03,
1448,-383,194,899,-10290,-14140,2450,,,,,,,0x03,
1457,-382,174,906,-7840,-13790,2450,,,,,,,0x03,
1467,-387,184,907,-5110,-13020,2100,,,,,,,0x03,
1477,-379,181,914,-4830,-12390,2170,,,,,,,0x03,
1486,-381,165,918,-7070,-12110,2100,,,,,,,0x03,
1496,-391,147,916,-7840,-11760,1540,,,,,,,0x03,
1506,-402,135,908,-6860,-11200,1050,,,,,,,0x03,
1515,-414,124,902,-5040,-10640,700,,,,,,,0x03,
1525,-416,129,900,-1540,-9800,210,,,,,,,0x03,
1535,-390,136,894,2940,-8750,-210,,,,,,,0x03,
1544,-369,149,885,8050,-7770,70,,,,,,,0x03,
1554,-376,165,886,12390,-7140,840,,,,,,,0x03,
1563,-393,198,901,14560,-6510,1330,,,,,,,0x03,
1573,-383,204,910,14630,-6230,1260,,,,,,,0x03,
1583,-379,195,908,14280,-6230,980,,,,,,,0x03,
1592,-388,194,908,14070,-5810,630,,,,,,,0x03,
1602,-401,193,907,14630,-5320,350,,,,,,,0x03,
1612,-407,180,900,14840,-4760,280,,,,,,,0x03,
1621,-415,170,898,15120,-3780,350,,,,,,,0x03,
1631,-425,162,903,16030,-2520,420,,,,,,,0x03,
1641,-416,164,901,17990,-1470,420,,,,,,,0x03,
1650,-399,166,892,20090,-770,560,,,,,,,0x03,
1660,-416,189,890,20790,0,700,,,,,,,0x03,
1670,-425,208,895,20720,840,420,,,,,,,0x03,
1679,-411,215,896,19530,1330,420,,,,,,,0x03,
1689,-409,209,894,18130,1680,280,,,,,,,0x03,
1699,-409,202,892,18760,2170,140,,,,,,,0x03,
1708,-405,202,893,19810,2800,0,,,,,,,0x03,
1718,-397,210,889,20860,3360,0,,,,,,,0x03,
1728,-409,225,884,21770,3780,70,,,,,,,0x03,
1737,-422,243,883,22540,4200,210,,,,,,,0x03,
1747,-419,258,881,21000,4480,280,,,,,,,0x03,
1756,-411,263,880,18830,4690,70,,,,,,,0x03,
1766,-415,258,879,16660,5040,140,,,,,,,0x03,
1776,-427,251,879,15470,5390,210,,,,,,,0x03,
1785,-426,252,873,15820,5740,0,,,,,,,0x03,
1795,-423,259,867,15820,5950,-280,,,,,,,0x03,
1805,-428,262,860,15540,6090,-560,,,,,,,0x03,
1814,-423,262,851,15330,5880,-560,,,,,,,0x03,
1824,-421,266,841,14770,5460,-420,,,,,,,0x03,
1834,-429,263,838,14350,4970,-70,,,,,,,0x03,
1843,-429,260,835,14560,4410,140,,,,,,,0x03,
1853,-429,266,836,14700,3920,420,,,,,,,0x03,
1863,-438,274,840,14770,3360,770,,,,,,,0x03,
1872,-440,281,845,14910,2730,840,,,,,,,0x03,
1882,-438,298,846,15330,2310,770,,,,,,,0x03,
1892,-438,303,845,14840,1890,980,,,,,,,0x03,
1901,-441,306,840,13020,1330,840,,,,,,,0x03,
1911,-450,313,841,10780,560,770,,,,,,,0x03,
1921,-456,317,843,7070,-210,840,,,,,,,0x03,
1930,-456,316,844,2940,-910,700,,,,,,,0x03,
1940,-451,304,847,-350,-1400,490,,,,,,,0x03,
1950,-444,299,848,-2660,-1820,490,,,,,,,0x03,
1959,-438,292,849,-4270,-2030,630,,,,,,,0x03,
1969,-434,274,850,-5600,-2310,700,,,,,,,0x03,
1978,-434,259,850,-6090,-2520,560,,,,,,,0x03,
1988,-432,252,853,-5320,-2660,280,,,,,,,0x03,
1998,-427,250,849,-3640,-2730,210,,,,,,,0x03,
2007,-426,254,856,-2310,-2730,420,,,,,,,0x03,
2017,-421,253,856,-1400,-2520,490,,,,,,,0x03,
2027,-425,254,857,490,-2310,560,,,,,,,0x03,
2036,-435,268,857,2450,-1960,700,,,,,,,0x03,
2046,-439,282,861,3010,-1680,910,,,,,,,0x03,
2056,-444,293,862,2170,-1680,770,,,,,,,0x03,
2065,-449,295,859,770,-1610,560,,,,,,,0x03,
2075,-451,287,856,-910,-1680,350,,,,,,,0x03,
2085,-450,276,855,-2310,-1750,-140,,,,,,,0x03,
2094,-437,269,860,-3080,-1610,-350,,,,,,,0x03,
2104,-426,261,858,-3080,-1540,-490,,,,,,,0x03,
2114,-413,256,861,-1610,-1190,-490,,,,,,,0x03,
2123,-405,259,867,70,-560,-350,,,,,,,0x03,
2133,-403,266,869,1470,0,-280,,,,,,,0x03,
2143,-407,273,866,2240,280,-140,,,,,,,0x03,
2152,-413,282,862,2310,490,-140,,,,,,,0x03,
2162,-418,292,861,2030,630,-210,,,,,,,0x03,
2171,-420,298,855,1330,770,-210,,,,,,,0x03,
2181,-425,299,854,-350,770,-210,,,,,,,0x03,
2191,-435,294,856,-2380,770,-350,,,,,,,0x03,
2200,-435,276,854,-3710,840,-350,,,,,,,0x03,
2210,-438,265,854,-4200,770,-420,,,,,,,0x03,
2220,-445,258,856,-4480,840,-490,,,,,,,0x03,
2229,-442,255,855,-4270,840,-630,,,,,,,0x03,
2239,-432,266,855,-3920,910,-630,,,,,,,0x03,
2249,-425,280,855,-4200,910,-560,,,,,,,0x03,
2258,-422,289,855,-5110,1050,-700,,,,,,,0x03,
2268,-420,293,854,-5320,910,-630,,,,,,,0x03,
2278,-420,271,853,-5810,560,-280,,,,,,,0x03,
2287,-417,254,856,-6230,350,-490,,,,,,,0x03,
2297,-419,240,854,-4690,210,-490,,,,,,,0x03,
2307,-420,241,854,-1820,210,0,,,,,,,0x03,
2316,-425,249,858,560,350,770,,,,,,,0x03,
2326,-430,254,863,1120,420,1050,,,,,,,0x03,
2336,-438,259,857,840,140,910,,,,,,,0x03,
2345,-447,255,853,140,-280,630,,,,,,,0x03,
2355,-454,252,847,-280,-560,490,,,,,,,0x03,
2365,-454,259,844,0,-770,420,,,,,,,0x03,
2374,-451,263,846,280,-840,560,,,,,,,0x03,
2384,-452,260,845,210,-1120,630,,,,,,,0x03,
2393,-452,256,847,490,-1260,630,,,,,,,0x03,
2403,-453,256,843,1190,-1470,630,,,,,,,0x03,
2413,-446,263,843,1750,-1750,700,,,,,,,0x03,
2422,-436,276,846,1680,-2170,770,,,,,,,0x03,
2432,-430,286,852,700,-2590,700,,,,,,,0x03,
2442,-428,285,852,-490,-3080,770,,,,,,,0x03,
2451,-434,274,850,-1540,-3570,770,,,,,,,0x03,
2461,-443,268,852,-1890,-3710,770,,,,,,,0x03,
2471,-446,261,854,-2170,-3710,910,,,,,,,0x03,
2480,-450,258,851,-2170,-3780,980,,,,,,,0x03,
2490,-449,256,856,-2030,-3780,980,,,,,,,0x03,
2500,-442,268,856,-2310,-3570,840,,,,,,,0x03,
2509,-425,270,857,-2380,-3710,700,,,,,,,0x03,
2519,-417,277,858,-2870,-3990,630,,,,,,,0x03,
2529,-419,279,858,-3360,-4130,770,,,,,,,0x03,
2538,-418,273,862,-4480,-4270,1120,,,,,,,0x03,
2548,-413,262,869,-5600,-4130,1050,,,,,,,0x03,
2558,-407,241,864,-4970,-3990,980,,,,,,,0x03,
2567,-413,233,864,-3010,-3780,1050,,,,,,,0x03,
2577,-429,242,861,-1260,-3500,1190,,,,,,,0x03,
2586,-427,254,860,420,-3220,1190,,,,,,,0x03,
2596,-416,275,859,490,-3220,1330,,,,,,,0x03,
2606,-414,281,859,-980,-3640,1540,,,,,,,0x03,
2615,-422,273,858,-2660,-4130,1680,,,,,,,0x03,
2625,-425,259,858,-4060,-4550,1610,,,,,,,0x03,
2635,-422,253,859,-4060,-4550,1400,,,,,,,0x03,
2644,-420,247,868,-2870,-4270,1470,,,,,,,0x03,
2654,-417,258,879,-1610,-3780,1400,,,,,,,0x03,
2664,-400,264,886,-840,-3010,1400,,,,,,,0x03,
2673,-391,257,889,-980,-2380,1540,,,,,,,0x03,
2683,-396,250,885,-490,-1680,1400,,,,,,,0x03,
2693,-406,246,882,350,-1050,1190,,,,,,,0x03,
2702,-408,248,883,770,-420,910,,,,,,,0x03,
2712,-418,246,881,840,280,630,,,,,,,0x03,
2722,-425,236,876,1960,910,350,,,,,,,0x03,
2731,-434,241,868,3290,1470,280,,,,,,,0x03,
2741,-434,248,866,5040,2030,210,,,,,,,0x03,
2751,-425,255,860,6510,2450,210,,,,,,,0x03,
2760,-422,266,858,7630,2520,210,,,,,,,0x03,
2770,-427,273,856,8190,2450,70,,,,,,,0x03,
2780,-422,277,857,7210,2310,70,,,,,,,0x03,
2789,-414,275,860,6020,2030,0,,,,,,,0x03,
2799,-410,274,862,5250,1890,-140,,,,,,,0x03,
2808,-407,274,863,5390,2030,-140,,,,,,,0x03,
2818,-409,282,865,5600,2240,-70,,,,,,,0x03,
2828,-416,285,865,5320,2450,0,,,,,,,0x03,
2837,-426,285,865,4620,2590,0,,,,,,,0x03,
2847,-434,282,863,3640,2730,-140,,,,,,,0x03,
2857,-435,279,862,3080,2940,-280,,,,,,,0x03,
2866,-433,277,857,3010,3150,-420,,,,,,,0x03,
2876,-432,275,856,2730,3150,-420,,,,,,,0x03,
2886,-433,274,855,2100,3080,-280,,,,,,,0x03,
2895,-432,265,850,1610,2870,-210,,,,,,,0x03,
2905,-433,258,846,1820,2660,-140,,,,,,,0x03,
2915,-437,260,844,2240,2590,140,,,,,,,0x03,
2924,-436,262,851,2240,2380,490,,,,,,,0x03,
2934,-429,271,848,2800,2170,630,,,,,,,0x03,
2944,-426,270,849,3010,1820,770,,,,,,,0x03,
2953,-432,274,851,2310,1470,840,,,,,,,0x03,
2963,-432,274,851,1820,1260,840,,,,,,,0x03,
2973,-429,278,850,1470,1050,910,,,,,,,0x03,
2982,-431,281,850,1120,910,1190,,,,,,,0x03,
2992,-432,284,850,420,630,1330,,,,,,,0x03,
3001,-431,288,850,-490,280,1260,,,,,,,0x03,
3011,-433,288,848,-1400,0,1190,,,,,,,0x03,
3021,-434,286,847,-2030,-280,1330,,,,,,,0x03,
3030,-436,285,844,-1960,-420,1330,,,,,,,0x03,
3040,-437,285,843,-1820,-630,1540,,,,,,,0x03,
3050,-447,287,842,-2520,-1050,1750,,,,,,,0x03,
3059,-451,282,843,-3990,-1470,1750,,,,,,,0x03,
3069,-452,277,837,-4760,-2030,1610,,,,,,,0x03,
3079,-448,277,845,-5460,-2520,1610,,,,,,,0x03,
3088,-446,275,842,-6230,-3010,1610,,,,,,,0x03,
3098,-445,274,846,-6930,-3500,1540,,,,,,,0x03,
3108,-443,275,853,-7140,-3780,1610,,,,,,,0x03,
3117,-426,261,858,-6930,-3780,1610,,,,,,,0x03,
3127,-420,261,858,-6230,-3640,1680,,,,,,,0x03,
3137,-415,264,854,-4830,-3570,1470,,,,,,,0x03,
3146,-420,268,857,-3570,-3430,1470,,,,,,,0x03,
3156,-429,275,861,-3500,-3360,1470,,,,,,,0x03,
3166,-438,271,863,-4550,-3430,1260,,,,,,,0x03,
3175,-438,266,863,-5320,-3290,840,,,,,,,0x03,
3185,-431,261,860,-4760,-3010,700,,,,,,,0x03,
3195,-430,268,861,-3710,-2730,770,,,,,,,0x03,
3204,-434,275,865,-3640,-2380,910,,,,,,,0x03,
3214,-433,277,864,-4270,-2310,770,,,,,,,0x03,
3223,-431,272,864,-5670,-2520,630,,,,,,,0x03,
3233,-431,265,858,-6510,-2730,350,,,,,,,0x03,
3243,-430,269,857,-6300,-2730,210,,,,,,,0x03,
3252,-420,273,859,-6650,-2660,420,,,,,,,0x03,
3262,-412,275,860,-7630,-2870,770,,,,,,,0x03,
3272,-400,266,863,-8750,-3220,770,,,,,,,0x03,
3281,-396,255,867,-9240,-3430,770,,,,,,,0x03,
3291,-396,243,868,-9030,-3570,770,,,,,,,0x03,
3301,-402,228,869,-8050,-3570,770,,,,,,,0x03,
3310,-414,220,871,-6300,-3360,770,,,,,,,0x03,
3320,-421,213,872,-3920,-2870,910,,,,,,,0x03,
3330,-420,210,870,-1190,-2380,910,,,,,,,0x03,
3339,-420,217,871,1470,-1750,910,,,,,,,0x03,
3349,-419,233,874,3990,-1120,980,,,,,,,0x03,
3359,-412,241,873,5460,-630,980,,,,,,,0x03,
3368,-408,250,872,6300,-420,980,,,,,,,0x03,
3378,-411,261,872,6860,-210,700,,,,,,,0x03,
3388,-414,258,867,6790,-140,630,,,,,,,0x03,
3397,-424,262,869,6510,-140,350,,,,,,,0x03,
3407,-423,264,866,6370,70,210,,,,,,,0x03,
3416,-416,266,861,6510,210,70,,,,,,,0x03,
3426,-419,275,860,7070,280,70,,,,,,,0x03,
3436,-425,287,859,6930,350,70,,,,,,,0x03,
3445,-420,294,857,5810,70,0,,,,,,,0x03,
3455,-420,303,860,4060,-280,0,,,,,,,0x03,
3465,-424,295,856,1750,-630,70,,,,,,,0x03,
3474,-427,281,859,420,-1120,-70,,,,,,,0x03,
3484,-438,274,856,-840,-1330,-210,,,,,,,0x03,
3494,-436,263,863,-1330,-1330,-420,,,,,,,0x03,
3503,-430,262,866,-1190,-1260,-490,,,,,,,0x03,
3513,-421,265,866,-1050,-1050,-490,,,,,,,0x03,
3523,-414,263,872,-1260,-840,-350,,,,,,,0x03,
3532,-415,258,870,-1680,-700,-280,,,,,,,0x03,
3542,-418,252,866,-1470,-700,-280,,,,,,,0x03,
3552,-418,255,863,-840,-560,-350,,,,,,,0x03,
3561,-420,256,863,-490,-560,-420,,,,,,,0x03,
3571,-424,255,863,-1050,-630,-280,,,,,,,0x03,
3581,-421,252,863,-1050,-630,-350,,,,,,,0x03,
3590,-418,247,860,-70,-490,-280,,,,,,,0x03,
3600,-417,249,857,1820,-420,-70,,,,,,,0x03,
3610,-420,263,858,2940,-420,140,,,,,,,0x03,
3619,-422,266,858,2660,-630,350,,,,,,,0x03,
3629,-425,262,855,2030,-980,490,,,,,,,0x03,
3638,-422,259,859,2030,-1330,490,,,,,,,0x03,
3648,-418,258,861,1680,-1540,560,,,,,,,0x03,
3658,-414,257,865,1680,-1680,490,,,,,,,0x03,
3667,-406,262,865,2100,-1540,420,,,,,,,0x03,
3677,-403,270,870,2520,-1400,490,,,,,,,0x03,
3687,-412,271,866,2520,-1120,630,,,,,,,0x03,
3696,-418,270,865,3080,-1120,420,,,,,,,0x03,
3706,-432,276,857,2590,-910,490,,,,,,,0x03,
3716,-435,268,861,2170,-910,490,,,,,,,0x03,
3725,-438,267,854,2100,-910,490,,,,,,,0x03,
3735,-436,262,856,2590,-980,490,,,,,,,0x03,
3745,-436,273,859,2590,-1190,350,,,,,,,0x03,
3754,-426,276,859,1680,-1330,140,,,,,,,0x03,
3764,-408,273,859,1610,-1540,0,,,,,,,0x03,
3774,-398,278,860,2520,-1540,0,,,,,,,0x03,
3783,-403,283,862,2660,-1470,140,,,,,,,0x03,
3793,-408,290,870,1890,-1400,280,,,,,,,0x03,
3803,-409,284,865,630,-1470,210,,,,,,,0x03,
3812,-413,275,863,420,-1610,0,,,,,,,0x03,
3822,-429,281,863,350,-1470,0,,,,,,,0x03,
3831,-437,281,862,-140,-1190,-140,,,,,,,0x03,
3841,-438,279,861,-910,-1260,-210,,,,,,,0x03,
3851,-440,276,861,-1820,-1190,-280,,,,,,,0x03,
3860,-435,277,865,-2590,-1050,-420,,,,,,,0x03,
3870,-421,273,867,-3430,-1050,-420,,,,,,,0x03,
3880,-417,265,868,-4060,-980,-280,,,,,,,0x03,
3889,-418,254,871,-4410,-840,-140,,,,,,,0x03,
3899,-415,244,872,-4340,-700,-280,,,,,,,0x03,
3909,-412,234,870,-3150,-420,-350,,,,,,,0x03,
3918,-407,227,868,-980,0,-210,,,,,,,0x03,
3928,-403,232,866,1610,560,0,,,,,,,0x03,
3938,-402,247,862,3710,910,350,,,,,,,0x03,
3947,-408,252,861,4830,1050,560,,,,,,,0x03,
3957,-416,261,863,5250,1120,770,,,,,,,0x03,
3967,-422,268,863,5250,1120,840,,,,,,,0x03,
3976,-426,264,859,4900,1050,910,,,,,,,0x03,
3986,-430,266,858,4970,1050,910,,,,,,,0x03,
3996,-435,269,857,5320,1050,840,,,,,,,0x03,
4005,-427,267,858,5390,1120,910,,,,,,,0x03,
4015,-424,274,856,5110,1120,980,,,,,,,0x03,
4024,-417,284,856,5320,1190,910,,,,,,,0x03,
4034,-407,297,856,4970,1050,980,,,,,,,0x03,
4044,-406,309,856,3220,700,1120,,,,,,,0x03,
4053,-412,311,861,1120,560,1190,,,,,,,0x03,
4063,-414,304,858,-490,350,1050,,,,,,,0x03,
4073,-418,298,857,-1680,280,1050,,,,,,,0x03,
4082,-426,294,857,-2520,280,1050,,,,,,,0x03,
4092,-428,290,855,-2660,210,980,,,,,,,0x03,
4102,-435,276,855,-3220,70,1050,,,,,,,0x03,
4111,-443,270,855,-3430,-210,700,,,,,,,0x03,
4121,-438,261,851,-3360,-420,420,,,,,,,0x03,
4131,-425,258,855,-3010,-560,280,,,,,,,0x03,
4140,-416,256,851,-2030,-700,280,,,,,,,0x03,
4150,-404,262,856,-490,-700,490,,,,,,,0x03,
4160,-397,277,859,140,-700,770,,,,,,,0x03,
4169,-397,284,865,0,-840,840,,,,,,,0x03,
4179,-402,283,868,-490,-910,840,,,,,,,0x03,
4189,-413,278,871,-910,-770,840,,,,,,,0x03,
4198,-421,266,874,-840,-350,700,,,,,,,0x03,
4208,-424,257,873,420,350,420,,,,,,,0x03,
4218,-422,255,863,2450,1120,280,,,,,,,0x03,
4227,-422,260,870,4130,1750,350,,,,,,,0x03,
4237,-438,271,863,4480,2380,350,,,,,,,0x03,
4246,-433,279,864,4830,2730,140,,,,,,,0x03,
4256,-423,289,860,4060,2870,70,,,,,,,0x03,
4266,-418,284,859,2520,2800,70,,,,,,,0x03,
4275,-421,277,856,1610,2660,-70,,,,,,,0x03,
4285,-423,273,854,1400,2660,0,,,,,,,0x03,
4295,-418,268,854,1820,2660,-70,,,,,,,0x03,
4304,-416,270,853,2730,2730,-70,,,,,,,0x03,
4314,-419,272,851,3920,2730,-70,,,,,,,0x03,
4324,-424,268,849,4970,2590,0,,,,,,,0x03,
4333,-431,269,846,6160,2520,140,,,,,,,0x03,
4343,-443,275,843,6720,2450,140,,,,,,,0x03,
4353,-446,280,842,6720,2170,140,,,,,,,0x03,
4362,-447,284,840,6230,1750,210,,,,,,,0x03,
4372,-444,288,839,5530,1260,280,,,,,,,0x03,
4382,-437,295,841,4760,700,210,,,,,,,0x03,
4391,-434,298,842,3710,280,140,,,,,,,0x03,
4401,-427,296,842,2800,-210,140,,,,,,,0x03,
4411,-421,299,844,2520,-560,140,,,,,,,0x03,
4420,-421,303,844,2380,-840,280,,,,,,,0x03,
4430,-424,308,846,2170,-1050,350,,,,,,,0x03,
4439,-430,312,846,1050,-1260,420,,,,,,,0x03,
4449,-441,309,848,-280,-1540,350,,,,,,,0x03,
4459,-444,305,846,-1400,-1750,280,,,,,,,0x03,
4468,-442,302,844,-2730,-2100,70,,,,,,,0x03,
4478,-441,297,846,-4130,-2380,70,,,,,,,0x03,
4488,-440,290,846,-5460,-2730,0,,,,,,,0x03,
4497,-434,284,852,-6160,-3010,-70,,,,,,,0x03,
4507,-427,278,854,-6440,-3080,0,,,,,,,0x03,
4517,-419,274,856,-6300,-3010,0,,,,,,,0x03,
4526,-413,264,858,-5670,-2940,-70,,,,,,,0x03,
4536,-413,255,863,-4480,-2660,0,,,,,,,0x03,
4546,-414,256,863,-2450,-2170,-70,,,,,,,0x03,
4555,-411,264,862,-70,-1400,0,,,,,,,0x03,
4565,-417,265,859,1680,-910,210,,,,,,,0x03,
4575,-425,279,864,2520,-350,350,,,,,,,0x03,
4584,-434,278,860,2730,-210,420,,,,,,,0x03,
4594,-443,275,856,2240,-140,280,,,,,,,0x03,
4604,-448,275,856,1750,70,0,,,,,,,0x03,
4613,-441,272,855,1820,280,-140,,,,,,,0x03,
4623,-431,271,852,2240,420,-140,,,,,,,0x03,
4633,-427,273,853,3010,560,-70,,,,,,,0x03,
4642,-427,279,851,3570,770,70,,,,,,,0x03,
4652,-420,278,851,4200,840,0,,,,,,,0x03,
4661,-415,280,848,4830,770,70,,,,,,,0x03,
4671,-414,286,849,5320,770,140,,,,,,,0x03,
4681,-412,293,851,5320,770,350,,,,,,,0x03,
4690,-414,295,853,4830,560,490,,,,,,,0x03,
4700,-422,296,852,4270,490,700,,,,,,,0x03,
4710,-427,296,849,4130,490,840,,,,,,,0x03,
4719,-436,296,849,3430,420,910,,,,,,,0x03,
4729,-444,295,846,2590,210,700,,,,,,,0x03,
4739,-447,293,843,1820,70,630,,,,,,,0x03,
4748,-445,295,843,910,-140,490,,,,,,,0x03,
4758,-440,292,840,350,-420,350,,,,,,,0x03,
4768,-435,292,844,70,-630,350,,,,,,,0x03,
4777,-426,297,845,-210,-840,350,,,,,,,0x03,
4787,-411,299,848,0,-980,350,,,,,,,0x03,
4797,-408,305,849,280,-1050,560,,,,,,,0x03,
4806,-414,312,851,210,-1190,770,,,,,,,0x03,
4816,-426,307,854,-1190,-1260,910,,,,,,,0x03,
4826,-433,295,853,-2730,-1470,910,,,,,,,0x03,
4835,-434,290,852,-3220,-1540,630,,,,,,,0x03,
4845,-435,287,852,-3290,-1470,560,,,,,,,0x03,
4854,-436,281,853,-3360,-1400,630,,,,,,,0x03,
4864,-436,279,853,-3220,-1400,630,,,,,,,0x03,
4874,-436,274,853,-3150,-1260,700,,,,,,,0x03,
4883,-435,268,852,-2730,-1120,700,,,,,,,0x03,
4893,-432,264,852,-1820,-840,630,,,,,,,0x03,
4903,-429,266,850,210,-630,560,,,,,,,0x03,
4912,-429,274,848,2170,-350,700,,,,,,,0x03,
4922,-432,288,849,2940,-140,840,,,,,,,0x03,
4932,-431,300,850,2800,-210,910,,,,,,,0x03,
4941,-424,303,850,1960,-420,910,,,,,,,0x03,
4951,-422,302,850,840,-700,910,,,,,,,0x03,
4961,-424,294,849,140,-840,770,,,,,,,0x03,
4970,-430,287,843,350,-1050,630,,,,,,,0x03,
4980,-438,285,840,910,-1190,630,,,,,,,0x03,
4990,-442,286,844,1120,-1260,560,,,,,,,0x03,
4999,-441,284,847,910,-1330,630,,,,,,,0x03,
5009,-433,280,848,1330,-1400,560,,,,,,,0x03,
5019,-427,280,852,2240,-1330,560,,,,,,,0x03,
5028,-421,284,854,2730,-1260,630,,,,,,,0x03,
5038,-418,288,856,3010,-1190,630,,,,,,,0x03,
5048,-419,285,855,2520,-1120,560,,,,,,,0x03,
5057,-420,281,858,2380,-980,280,,,,,,,0x03,
5067,-423,282,850,3080,-840,140,,,,,,,0x03,
5076,-430,284,850,3850,-560,70,,,,,,,0x03,
5086,-430,292,852,4690,-490,0,,,,,,,0x03,
5096,-429,302,840,5180,-420,-140,,,,,,,0x03,
5105,-428,304,842,5040,-560,-70,,,,,,,0x03,
5115,-436,308,841,4760,-770,0,,,,,,,0x03,
5125,-439,303,843,4340,-910,140,,,,,,,0x03,
5134,-431,306,847,3780,-910,0,,,,,,,0x03,
5144,-419,306,850,3500,-910,-70,,,,,,,0x03,
5154,-412,306,856,3010,-910,-70,,,,,,,0x03,
5163,-419,307,851,2170,-910,-70,,,,,,,0x03,
5173,-426,302,854,1820,-910,-70,,,,,,,0x03,
5183,-431,306,855,980,-770,-210,,,,,,,0x03,
5192,-424,305,855,210,-490,-490,,,,,,,0x03,
5202,-416,301,852,70,-350,-700,,,,,,,0x03,
5212,-416,306,849,630,-70,-770,,,,,,,0x03,
5221,-421,309,846,1050,140,-770,,,,,,,0x03,
5231,-427,312,842,770,70,-700,,,,,,,0x03,
5241,-434,312,840,140,-210,-700,,,,,,,0x03,
5250,-438,306,835,-350,-490,-770,,,,,,,0x03,
5260,-440,308,836,-840,-910,-770,,,,,,,0x03,
5269,-439,307,836,-1400,-1260,-840,,,,,,,0x03,
5279,-439,301,837,-2030,-1680,-770,,,,,,,0x03,
5289,-442,299,838,-2660,-2100,-770,,,,,,,0x03,
5298,-436,297,842,-2940,-2450,-910,,,,,,,0x03,
5308,-427,297,844,-2940,-2730,-910,,,,,,,0x03,
5318,-416,299,848,-2590,-2870,-980,,,,,,,0x03,
5327,-411,311,852,-2240,-2730,-1050,,,,,,,0x03,
5337,-403,316,856,-2520,-2660,-980,,,,,,,0x03,
5347,-400,315,858,-3010,-2590,-980,,,,,,,0x03,
5356,-414,315,855,-3570,-2450,-980,,,,,,,0x03,
5366,-434,304,851,-4060,-2240,-980,,,,,,,0x03,
5376,-454,299,848,-4690,-2240,-1050,,,,,,,0x03,
5385,-457,294,847,-5460,-2170,-1120,,,,,,,0x03,
5395,-447,292,850,-6300,-2170,-1260,,,,,,,0x03,
5405,-432,287,851,-7070,-2240,-1470,,,,,,,0x03,
5414,-418,278,851,-6930,-2240,-1400,,,,,,,0x03,
5424,-413,273,850,-6300,-2310,-1190,,,,,,,0x03,
5434,-416,269,851,-5740,-2310,-980,,,,,,,0x03,
5443,-419,268,855,-5180,-2380,-840,,,,,,,0x03,
5453,-416,265,857,-4690,-2310,-630,,,,,,,0x03,
5463,-410,261,855,-3640,-2100,-560,,,,,,,0x03,
5472,-411,264,855,-2030,-1890,-420,,,,,,,0x03,
5482,-417,272,858,-700,-1610,-210,,,,,,,0x03,
5491,-419,281,859,0,-1470,0,,,,,,,0x03,
5501,-420,279,857,280,-1540,210,,,,,,,0x03,
5511,-424,283,857,490,-1400,280,,,,,,,0x03,
5520,-428,284,855,630,-1190,280,,,,,,,0x03,
5530,-428,287,853,560,-1190,280,,,,,,,0x03,
5540,-430,286,856,0,-1190,280,,,,,,,0x03,
5549,-432,284,857,-560,-1190,280,,,,,,,0x03,
5559,-432,277,859,-980,-1120,280,,,,,,,0x03,
5569,-429,269,856,-490,-980,280,,,,,,,0x03,
5578,-419,265,859,350,-630,350,,,,,,,0x03,
5588,-414,266,856,1680,-350,490,,,,,,,0x03,
5598,-414,275,857,2800,-210,630,,,,,,,0x03,
5607,-420,276,853,2730,-140,910,,,,,,,0x03,
5617,-423,276,848,3150,-350,980,,,,,,,0x03,
5627,-430,278,847,3710,-420,1050,,,,,,,0x03,
5636,-440,279,843,3710,-630,1190,,,,,,,0x03,
5646,-441,282,844,3640,-910,1050,,,,,,,0x03,
5656,-441,275,839,3430,-1330,1190,,,,,,,0x03,
5665,-435,273,839,4690,-1680,1260,,,,,,,0x03,
5675,-433,284,843,5600,-1820,1400,,,,,,,0x03,
5684,-422,292,848,5740,-2030,1610,,,,,,,0x03,
5694,-411,300,852,5320,-2170,1610,,,,,,,0x03,
5704,-407,303,853,4830,-2310,1680,,,,,,,0x03,
5713,-410,308,855,3990,-2450,1820,,,,,,,0x03,
5723,-412,311,859,2730,-2590,1750,,,,,,,0x03,
5733,-410,313,859,1540,-2590,1680,,,,,,,0x03,
5742,-409,316,864,490,-2310,1540,,,,,,,0x03,
5752,-408,308,861,-140,-2030,1400,,,,,,,0x03,
5762,-414,304,860,-280,-1820,1260,,,,,,,0x03,
5771,-429,298,856,-140,-1540,1260,,,,,,,0x03,
5781,-437,293,855,140,-1260,1330,,,,,,,0x03,
5791,-434,292,853,210,-1120,1120,,,,,,,0x03,
5800,-429,294,854,280,-840,910,,,,,,,0x03,
5810,-415,301,858,700,-630,700,,,,,,,0x03,
5820,-403,305,857,490,-560,770,,,,,,,0x03,
5829,-397,307,857,-280,-490,840,,,,,,,0x03,
5839,-396,303,858,-1050,-560,770,,,,,,,0x03,
5849,-400,295,859,-980,-490,770,,,,,,,0x03,
5858,-401,291,860,-630,-280,630,,,,,,,0x03,
5868,-405,293,860,490,140,490,,,,,,,0x03,
5878,-411,295,857,1890,560,420,,,,,,,0x03,
5887,-418,304,856,2870,910,560,,,,,,,0x03,
5897,-420,307,858,3080,1260,630,,,,,,,0x03,
5906,-424,306,858,2310,1540,700,,,,,,,0x03,
5916,-423,302,859,1120,1680,490,,,,,,,0x03,
5926,-423,284,857,140,1680,280,,,,,,,0x03,
5935,-423,277,854,350,1750,70,,,,,,,0x03,
5945,-427,279,853,1190,1960,0,,,,,,,0x03,
5955,-429,281,850,1680,2030,0,,,,,,,0x03,
5964,-432,282,848,2240,2100,-70,,,,,,,0x03,
5974,-429,281,842,3290,2170,-140,,,,,,,0x03,
5984,-422,291,841,4480,2240,-140,,,,,,,0x03,
5993,-418,304,841,5320,2170,-140,,,,,,,0x03,
6003,-416,313,842,5600,1960,-70,,,,,,,0x03,
6013,-419,320,837,5320,1610,-70,,,,,,,0x03,
6022,-429,322,837,4550,1260,0,,,,,,,0x03,
6032,-441,322,835,3360,840,70,,,,,,,0x03,
6042,-440,322,839,2520,490,70,,,,,,,0x03,
6051,-439,319,838,1190,140,70,,,,,,,0x03,
6061,-438,311,839,-210,-350,0,,,,,,,0x03,
6071,-436,306,837,-1190,-910,-70,,,,,,,0x03,
6080,-432,303,839,-2030,-1330,-140,,,,,,,0x03,
6090,-426,299,840,-2730,-1820,-140,,,,,,,0x03,
6099,-416,301,841,-2450,-2310,-280,,,,,,,0x03,
6109,-420,309,841,-2100,-2590,-280,,,,,,,0x03,
6119,-426,312,840,-1890,-2870,-140,,,,,,,0x03,
6128,-430,317,839,-1960,-3150,-70,,,,,,,0x03,
6138,-435,323,840,-2310,-3360,0,,,,,,,0x03,
6148,-429,330,840,-2730,-3640,0,,,,,,,0x03,
6157,-427,333,839,-4060,-3990,0,,,,,,,0x03,
6167,-428,328,838,-6090,-4620,0,,,,,,,0x03,
6177,-434,319,840,-8120,-5180,0,,,,,,,0x03,
6186,-445,309,844,-9870,-5600,0,,,,,,,0x03,
6196,-446,296,849,-11200,-5950,-350,,,,,,,0x03,
6206,-437,277,851,-12040,-6230,-490,,,,,,,0x03,
6215,-427,270,853,-11690,-6230,-700,,,,,,,0x03,
6225,-414,269,855,-10150,-5950,-770,,,,,,,0x03,
6235,-403,275,856,-8330,-5740,-700,,,,,,,0x03,
6244,-401,286,862,-7840,-5530,-490,,,,,,,0x03,
6254,-399,281,863,-7770,-5460,-420,,,,,,,0x03,
6264,-395,275,862,-7000,-5530,-350,,,,,,,0x03,
6273,-398,268,861,-5670,-5320,-280,,,,,,,0x03,
6283,-408,266,861,-4130,-4970,-70,,,,,,,0x03,
6293,-418,271,864,-3290,-4620,210,,,,,,,0x03,
6302,-422,273,865,-2940,-4550,210,,,,,,,0x03,
6312,-417,273,867,-2940,-4340,140,,,,,,,0x03,
6321,-411,277,867,-3150,-4130,-70,,,,,,,0x03,
6331,-408,280,866,-3360,-3850,-70,,,,,,,0x03,
6341,-409,273,864,-3430,-3710,0,,,,,,,0x03,
6350,-411,275,866,-3220,-3430,70,,,,,,,0x03,
6360,-410,276,866,-2800,-3080,70,,,,,,,0x03,
6370,-407,270,869,-2730,-2730,140,,,,,,,0x03,
6379,-404,270,870,-2310,-2590,70,,,,,,,0x03,
6389,-403,271,871,-1540,-2310,0,,,,,,,0x03,
6399,-400,267,876,-1120,-1960,0,,,,,,,0x03,
6408,-395,265,876,-280,-1470,0,,,,,,,0x03,
6418,-390,263,876,1190,-910,70,,,,,,,0x03,
6428,-395,264,880,2100,-210,280,,,,,,,0x03,
6437,-402,260,877,2870,420,280,,,,,,,0x03,
6447,-404,257,873,4270,1050,210,,,,,,,0x03,
6457,-408,265,869,5880,1610,210,,,,,,,0x03,
6466,-409,279,869,6790,1960,350,,,,,,,0x03,
6476,-407,292,864,6650,2170,420,,,,,,,0x03,
6486,-402,300,863,5950,2240,350,,,,,,,0x03,
6495,-402,304,861,4900,2100,420,,,,,,,0x03,
6505,-406,304,858,3570,1890,490,,,,,,,0x03,
6514,-409,295,857,2310,1680,560,,,,,,,0x03,
6524,-414,284,856,1400,1470,630,,,,,,,0x03,
6534,-419,275,851,1750,1400,700,,,,,,,0x03,
6543,-420,272,849,2800,1330,770,,,,,,,0x03,
6553,-426,275,850,3360,1190,910,,,,,,,0x03,
6563,-427,276,851,3570,910,1120,,,,,,,0x03,
6572,-420,278,852,3570,700,1260,,,,,,,0x03,
6582,-415,279,853,3500,420,1400,,,,,,,0x03,
6592,-413,279,853,3430,210,1540,,,,,,,0x03,
6601,-412,279,854,3780,70,1680,,,,,,,0x03,
6611,-409,282,856,4340,0,1610,,,,,,,0x03,
6621,-413,288,855,4620,0,1680,,,,,,,0x03,
6630,-414,289,854,5040,-70,1820,,,,,,,0x03,
6640,-417,293,852,5320,-210,1890,,,,,,,0x03,
6650,-418,296,849,5670,-280,1960,,,,,,,0x03,
6659,-426,299,849,5460,-350,2100,,,,,,,0x03,
6669,-433,303,851,4550,-630,2100,,,,,,,0x03,
6679,-426,301,853,3640,-770,2100,,,,,,,0x03,
6688,-416,297,853,3290,-840,2100,,,,,,,0x03,
6698,-412,291,854,3220,-770,2100,,,,,,,0x03,
6707,-415,280,856,3080,-700,2240,,,,,,,0x03,
6717,-417,270,857,3500,-770,2240,,,,,,,0x03,
6727,-412,265,862,5110,-630,2100,,,,,,,0x03,
6736,-403,261,862,6650,-140,2240,,,,,,,0x03,
6746,-390,259,862,9450,280,2170,,,,,,,0x03,
6756,-391,262,860,12670,980,2380,,,,,,,0x03,
6765,-407,264,859,15750,1750,2730,,,,,,,0x03,
6775,-413,272,858,18760,2520,2940,,,,,,,0x03,
6785,-411,286,851,21280,3150,3150,,,,,,,0x03,
6794,-411,306,850,23240,3570,3220,,,,,,,0x03,
6804,-416,328,848,23310,3780,3220,,,,,,,0x03,
6814,-421,340,845,21840,3500,3080,,,,,,,0x03,
6823,-423,345,839,19950,3080,2660,,,,,,,0x03,
6833,-421,349,835,18760,2870,2170,,,,,,,0x03,
6843,-418,353,832,18270,2800,1820,,,,,,,0x03,
6852,-411,362,827,18270,2730,1680,,,,,,,0x03,
6862,-410,381,828,17990,2590,1680,,,,,,,0x03,
6872,-408,396,830,16170,2380,1610,,,,,,,0x03,
6881,-405,400,836,13370,2030,1540,,,,,,,0x03,
6891,-404,397,832,10360,1750,1260,,,,,,,0x03,
6901,-404,392,836,7910,1400,910,,,,,,,0x03,
6910,-416,384,836,5530,1330,770,,,,,,,0x03,
6920,-423,377,836,3570,1190,420,,,,,,,0x03,
6929,-426,376,833,1890,1190,0,,,,,,,0x03,
6939,-428,372,830,210,980,-210,,,,,,,0x03,
6949,-435,360,828,-1470,770,-280,,,,,,,0x03,
6958,-440,347,829,-3080,560,-350,,,,,,,0x03,
6968,-434,330,827,-3080,560,-560,,,,,,,0x03,
6978,-422,321,828,-1610,770,-700,,,,,,,0x03,
6987,-419,328,832,420,1120,-630,,,,,,,0x03,
6997,-413,334,834,2240,1330,-490,,,,,,,0x03,
7007,-407,337,833,3360,1400,-280,,,,,,,0x03,
7016,-404,349,831,3780,1400,-140,,,,,,,0x03,
7026,-407,357,830,3710,1260,70,,,,,,,0x03,
7036,-412,360,828,2590,980,140,,,,,,,0x03,
7045,-420,358,830,1330,630,70,,,,,,,0x03,
7055,-427,350,825,700,350,0,,,,,,,0x03,
7065,-434,343,821,700,210,70,,,,,,,0x03,
7074,-438,341,821,1120,210,70,,,,,,,0x03,
7084,-439,342,821,2030,280,140,,,,,,,0x03,
7094,-436,341,819,2450,350,280,,,,,,,0x03,
7103,-435,340,822,2520,70,350,,,,,,,0x03,
7113,-433,338,819,2870,-210,350,,,,,,,0x03,
7122,-425,339,822,3780,-560,280,,,,,,,0x03,
7132,-421,348,826,3780,-770,490,,,,,,,0x03,
7142,-415,349,835,3290,-840,560,,,,,,,0x03,
7151,-408,341,833,2870,-910,630,,,,,,,0x03,
7161,-408,334,829,3920,-840,560,,,,,,,0x03,
7171,-412,333,834,5530,-630,560,,,,,,,0x03,
7180,-424,334,822,7140,-350,560,,,,,,,0x03,
7190,-428,347,825,9030,-280,350,,,,,,,0x03,
7200,-437,357,819,9240,0,420,,,,,,,0x03,
7209,-434,360,824,9870,0,420,,,,,,,0x03,
7219,-431,370,820,9450,140,490,,,,,,,0x03,
7229,-428,367,822,9030,70,350,,,,,,,0x03,
7238,-428,367,823,8820,-70,210,,,,,,,0x03,
7248,-428,370,824,8260,-210,0,,,,,,,0x03,
7258,-422,372,827,7700,-140,-210,,,,,,,0x03,
7267,-412,375,829,7280,0,-280,,,,,,,0x03,
7277,-415,381,829,6790,210,-350,,,,,,,0x03,
7287,-414,378,826,6300,490,-350,,,,,,,0x03,
7296,-414,379,824,6090,840,-350,,,,,,,0x03,
7306,-419,379,819,5880,1120,-280,,,,,,,0x03,
7316,-429,379,816,5390,1260,-280,,,,,,,0x03,
7325,-434,384,815,4550,1190,-280,,,,,,,0x03,
7335,-431,386,814,3290,980,-210,,,,,,,0x03,
7344,-425,386,811,1960,560,-140,,,,,,,0x03,
7354,-421,381,810,770,0,-350,,,,,,,0x03,
7364,-421,377,809,-70,-490,-420,,,,,,,0x03,
7373,-421,374,810,-140,-910,-280,,,,,,,0x03,
7383,-421,374,810,-70,-1190,-140,,,,,,,0x03,
7393,-427,371,813,-70,-1330,0,,,,,,,0x03,
7402,-434,361,816,-70,-1400,140,,,,,,,0x03,
7412,-436,357,818,210,-1330,140,,,,,,,0x03,
7422,-429,365,821,1050,-1190,70,,,,,,,0x03,
7431,-419,371,820,1750,-910,70,,,,,,,0x03,
7441,-412,376,820,1820,-840,140,,,,,,,0x03,
7451,-413,386,820,1190,-770,280,,,,,,,0x03,
7460,-417,388,820,-140,-770,490,,,,,,,0x03,
7470,-422,385,817,-1680,-1050,490,,,,,,,0x03,
7480,-430,379,823,-3150,-1330,350,,,,,,,0x03,
7489,-435,360,817,-3990,-1470,210,,,,,,,0x03,
7499,-429,360,819,-3010,-1330,70,,,,,,,0x03,
7509,-421,359,820,-1470,-980,70,,,,,,,0x03,
7518,-418,356,820,-210,-560,210,,,,,,,0x03,
7528,-421,356,829,700,-70,280,,,,,,,0x03,
7537,-415,356,828,1820,420,210,,,,,,,0x03,
7547,-406,361,826,3360,910,140,,,,,,,0x03,
7557,-406,369,830,4130,1400,280,,,,,,,0x03,
7566,-416,379,831,3920,1890,420,,,,,,,0x03,
7576,-424,384,828,3010,2170,350,,,,,,,0x03,
7586,-431,378,823,1610,2310,210,,,,,,,0x03,
7595,-439,373,819,910,2450,-70,,,,,,,0x03,
7605,-444,372,817,490,2660,-280,,,,,,,0x03,
7615,-443,375,816,280,2800,-560,,,,,,,0x03,
7624,-434,373,816,0,2870,-560,,,,,,,0x03,
7634,-427,366,817,-140,3010,-630,,,,,,,0x03,
7644,-422,357,815,700,3290,-630,,,,,,,0x03,
7653,-421,346,813,2240,3430,-490,,,,,,,0x03,
7663,-426,342,816,4200,3780,-280,,,,,,,0x03,
7673,-428,346,815,6790,4060,-70,,,,,,,0x03,
7682,-427,355,818,8680,4410,140,,,,,,,0x03,
7692,-428,371,819,9520,4690,140,,,,,,,0x03,
7702,-426,381,815,9660,4690,70,,,,,,,0x03,
7711,-425,393,807,9380,4550,70,,,,,,,0x03,
7721,-434,404,806,7980,4340,140,,,,,,,0x03,
7731,-445,400,802,5600,3780,140,,,,,,,0x03,
7740,-448,403,798,3710,3220,-140,,,,,,,0x03,
7750,-443,404,792,2800,2940,-490,,,,,,,0x03,
7759,-442,410,788,2450,2520,-490,,,,,,,0x03,
7769,-450,419,788,1400,2170,-560,,,,,,,0x03,
7779,-454,426,790,-350,1750,-700,,,,,,,0x03,
7788,-452,427,792,-2800,1120,-910,,,,,,,0x03,
7798,-445,422,793,-5320,490,-1260,,,,,,,0x03,
7808,-440,412,789,-7280,-140,-1610,,,,,,,0x03,
7817,-443,398,789,-8680,-1050,-1890,,,,,,,0x03,
7827,-454,393,790,-9870,-1820,-2240,,,,,,,0x03,
7837,-455,387,792,-10500,-2520,-2380,,,,,,,0x03,
7846,-446,381,792,-10430,-3010,-2380,,,,,,,0x03,
7856,-439,376,794,-9730,-3290,-2380,,,,,,,0x03,
7866,-437,376,798,-8610,-3570,-2240,,,,,,,0x03,
7875,-432,383,802,-7980,-3780,-2100,,,,,,,0x03,
7885,-426,393,805,-8260,-4130,-2100,,,,,,,0x03,
7895,-423,398,810,-9590,-4410,-2100,,,,,,,0x03,
7904,-428,397,810,-11550,-4970,-2170,,,,,,,0x03,
7914,-437,388,809,-13230,-5530,-2380,,,,,,,0x03,
7924,-449,383,810,-14560,-5880,-2590,,,,,,,0x03,
7933,-451,377,813,-16030,-6090,-2730,,,,,,,0x03,
7943,-449,374,816,-17290,-6230,-2940,,,,,,,0x03,
7952,-443,367,818,-18270,-6230,-3010,,,,,,,0x03,
7962,-435,359,821,-18480,-6160,-3080,,,,,,,0x03,
7972,-429,359,822,-17990,-5950,-3150,,,,,,,0x03,
7981,-423,355,826,-17570,-5740,-2940,,,,,,,0x03,
7991,-421,352,829,-17780,-5670,-2660,,,,,,,0x03,
8001,-422,344,833,-18550,-5670,-2590,,,,,,,0x03,
8010,-423,328,834,-19320,-5740,-2380,,,,,,,0x03,
8020,-420,310,838,-19460,-5670,-2310,,,,,,,0x03,
8030,-419,291,840,-18410,-5320,-2240,,,,,,,0x03,
8039,-419,282,843,-16380,-4900,-2030,,,,,,,0x03,
8049,-419,283,844,-13650,-4340,-1890,,,,,,,0x03,
8059,-418,287,849,-11060,-3780,-1750,,,,,,,0x03,
8068,-428,290,848,-9380,-3150,-1610,,,,,,,0x03,
8078,-434,299,844,-7630,-2730,-1610,,,,,,,0x03,
8088,-436,310,843,-6860,-2380,-1470,,,,,,,0x03,
8097,-430,316,842,-6790,-2240,-1400,,,,,,,0x03,
8107,-421,323,840,-6930,-2240,-1330,,,,,,,0x03,
8117,-415,325,840,-7560,-2380,-1260,,,,,,,0x03,
8126,-415,327,840,-7980,-2450,-1120,,,,,,,0x03,
8136,-419,320,838,-8190,-2520,-1120,,,,,,,0x03,
8146,-427,311,839,-8190,-2660,-910,,,,,,,0x03,
8155,-437,301,840,-8050,-2590,-840,,,,,,,0x03,
8165,-444,296,838,-7210,-2450,-840,,,,,,,0x03,
8174,-446,299,835,-5600,-2380,-910,,,,,,,0x03,
8184,-451,305,835,-4760,-2520,-700,,,,,,,0x03,
8194,-450,313,839,-5600,-2800,-770,,,,,,,0x03,
8203,-441,313,840,-7420,-3220,-910,,,,,,,0x03,
8213,-429,295,841,-9030,-3710,-910,,,,,,,0x03,
8223,-428,274,841,-8820,-3920,-840,,,,,,,0x03,
8232,-425,257,846,-6790,-3640,-700,,,,,,,0x03,
8242,-415,255,851,-3360,-3080,-420,,,,,,,0x03,
8252,-405,259,857,140,-2450,-70,,,,,,,0x03,
8261,-399,269,858,3080,-1820,210,,,,,,,0x03,
8271,-396,282,860,5460,-1190,490,,,,,,,0x03,
8281,-403,297,859,6790,-700,770,,,,,,,0x03,
8290,-418,308,853,6930,-490,980,,,,,,,0x03,
8300,-434,315,847,6370,-490,980,,,,,,,0x03,
8310,-446,321,843,5040,-630,910,,,,,,,0x03,
8319,-445,327,841,2940,-910,770,,,,,,,0x03,
8329,-438,320,838,1050,-1330,630,,,,,,,0x03,
8339,-437,315,837,-280,-1610,490,,,,,,,0x03,
8348,-429,309,839,-630,-2030,350,,,,,,,0x03,
8358,-418,315,839,-140,-2170,210,,,,,,,0x03,
8367,-406,322,842,490,-2310,210,,,,,,,0x03,
8377,-403,324,850,630,-2240,560,,,,,,,0x03,
8387,-405,322,854,490,-2030,630,,,,,,,0x03,
8396,-401,317,854,630,-1610,560,,,,,,,0x03,
8406,-403,314,857,980,-1330,420,,,,,,,0x03,
8416,-412,318,859,980,-840,350,,,,,,,0x03,
8425,-413,325,863,700,-350,280,,,,,,,0x03,
8435,-411,326,861,-490,0,210,,,,,,,0x03,
8445,-414,317,858,-1680,210,0,,,,,,,0x03,
8454,-420,310,854,-2100,490,-210,,,,,,,0x03,
8464,-423,302,849,-1960,770,-350,,,,,,,0x03,
8474,-427,300,845,-1470,1050,-490,,,,,,,0x03,
8483,-430,308,843,-420,1470,-560,,,,,,,0x03,
8493,-425,317,843,210,1750,-490,,,,,,,0x03,
8503,-423,322,841,140,1820,-490,,,,,,,0x03,
8512,-422,326,840,-350,1820,-630,,,,,,,0x03,
8522,-426,327,838,-910,1610,-700,,,,,,,0x03,
8532,-428,323,836,-1750,1330,-700,,,,,,,0x03,
8541,-429,315,836,-2660,1050,-770,,,,,,,0x03,
8551,-434,312,835,-3080,700,-770,,,,,,,0x03,
8561,-435,309,835,-3290,350,-700,,,,,,,0x03,
8570,-439,306,835,-3850,-70,-490,,,,,,,0x03,
8580,-439,300,836,-4060,-420,-560,,,,,,,0x03,
8589,-439,297,837,-3920,-700,-560,,,,,,,0x03,
8599,-435,298,838,-3430,-910,-490,,,,,,,0x03,
8609,-432,301,843,-3150,-980,-560,,,,,,,0x03,
8618,-428,304,845,-3080,-1120,-350,,,,,,,0x03,
8628,-422,307,849,-3010,-1120,-280,,,,,,,0x03,
8638,-419,308,851,-3220,-1120,-210,,,,,,,0x03,
8647,-417,309,849,-3290,-1120,-210,,,,,,,0x03,
8657,-422,312,851,-3850,-1120,-140,,,,,,,0x03,
8667,-426,312,848,-5040,-1330,-210,,,,,,,0x03,
8676,-428,310,851,-6440,-1470,-280,,,,,,,0x03,
8686,-431,306,849,-7770,-1540,-350,,,,,,,0x03,
8696,-432,303,848,-8260,-1610,-280,,,,,,,0x03,
8705,-433,298,851,-8890,-1540,-140,,,,,,,0x03,
8715,-436,294,855,-9660,-1470,-70,,,,,,,0x03,
8725,-432,284,854,-9870,-1400,0,,,,,,,0x03,
8734,-425,272,855,-9800,-1260,70,,,,,,,0x03,
8744,-428,262,852,-9380,-1050,140,,,,,,,0x03,
8754,-427,251,854,-7700,-840,210,,,,,,,0x03,
8763,-425,238,856,-5880,-560,350,,,,,,,0x03,
8773,-419,248,861,-3220,-70,140,,,,,,,0x03,
8782,-402,264,862,-350,700,140,,,,,,,0x03,
8792,-389,272,865,1400,1120,350,,,,,,,0x03,
8802,-388,288,861,2800,1400,350,,,,,,,0x03,
8811,-397,294,855,4060,1680,490,,,,,,,0x03,
8821,-416,295,848,4830,1680,490,,,,,,,0x03,
8831,-437,296,847,5250,1750,350,,,,,,,0x03,
8840,-446,301,847,5810,1960,140,,,,,,,0x03,
8850,-439,299,843,6370,2170,-70,,,,,,,0x03,
8860,-437,303,838,7140,2240,-140,,,,,,,0x03,
8869,-443,307,836,7070,2170,-70,,,,,,,0x03,
8879,-445,307,835,6440,1750,-70,,,,,,,0x03,
8889,-445,307,836,5110,1050,-140,,,,,,,0x03,
8898,-444,305,834,3500,210,-420,,,,,,,0x03,
8908,-441,308,838,1960,-420,-490,,,,,,,0x03,
8918,-428,300,838,700,-910,-560,,,,,,,0x03,
8927,-421,294,837,350,-1470,-560,,,,,,,0x03,
8937,-419,294,838,1050,-1680,-630,,,,,,,0x03,
8947,-418,300,838,2240,-1750,-420,,,,,,,0x03,
8956,-419,310,839,2800,-1890,-280,,,,,,,0x03,
8966,-422,317,841,2730,-2100,-70,,,,,,,0x03,
8976,-428,318,840,1470,-2450,140,,,,,,,0x03,
8985,-432,319,837,560,-3010,0,,,,,,,0x03,
8995,-436,322,838,-700,-3500,-140,,,,,,,0x03,
9004,-441,322,841,-2520,-3990,-350,,,,,,,0x03,
9014,-437,322,844,-4340,-4410,-490,,,,,,,0x03,
9024,-428,317,843,-5670,-4760,-490,,,,,,,0x03,
9033,-426,316,846,-6860,-4900,-420,,,,,,,0x03,
9043,-431,308,846,-8400,-5040,-210,,,,,,,0x03,
9053,-428,298,853,-9660,-5040,-210,,,,,,,0x03,
9062,-421,290,862,-10850,-4900,-350,,,,,,,0x03,
9072,-412,283,870,-11200,-4550,-490,,,,,,,0x03,
9082,-402,275,878,-10920,-3920,-490,,,,,,,0x03,
9091,-400,268,880,-10080,-3080,-490,,,,,,,0x03,
9101,-396,268,881,-8120,-1960,-630,,,,,,,0x03,
9111,-404,279,885,-6790,-630,-560,,,,,,,0x03,
9120,-411,284,888,-6510,560,-700,,,,,,,0x03,
9130,-420,296,883,-6860,1610,-1050,,,,,,,0x03,
9140,-431,312,877,-7630,2660,-1470,,,,,,,0x03,
9149,-437,330,868,-9100,3220,-1960,,,,,,,0x03,
9159,-440,344,862,-12040,3360,-2520,,,,,,,0x03,
9169,-444,353,861,-16380,3290,-3290,,,,,,,0x03,
9178,-439,341,858,-20860,3080,-3920,,,,,,,0x03,
9188,-434,315,848,-24290,2590,-4480,,,,,,,0x03,
9197,-429,295,842,-25690,2100,-4760,,,,,,,0x03,
9207,-431,281,844,-25760,2240,-4690,,,,,,,0x03,
9217,-426,271,853,-24780,2240,-4410,,,,,,,0x03,
9226,-423,265,858,-24360,2240,-4270,,,,,,,0x03,
9236,-424,273,862,-23800,2170,-4550,,,,,,,0x03,
9246,-415,278,863,-23380,2170,-4620,,,,,,,0x03,
9255,-411,272,870,-24990,2030,-4340,,,,,,,0x03,
9265,-413,251,866,-27300,1470,-4340,,,,,,,0x03,
9275,-414,216,860,-28560,840,-4340,,,,,,,0x03,
9284,-420,187,857,-28210,420,-4130,,,,,,,0x03,
9294,-425,168,859,-26530,210,-3920,,,,,,,0x03,
9304,-427,157,857,-23520,280,-3640,,,,,,,0x03,
9313,-423,160,855,-19460,280,-3290,,,,,,,0x03,
9323,-426,163,858,-16170,210,-2590,,,,,,,0x03,
9333,-435,164,858,-13510,0,-2100,,,,,,,0x03,
9342,-436,165,860,-10920,-280,-1750,,,,,,,0x03,
9352,-434,157,857,-8680,-560,-1050,,,,,,,0x03,
9362,-437,145,858,-6300,-700,-490,,,,,,,0x03,
9371,-441,146,859,-2800,-630,-70,,,,,,,0x03,
9381,-440,151,861,280,-630,420,,,,,,,0x03,
9390,-436,156,866,2520,-840,980,,,,,,,0x03,
9400,-437,159,870,3920,-980,1400,,,,,,,0x03,
9410,-440,173,875,5390,-1120,1750,,,,,,,0x03,
9419,-439,189,878,6580,-1050,1820,,,,,,,0x03,
9429,-438,201,880,7000,-980,1890,,,,,,,0x03,
9439,-443,218,876,6440,-840,1680,,,,,,,0x03,
9448,-447,230,870,5180,-910,1470,,,,,,,0x03,
9458,-450,230,866,3640,-1190,1540,,,,,,,0x03,
9468,-455,225,862,2590,-1400,1470,,,,,,,0x03,
9477,-460,217,862,2030,-1400,1400,,,,,,,0x03,
9487,-458,208,861,2380,-1260,1400,,,,,,,0x03,
9497,-448,198,865,3010,-1120,1610,,,,,,,0x03,
9506,-439,188,867,4270,-1050,1750,,,,,,,0x03,
9516,-437,182,859,6510,-910,1750,,,,,,,0x03,
9526,-439,192,864,8610,-980,1820,,,,,,,0x03,
9535,-443,210,869,8960,-1120,1820,,,,,,,0x03,
9545,-435,216,864,8260,-1610,1540,,,,,,,0x03,
9555,-430,225,863,7210,-2170,1330,,,,,,,0x03,
9564,-432,231,861,6160,-2730,1330,,,,,,,0x03,
9574,-424,229,862,5390,-3150,1470,,,,,,,0x03,
9584,-415,230,863,5670,-3430,1540,,,,,,,0x03,
9593,-413,222,865,7140,-3500,1680,,,,,,,0x03,
9603,-420,208,861,9310,-3500,1820,,,,,,,0x03,
9612,-432,213,860,12040,-3360,1890,,,,,,,0x03,
9622,-443,226,860,14210,-3010,2100,,,,,,,0x03,
9632,-443,243,867,14700,-2800,2380,,,,,,,0x03,
9641,-437,257,873,13370,-2870,2310,,,,,,,0x03,
9651,-425,260,879,11270,-3010,2030,,,,,,,0x03,
9661,-411,257,879,9240,-3220,1750,,,,,,,0x03,
9670,-404,262,884,7980,-3150,1260,,,,,,,0x03,
9680,-409,269,888,6580,-2730,980,,,,,,,0x03,
9690,-413,264,888,4970,-2240,770,,,,,,,0x03,
9699,-416,253,884,4340,-1540,420,,,,,,,0x03,
9709,-415,247,873,5040,-770,140,,,,,,,0x03,
9719,-414,253,868,6160,-210,140,,,,,,,0x03,
9728,-419,264,866,6160,70,280,,,,,,,0x03,
9738,-420,266,867,4830,-70,420,,,,,,,0x03,
9748,-417,261,865,3080,-210,420,,,,,,,0x03,
9757,-416,246,861,2590,-560,280,,,,,,,0x03,
9767,-418,235,861,3570,-770,350,,,,,,,0x03,
9777,-421,227,860,4970,-840,700,,,,,,,0x03,
9786,-423,223,860,6230,-840,1050,,,,,,,0x03,
9796,-425,228,865,7560,-630,1120,,,,,,,0x03,
9805,-427,240,871,8400,-350,1190,,,,,,,0x03,
9815,-424,249,871,8610,-140,980,,,,,,,0x03,
9825,-418,257,872,7910,70,910,,,,,,,0x03,
9834,-420,262,870,6860,140,840,,,,,,,0x03,
9844,-420,269,868,6090,280,630,,,,,,,0x03,
9854,-421,277,866,5390,350,420,,,,,,,0x03,
9863,-423,281,865,4900,490,280,,,,,,,0x03,
9873,-425,281,861,4620,630,140,,,,,,,0x03,
9883,-428,282,856,4130,770,70,,,,,,,0x03,
9892,-431,277,853,3990,700,0,,,,,,,0x03,
9902,-441,281,849,4060,560,0,,,,,,,0x03,
9912,-450,288,850,3570,420,-70,,,,,,,0x03,
9921,-451,293,853,2170,0,-210,,,,,,,0x03,
9931,-445,291,850,0,-350,-420,,,,,,,0x03,
9941,-442,285,849,-2100,-770,-560,,,,,,,0x03,
9950,-440,270,852,-3500,-1260,-560,,,,,,,0x03,
9960,-444,255,852,-3990,-1540,-560,,,,,,,0x03,
9970,-445,248,851,-3570,-1750,-630,,,,,,,0x03,
9979,-442,246,852,-3010,-1890,-630,,,,,,,0x03,
9989,-439,252,853,-2940,-2170,-700,,,,,,,0x03,
9999,-434,258,857,-3290,-2450,-770,,,,,,,0x03,
10008,-425,258,853,-3360,-2870,-840,,,,,,,0x03,
10018,-426,262,853,-3010,-3220,-700,,,,,,,0x03,
10027,-430,270,855,-3080,-3430,-630,,,,,,,0x03,
10037,-424,272,856,-3010,-3640,-490,,,,,,,0x03,
10047,-419,273,855,-3500,-3850,-280,,,,,,,0x03,
10056,-418,266,856,-3850,-4130,-140,,,,,,,0x03,
10066,-425,264,859,-4550,-4340,70,,,,,,,0x03,
10076,-427,260,864,-5600,-4620,70,,,,,,,0x03,
10085,-425,247,866,-6370,-4900,70,,,,,,,0x03,
10095,-421,236,865,-6580,-5110,70,,,,,,,0x03,
10105,-424,232,866,-6440,-5250,-70,,,,,,,0x03,
10114,-430,235,868,-6160,-5250,-70,,,,,,,0x03,
10124,-424,238,869,-6020,-5110,70,,,,,,,0x03,
10134,-414,236,871,-5810,-5040,140,,,,,,,0x03,
10143,-409,234,877,-5320,-4760,350,,,,,,,0x03,
10153,-407,230,879,-4480,-4340,490,,,,,,,0x03,
10163,-403,227,881,-3080,-3710,560,,,,,,,0x03,
10172,-401,226,877,-840,-3080,630,,,,,,,0x03,
10182,-405,231,879,840,-2520,770,,,,,,,0x03,
10192,-411,238,876,2240,-2030,770,,,,,,,0x03,
10201,-414,243,875,2940,-1750,770,,,,,,,0x03,
10211,-423,245,873,2590,-1610,770,,,,,,,0x03,
10220,-424,244,872,2170,-1470,700,,,,,,,0x03,
10230,-422,243,870,2520,-1260,630,,,,,,,0x03,
10240,-418,236,869,3500,-980,630,,,,,,,0x03,
10249,-417,235,865,5040,-700,630,,,,,,,0x03,
10259,-421,241,866,6370,-420,700,,,,,,,0x03,
10269,-423,246,869,7000,-280,840,,,,,,,0x03,
10278,-420,248,871,7420,-140,840,,,,,,,0x03,
10288,-419,249,872,7000,0,910,,,,,,,0x03,
10298,-406,254,875,7420,-70,630,,,,,,,0x03,
10307,-400,264,874,7350,70,630,,,,,,,0x03,
10317,-395,268,882,6510,140,490,,,,,,,0x03,
10327,-394,270,881,5670,420,210,,,,,,,0x03,
10336,-396,267,880,5250,840,140,,,,,,,0x03,
10346,-402,266,875,5460,1400,140,,,,,,,0x03,
10356,-408,268,866,6650,1960,0,,,,,,,0x03,
10365,-428,286,864,7350,2240,-70,,,,,,,0x03,
10375,-442,312,865,6090,2590,-210,,,,,,,0x03,
10385,-443,324,863,2730,2450,-350,,,,,,,0x03,
10394,-438,330,861,-1260,2100,-770,,,,,,,0x03,
10404,-441,324,860,-5810,1680,-1050,,,,,,,0x03,
10414,-439,304,858,-9660,1190,-1260,,,,,,,0x03,
10423,-431,286,860,-12180,700,-1540,,,,,,,0x03,
10433,-418,258,860,-13650,280,-1750,,,,,,,0x03,
10442,-409,236,859,-12880,140,-1890,,,,,,,0x03,
10452,-407,221,862,-10990,280,-1680,,,,,,,0x03,
10462,-409,214,867,-8890,560,-1330,,,,,,,0x03,
10471,-403,205,869,-5950,1120,-980,,,,,,,0x03,
10481,-398,201,869,-2310,1680,-630,,,,,,,0x03,
10491,-408,209,868,1260,2170,-210,,,,,,,0x03,
10500,-422,220,868,3430,2450,140,,,,,,,0x03,
10510,-435,226,867,4200,2450,280,,,,,,,0x03,
10520,-440,229,863,4270,2380,140,,,,,,,0x03,
10529,-439,229,860,4760,2380,-70,,,,,,,0x03,
10539,-434,241,855,5600,2240,-70,,,,,,,0x03,
10549,-433,261,855,5880,2030,0,,,,,,,0x03,
10558,-427,273,853,4830,1470,70,,,,,,,0x03,
10568,-423,284,853,3640,980,-70,,,,,,,0x03,
10578,-422,290,852,2380,560,-210,,,,,,,0x03,
10587,-423,282,850,1120,0,-140,,,,,,,0x03,
10597,-429,276,852,280,-490,-140,,,,,,,0x03,
10607,-424,271,856,0,-770,-280,,,,,,,0x03,
10616,-419,262,859,70,-910,-210,,,,,,,0x03,
10626,-418,258,860,350,-1050,-280,,,,,,,0x03,
10635,-424,255,862,700,-1050,-350,,,,,,,0x03,
10645,-430,253,863,770,-1050,-350,,,,,,,0x03,
10655,-437,254,861,700,-1120,-420,,,,,,,0x03,
10664,-439,257,862,490,-1050,-560,,,,,,,0x03,
10674,-438,270,864,0,-980,-490,,,,,,,0x03,
10684,-433,273,867,-1260,-910,-420,,,,,,,0x03,
10693,-426,274,866,-2450,-980,-490,,,,,,,0x03,
10703,-425,267,861,-3080,-980,-490,,,,,,,0x03,
10713,-431,261,861,-3010,-910,-420,,,,,,,0x03,
10722,-439,253,863,-2940,-770,-350,,,,,,,0x03,
10732,-440,249,860,-2450,-630,-350,,,,,,,0x03,
10742,-443,243,857,-1820,-490,-280,,,,,,,0x03,
10751,-440,240,859,-1540,-420,-280,,,,,,,0x03,
10761,-432,237,860,-1190,-490,-70,,,,,,,0x03,
10771,-426,229,859,-1050,-630,280,,,,,,,0x03,
10780,-426,220,862,-700,-910,630,,,,,,,0x03,
10790,-429,218,867,70,-980,840,,,,,,,0x03,
10800,-423,210,867,1120,-910,1120,,,,,,,0x03,
10809,-417,215,867,2940,-700,1400,,,,,,,0x03,
10819,-410,230,869,4900,-350,1470,,,,,,,0x03,
10829,-408,249,871,6090,0,1680,,,,,,,0x03,
10838,-405,264,873,5880,210,1960,,,,,,,0x03,
10848,-403,268,872,5110,280,2030,,,,,,,0x03,
10857,-407,266,871,4760,560,2100,,,,,,,0x03,
10867,-416,260,866,4900,910,2030,,,,,,,0x03,
10877,-429,260,860,5390,1050,1890,,,,,,,0x03,
10886,-439,262,853,5810,1190,1890,,,,,,,0x03,
10896,-447,262,851,6020,1120,1960,,,,,,,0x03,
10906,-453,261,847,5320,910,2030,,,,,,,0x03,
10915,-460,261,841,4830,560,1960,,,,,,,0x03,
10925,-454,261,843,4620,70,1960,,,,,,,0x03,
10935,-446,265,844,4270,-420,1960,,,,,,,0x03,
10944,-436,265,847,4130,-910,1890,,,,,,,0x03,
10954,-429,273,854,3780,-1330,1960,,,,,,,0x03,
10964,-418,281,855,3640,-1680,1820,,,,,,,0x03,
10973,-405,287,859,3570,-1820,1820,,,,,,,0x03,
10983,-402,288,860,3500,-1890,1890,,,,,,,0x03,
10993,-402,290,863,3430,-2030,1750,,,,,,,0x03,
11002,-411,283,862,3010,-2100,1680,,,,,,,0x03,
11012,-422,281,860,2800,-2100,1470,,,,,,,0x03,
11022,-429,283,861,3150,-1890,1260,,,,,,,0x03,
11031,-430,284,860,3290,-1610,1190,,,,,,,0x03,
11041,-432,294,856,3430,-1400,910,,,,,,,0x03,
11050,-438,305,853,3220,-1400,700,,,,,,,0x03,
11060,-445,316,848,1750,-1610,560,,,,,,,0x03,
11070,-443,317,847,-700,-2030,350,,,,,,,0x03,
11079,-438,312,848,-3570,-2520,210,,,,,,,0x03,
11089,-429,304,848,-5740,-3080,-70,,,,,,,0x03,
11099,-419,295,853,-7070,-3360,-210,,,,,,,0x03,
11108,-415,284,856,-7840,-3710,-140,,,,,,,0x03,
11118,-406,278,858,-7700,-3920,-210,,,,,,,0x03,
11128,-404,273,862,-7770,-3990,-70,,,,,,,0x03,
11137,-412,257,866,-8050,-3990,140,,,,,,,0x03,
11147,-426,233,868,-8680,-3990,350,,,,,,,0x03,
11157,-434,205,869,-8050,-3850,350,,,,,,,0x03,
11166,-428,191,865,-4690,-3220,280,,,,,,,0x03,
11176,-422,197,866,-350,-2450,420,,,,,,,0x03,
11186,-425,216,866,2870,-1890,770,,,,,,,0x03,
11195,-425,239,870,4410,-1540,1050,,,,,,,0x03,
11205,-419,243,876,3710,-1330,1260,,,,,,,0x03,
11215,-405,240,871,3780,-1330,1050,,,,,,,0x03,
11224,-396,256,871,5810,-700,840,,,,,,,0x03,
11234,-397,269,871,7700,-140,980,,,,,,,0x03,
11244,-402,288,873,8330,210,1050,,,,,,,0x03,
11253,-402,301,871,7910,630,980,,,,,,,0x03,
11263,-408,307,868,7070,910,630,,,,,,,0x03,
11272,-415,308,862,6160,1120,350,,,,,,,0x03,
11282,-426,306,856,5040,1120,210,,,,,,,0x03,
11292,-434,306,853,3710,910,70,,,,,,,0x03,
11301,-434,304,852,1890,630,-70,,,,,,,0x03,
11311,-432,299,850,70,280,-280,,,,,,,0x03,
11321,-434,285,851,-1750,-280,-280,,,,,,,0x03,
11330,-437,267,852,-3080,-770,-350,,,,,,,0x03,
11340,-434,248,853,-3220,-1050,-490,,,,,,,0x03,
11350,-432,236,854,-2310,-1120,-560,,,,,,,0x03,
11359,-432,235,855,-140,-1050,-560,,,,,,,0x03,
11369,-427,243,857,2590,-700,-560,,,,,,,0x03,
11379,-416,263,861,4690,-350,-350,,,,,,,0x03,
11388,-406,280,865,5670,-140,-210,,,,,,,0x03,
11398,-399,298,867,5600,-70,-140,,,,,,,0x03,
11408,-398,307,867,4760,70,0,,,,,,,0x03,
11417,-403,309,863,3430,0,140,,,,,,,0x03,
11427,-419,304,860,1680,-140,0,,,,,,,0x03,
11437,-433,303,859,-70,-210,-70,,,,,,,0x03,
11446,-434,298,857,-1890,-350,-280,,,,,,,0x03,
11456,-430,290,853,-3290,-630,-350,,,,,,,0x03,
11465,-425,287,851,-3920,-840,-350,,,,,,,0x03,
11475,-428,286,850,-4130,-980,-350,,,,,,,0x03,
11485,-430,292,848,-3990,-1190,-420,,,,,,,0x03,
11494,-431,297,849,-4480,-1540,-490,,,,,,,0x03,
11504,-433,296,852,-5950,-2030,-490,,,,,,,0x03,
11514,-436,288,848,-8120,-2590,-490,,,,,,,0x03,
11523,-434,280,849,-9660,-3220,-770,,,,,,,0x03,
11533,-430,260,856,-11410,-3640,-630,,,,,,,0x03,
11543,-424,239,863,-11620,-3920,-560,,,,,,,0x03,
11552,-416,219,866,-10430,-3780,-490,,,,,,,0x03,
11562,-414,203,868,-7910,-3500,-420,,,,,,,0x03,
11572,-418,203,867,-4410,-3080,-280,,,,,,,0x03,
11581,-416,213,868,-420,-2380,0,,,,,,,0x03,
11591,-409,238,870,2520,-1750,210,,,,,,,0x03,
11601,-408,251,871,3920,-1260,560,,,,,,,0x03,
11610,-413,252,869,3920,-1120,840,,,,,,,0x03,
11620,-420,249,868,3920,-910,840,,,,,,,0x03,
11630,-420,247,864,5180,-700,770,,,,,,,0x03,
11639,-418,255,864,7000,-350,910,,,,,,,0x03,
11649,-418,272,865,8050,-70,910,,,,,,,0x03,
11659,-419,285,864,7980,70,910,,,,,,,0x03,
11668,-418,290,865,6790,0,1050,,,,,,,0x03,
11678,-420,291,862,5250,-70,980,,,,,,,0x03,
11687,-417,283,861,3990,-140,770,,,,,,,0x03,
11697,-417,279,859,3220,-210,560,,,,,,,0x03,
11707,-421,275,855,3080,-420,420,,,,,,,0x03,
11716,-424,273,852,3220,-630,350,,,,,,,0x03,
11726,-427,274,854,3010,-840,490,,,,,,,0x03,
11736,-425,279,856,2590,-1050,560,,,,,,,0x03,
11745,-415,285,858,2450,-1190,490,,,,,,,0x03,
11755,-407,283,856,2520,-1260,490,,,,,,,0x03,
11765,-404,288,863,2520,-1470,560,,,,,,,0x03,
11774,-407,295,867,1190,-1470,630,,,,,,,0x03,
11784,-401,289,871,490,-1540,490,,,,,,,0x03,
11794,-400,289,870,140,-1120,490,,,,,,,0x03,
11803,-408,282,866,210,-770,490,,,,,,,0x03,
11813,-422,280,861,350,-630,420,,,,,,,0x03,
11823,-434,278,860,-140,-630,210,,,,,,,0x03,
11832,-441,286,859,-1050,-630,-70,,,,,,,0x03,
11842,-433,293,859,-2030,-770,-350,,,,,,,0x03,
11852,-422,292,858,-3150,-840,-420,,,,,,,0x03,
11861,-411,292,855,-3990,-980,-420,,,,,,,0x03,
11871,-410,280,856,-4550,-1260,-280,,,,,,,0x03,
11880,-413,266,862,-4760,-1400,-140,,,,,,,0x03,
11890,-411,253,866,-4270,-1330,-70,,,,,,,0x03,
11900,-406,243,868,-3150,-1050,0,,,,,,,0x03,
11909,-406,237,867,-840,-630,-70,,,,,,,0x03,
11919,-404,236,868,1820,0,-70,,,,,,,0x03,
11929,-411,237,873,3710,560,140,,,,,,,0x03,
11938,-414,248,872,5530,1120,-70,,,,,,,0x03,
11948,-417,261,868,7000,1610,-280,,,,,,,0x03,
11958,-420,273,866,7630,1890,-350,,,,,,,0x03,
11967,-425,282,863,7560,2170,-350,,,,,,,0x03,
11977,-431,285,858,7140,2170,-350,,,,,,,0x03,
11987,-433,287,852,6440,2100,-490,,,,,,,0x03,
11996,-441,290,848,6230,1960,-560,,,,,,,0x03,
12006,-439,297,846,6090,1960,-490,,,,,,,0x03,
12016,-432,301,844,5320,1610,-490,,,,,,,0x03,
12025,-425,306,844,4130,1190,-490,,,,,,,0x03,
12035,-421,304,845,2800,560,-350,,,,,,,0x03,
12045,-420,298,848,1050,0,-210,,,,,,,0x03,
12054,-417,291,850,-70,-490,-350,,,,,,,0x03,
12064,-410,279,850,-140,-700,-420,,,,,,,0x03,
12073,-406,274,854,280,-910,-280,,,,,,,0x03,
12083,-409,277,855,700,-1120,-140,,,,,,,0x03,
12093,-416,281,854,1050,-1260,70,,,,,,,0x03,
12102,-426,289,854,910,-1400,70,,,,,,,0x03,
12112,-434,297,854,210,-1470,0,,,,,,,0x03,
12122,-439,306,855,-1120,-1610,-70,,,,,,,0x03,
12131,-435,306,855,-2940,-1820,-70,,,,,,,0x03,
12141,-431,297,853,-4760,-2100,-70,,,,,,,0x03,
12151,-428,287,854,-5740,-2310,-70,,,,,,,0x03,
12160,-426,277,856,-6090,-2310,-280,,,,,,,0x03,
12170,-423,272,859,-5460,-2240,-420,,,,,,,0x03,
12180,-422,273,858,-4480,-2030,-490,,,,,,,0x03,
12189,-419,277,857,-3500,-1890,-560,,,,,,,0x03,
12199,-421,284,857,-2940,-1820,-560,,,,,,,0x03,
12209,-422,287,856,-3500,-1960,-490,,,,,,,0x03,
12218,-424,282,855,-4200,-2240,-420,,,,,,,0x03,
12228,-423,275,856,-3710,-2380,-560,,,,,,,0x03,
12238,-423,270,857,-2310,-2450,-560,,,,,,,0x03,
12247,-419,264,861,-1750,-2380,-490,,,,,,,0x03,
12257,-410,243,860,-1260,-2450,-560,,,,,,,0x03,
12267,-402,234,860,0,-2520,-560,,,,,,,0x03,
12276,-403,235,859,2030,-2310,-350,,,,,,,0x03,
12286,-407,236,864,4340,-1890,70,,,,,,,0x03,
12295,-412,240,865,6440,-1680,210,,,,,,,0x03,
12305,-412,255,864,8820,-1190,210,,,,,,,0x03,
12315,-410,280,865,10500,-840,210,,,,,,,0x03,
12324,-413,295,864,9660,-770,350,,,,,,,0x03,
12334,-422,302,865,7700,-840,70,,,,,,,0x03,
12344,-429,296,861,6370,-770,-280,,,,,,,0x03,
12353,-430,291,856,6860,-420,-560,,,,,,,0x03,
12363,-431,298,857,7000,70,-560,,,,,,,0x03,
12373,-429,306,860,6300,490,-630,,,,,,,0x03,
12382,-420,314,859,4970,700,-770,,,,,,,0x03,
12392,-408,315,861,3360,700,-1050,,,,,,,0x03,
12402,-405,311,858,1820,560,-1190,,,,,,,0x03,
12411,-408,306,853,490,280,-1400,,,,,,,0x03,
12421,-413,299,849,-490,-140,-1540,,,,,,,0x03,
12431,-418,297,845,-840,-420,-1610,,,,,,,0x03,
12440,-427,298,846,-1260,-630,-1400,,,,,,,0x03,
12450,-432,298,845,-2030,-910,-1260,,,,,,,0x03,
12460,-422,299,846,-2870,-1260,-1120,,,,,,,0x03,
12469,-412,305,846,-3430,-1610,-1120,,,,,,,0x03,
12479,-411,311,847,-3570,-1960,-910,,,,,,,0x03,
12488,-419,321,851,-4970,-2380,-560,,,,,,,0x03,
12498,-425,322,857,-7840,-2800,-420,,,,,,,0x03,
12508,-424,313,863,-11410,-3220,-420,,,,,,,0x03,
12517,-422,288,865,-14210,-3500,-560,,,,,,,0x03,
12527,-421,260,870,-15750,-3570,-630,,,,,,,0x03,
12537,-420,234,871,-15750,-3220,-770,,,,,,,0x03,
12546,-412,216,875,-13860,-2660,-840,,,,,,,0x03,
12556,-409,207,869,-10500,-1960,-770,,,,,,,0x03,
12566,-408,210,865,-6160,-1120,-560,,,,,,,0x03,
12575,-417,223,865,-2870,-420,-70,,,,,,,0x03,
12585,-426,238,861,-420,-70,280,,,,,,,0x03,
12595,-424,251,861,560,70,630,,,,,,,0x03,
12604,-421,254,860,700,70,910,,,,,,,0x03,
12614,-418,256,858,980,0,980,,,,,,,0x03,
12624,-417,256,859,1820,-210,1120,,,,,,,0x03,
12633,-417,245,859,2380,-280,1190,,,,,,,0x03,
12643,-420,242,861,3570,-210,1260,,,,,,,0x03,
12653,-414,247,863,5460,-70,1330,,,,,,,0x03,
12662,-410,259,862,7140,280,1470,,,,,,,0x03,
12672,-410,272,861,8610,560,1540,,,,,,,0x03,
12682,-416,287,860,8890,630,1750,,,,,,,0x03,
12691,-421,297,860,7980,490,1820,,,,,,,0x03,
12701,-420,301,860,6300,210,1610,,,,,,,0x03,
12710,-418,288,857,4550,0,1470,,,,,,,0x03,
12720,-418,279,862,3150,-280,1400,,,,,,,0x03,
12730,-423,275,858,2660,-350,1190,,,,,,,0x03,
12739,-423,276,860,3500,-210,980,,,,,,,0x03,
12749,-426,276,867,3640,140,1050,,,,,,,0x03,
12759,-427,280,862,3920,210,980,,,,,,,0x03,
12768,-428,286,860,4340,420,910,,,,,,,0x03,
12778,-432,289,859,3990,560,840,,,,,,,0x03,
12788,-430,298,855,3990,630,700,,,,,,,0x03,
12797,-422,311,856,3290,630,420,,,,,,,0x03,
12807,-414,322,852,1890,350,280,,,,,,,0x03,
12817,-412,322,846,140,-140,210,,,,,,,0x03,
12826,-429,320,841,-1750,-910,0,,,,,,,0x03,
12836,-447,313,839,-3360,-1540,-210,,,,,,,0x03,
12846,-456,308,842,-5040,-2170,-420,,,,,,,0x03,
12855,-455,310,846,-6510,-2730,-770,,,,,,,0x03,
12865,-429,313,845,-7420,-3080,-1260,,,,,,,0x03,
12875,-405,323,846,-8190,-3500,-1470,,,,,,,0x03,
12884,-392,332,849,-9240,-3920,-1540,,,,,,,0x03,
12894,-388,338,856,-10780,-4410,-1610,,,,,,,0x03,
12903,-391,336,862,-13650,-4900,-1610,,,,,,,0x03,
12913,-394,314,868,-17220,-5390,-1820,,,,,,,0x03,
12923,-402,287,875,-19950,-5530,-2030,,,,,,,0x03,
12932,-408,255,882,-21280,-5180,-2170,,,,,,,0x03,
12942,-410,228,888,-20930,-4340,-2310,,,,,,,0x03,
12952,-409,211,891,-18620,-3150,-2450,,,,,,,0x03,
12961,-409,205,888,-15610,-1750,-2660,,,,,,,0x03,
12971,-409,206,889,-12320,-630,-2870,,,,,,,0x03,
12981,-399,218,889,-9940,210,-2940,,,,,,,0x03,
12990,-385,228,888,-8470,910,-3010,,,,,,,0x03,
13000,-382,228,884,-7420,1540,-2870,,,,,,,0x03,
