#Format version: 1.0
time[ms],accX[mg],accY[mg],accZ[mg],gyroX[mdps],gyroY[mdps],gyroZ[mdps],magnX[mG],magnY[mG],magnZ[mG],press[hPa],temp[°C],hum[0,510,21,852,1960,1890,-280,,,,,,,0x03,
10,518,24,855,2660,1330,-420,,,,,,,0x03,
19,535,29,851,3080,910,-560,,,,,,,0x03,
29,539,32,853,2450,700,-490,,,,,,,0x03,
39,521,43,853,1330,770,-560,,,,,,,0x03,
48,508,48,863,280,700,-350,,,,,,,0x03,
58,520,45,861,-140,630,-140,,,,,,,0x03,
67,533,46,855,350,420,350,,,,,,,0x03,
77,537,37,851,490,490,1050,,,,,,,0x03,
87,536,17,856,-70,840,1890,,,,,,,0x03,
96,528,18,854,-980,1260,1960,,,,,,,0x03,
106,517,30,856,-1470,1540,1750,,,,,,,0x03,
116,502,19,865,-2450,1330,1820,,,,,,,0x03,
125,491,6,878,-3010,840,1400,,,,,,,0x03,
135,510,14,869,-1820,350,490,,,,,,,0x03,
145,537,22,859,-700,-210,350,,,,,,,0x03,
154,542,7,854,-980,-490,770,,,,,,,0x03,
164,535,7,847,-1120,-560,700,,,,,,,0x03,
173,532,20,840,-910,-490,630,,,,,,,0x03,
183,531,7,842,-1330,-560,1190,,,,,,,0x03,
193,513,0,846,-1750,-420,1120,,,,,,,0x03,
202,509,11,846,-910,-70,560,,,,,,,0x03,
212,525,18,844,-280,-140,420,,,,,,,0x03,
222,532,13,839,-350,0,630,,,,,,,0x03,
231,540,9,842,-280,560,770,,,,,,,0x03,
241,539,9,849,-770,1050,910,,,,,,,0x03,
251,523,1,858,-1470,1540,1260,,,,,,,0x03,
260,511,-13,869,-2170,1750,1400,,,,,,,0x03,
270,517,-9,876,-1680,1680,700,,,,,,,0x03,
279,521,4,879,-420,1260,210,,,,,,,0x03,
289,532,8,877,630,490,0,,,,,,,0x03,
299,538,11,863,980,-700,-140,,,,,,,0x03,
308,529,14,852,980,-1680,-350,,,,,,,0x03,
318,505,15,859,210,-2240,-420,,,,,,,0x03,
328,510,1,866,-1050,-1820,-70,,,,,,,0x03,
337,543,14,862,-1680,-980,-140,,,,,,,0x03,
347,558,16,862,-2030,-280,630,,,,,,,0x03,
357,545,1,863,-1890,140,1120,,,,,,,0x03,
366,539,9,848,-350,-70,490,,,,,,,0x03,
376,532,12,834,910,-630,280,,,,,,,0x03,
385,506,-2,833,770,-840,70,,,,,,,0x03,
395,489,6,842,210,-910,-630,,,,,,,0x03,
405,498,24,849,-630,-910,-770,,,,,,,0x03,
414,511,35,853,-2240,-1050,-280,,,,,,,0x03,
424,540,42,836,-2870,-1190,-280,,,,,,,0x03,
434,558,37,820,-2660,-1470,-210,,,,,,,0x03,
443,549,24,815,-2240,-1540,-140,,,,,,,0x03,
453,534,21,817,-1750,-1120,-70,,,,,,,0x03,
463,522,18,818,-1680,-700,560,,,,,,,0x03,
472,515,-6,825,-2450,70,1470,,,,,,,0x03,
482,509,-13,839,-1960,910,1330,,,,,,,0x03,
491,515,-6,848,-140,1400,1050,,,,,,,0x03,
501,517,-2,856,1190,1260,840,,,,,,,0x03,
511,516,-7,863,1260,1120,630,,,,,,,0x03,
520,522,9,854,1610,910,-350,,,,,,,0x03,
530,520,13,858,1050,560,-420,,,,,,,0x03,
540,517,-3,862,-350,280,-350,,,,,,,0x03,
549,528,-4,858,-560,0,-770,,,,,,,0x03,
559,538,2,857,140,-210,-700,,,,,,,0x03,
569,528,6,857,350,-560,-560,,,,,,,0x03,
578,520,9,857,350,-840,-560,,,,,,,0x03,
588,522,18,847,70,-1190,-840,,,,,,,0x03,
597,521,25,837,-560,-1400,-910,,,,,,,0x03,
607,514,12,839,-1890,-1190,-700,,,,,,,0x03,
617,524,14,839,-2800,-630,-770,,,,,,,0x03,
626,543,24,835,-3290,-70,-490,,,,,,,0x03,
636,546,11,833,-3710,560,210,,,,,,,0x03,
646,541,-4,837,-3010,1330,420,,,,,,,0x03,
655,540,6,835,-700,1820,0,,,,,,,0x03,
665,526,4,846,1050,1610,350,,,,,,,0x03,
674,512,0,851,1470,1680,560,,,,,,,0x03,
684,511,11,851,1680,1750,210,,,,,,,0x03,
694,503,9,855,1190,1470,490,,,,,,,0x03,
703,500,0,858,630,1120,350,,,,,,,0x03,
713,520,14,855,1190,770,-420,,,,,,,0x03,
723,532,24,853,1400,280,-630,,,,,,,0x03,
732,523,9,863,490,70,-280,,,,,,,0x03,
742,526,9,861,350,210,-700,,,,,,,0x03,
752,531,27,852,910,210,-770,,,,,,,0x03,
761,517,23,854,770,280,0,,,,,,,0x03,
771,512,11,857,560,490,280,,,,,,,0x03,
780,517,25,851,980,490,140,,,,,,,0x03,
790,527,22,853,630,700,700,,,,,,,0x03,
800,545,5,860,-490,1050,1120,,,,,,,0x03,
809,547,-2,863,-1890,1540,1260,,,,,,,0x03,
819,528,-6,861,-2240,1820,1120,,,,,,,0x03,
829,494,-26,862,-1890,1540,840,,,,,,,0x03,
838,466,-33,861,-280,770,-70,,,,,,,0x03,
848,458,-21,867,1820,-280,-1120,,,,,,,0x03,
858,477,3,863,2520,-770,-1820,,,,,,,0x03,
867,518,22,855,1680,-770,-1960,,,,,,,0x03,
877,545,26,850,-210,-420,-1540,,,,,,,0x03,
886,560,28,844,-1330,0,-1400,,,,,,,0x03,
896,558,23,839,-2170,350,-840,,,,,,,0x03,
906,558,16,831,-2730,980,-420,,,,,,,0x03,
915,546,15,826,-2800,1330,-280,,,,,,,0x03,
925,519,2,834,-2730,1470,210,,,,,,,0x03,
935,495,-10,841,-2240,1400,70,,,,,,,0x03,
944,496,1,835,-770,1190,-560,,,,,,,0x03,
954,506,8,830,420,910,-700,,,,,,,0x03,
964,517,3,830,420,980,-630,,,,,,,0x03,
973,532,18,829,1120,1610,-1050,,,,,,,0x03,
983,539,22,832,1680,2170,-630,,,,,,,0x03,
992,530,17,834,1890,2870,-70,,,,,,,0x03,
1002,523,23,830,2870,3500,140,,,,,,,0x03,
1012,514,33,834,3570,3850,630,,,,,,,0x03,
1021,494,28,840,3290,3990,1190,,,,,,,0x03,
1031,484,32,845,3220,4130,1120,,,,,,,0x03,
1041,502,44,843,3570,3850,910,,,,,,,0x03,
1050,514,43,848,2870,3430,1260,,,,,,,0x03,
1060,509,29,856,1260,3570,1610,,,,,,,0x03,
1070,515,34,850,490,3850,1260,,,,,,,0x03,
1079,517,23,850,-210,3990,1820,,,,,,,0x03,
1089,507,-2,848,-700,4410,2030,,,,,,,0x03,
1098,500,-14,853,420,4900,1820,,,,,,,0x03,
1108,502,-18,854,2030,5320,1750,,,,,,,0x03,
1118,494,-21,857,3010,5670,1680,,,,,,,0x03,
1127,476,-20,874,3430,6090,1470,,,,,,,0x03,
1137,490,-8,878,3640,5950,840,,,,,,,0x03,
1147,520,2,874,3150,5320,350,,,,,,,0x03,
1156,529,-17,877,1540,5040,350,,,,,,,0x03,
1166,516,-49,878,210,4690,-210,,,,,,,0x03,
1176,500,-54,881,700,4410,-1470,,,,,,,0x03,
1185,490,-51,890,910,3780,-2030,,,,,,,0x03,
1195,482,-38,899,840,3080,-2730,,,,,,,0x03,
1204,476,-21,908,560,2310,-3360,,,,,,,0x03,
1214,494,-6,910,140,1680,-3990,,,,,,,0x03,
1224,521,22,897,-560,910,-4970,,,,,,,0x03,
1233,524,43,889,-2310,210,-5110,,,,,,,0x03,
1243,507,48,888,-5110,-490,-4900,,,,,,,0x03,
1253,493,64,875,-7280,-700,-5180,,,,,,,0x03,
1262,489,69,872,-8890,-910,-4620,,,,,,,0x03,
1272,482,58,884,-10430,-560,-3500,,,,,,,0x03,
1282,500,61,888,-10150,0,-3150,,,,,,,0x03,
1291,521,78,880,-8680,210,-2310,,,,,,,0x03,
1301,524,77,874,-7630,280,-420,,,,,,,0x03,
1310,514,56,880,-6580,210,700,,,,,,,0x03,
1320,507,47,888,-3850,-70,630,,,,,,,0x03,
1330,489,40,895,-1190,-770,770,,,,,,,0x03,
1339,465,25,901,140,-1330,1190,,,,,,,0x03,
1349,467,4,893,840,-1610,1260,,,,,,,0x03,
1359,479,1,884,2660,-1610,840,,,,,,,0x03,
1368,488,4,881,5040,-1470,1120,,,,,,,0x03,
1378,489,4,889,6510,-1400,1610,,,,,,,0x03,
1388,504,10,889,7070,-1330,1820,,,,,,,0x03,
1397,516,13,891,6790,-1540,1960,,,,,,,0x03,
1407,509,0,902,5250,-1400,2030,,,,,,,0x03,
1416,499,0,900,4410,-1470,1330,,,,,,,0x03,
1426,493,17,889,4200,-2310,560,,,,,,,0x03,
1436,485,13,873,3220,-3710,490,,,,,,,0x03,
1445,475,0,857,1400,-4900,0,,,,,,,0x03,
1455,480,0,845,70,-5180,-840,,,,,,,0x03,
1465,489,1,854,-1470,-4620,-770,,,,,,,0x03,
1474,509,-1,856,-3500,-3360,-210,,,,,,,0x03,
1484,541,-1,846,-4410,-2170,140,,,,,,,0x03,
1494,546,-13,838,-4340,-1260,840,,,,,,,0x03,
1503,521,-34,835,-2450,-840,910,,,,,,,0x03,
1513,496,-33,844,350,-630,210,,,,,,,0x03,
1522,480,-22,850,2240,-700,-350,,,,,,,0x03,
1532,476,-27,864,1890,-910,-490,,,,,,,0x03,
1542,492,-25,867,910,-910,-1120,,,,,,,0x03,
1551,500,1,861,630,-1050,-1960,,,,,,,0x03,
1561,500,9,856,420,-1540,-2240,,,,,,,0x03,
1571,501,13,844,70,-2380,-2940,,,,,,,0x03,
1580,496,43,836,-210,-2730,-3850,,,,,,,0x03,
1590,497,60,840,-1470,-2660,-3640,,,,,,,0x03,
1600,518,71,838,-3430,-2240,-3010,,,,,,,0x03,
1609,539,63,837,-5600,-1470,-1680,,,,,,,0x03,
1619,537,36,836,-6930,-420,-490,,,,,,,0x03,
1628,514,23,844,-6510,910,0,,,,,,,0x03,
1638,504,22,844,-4830,1680,420,,,,,,,0x03,
1648,496,20,847,-3360,1750,770,,,,,,,0x03,
1657,486,12,851,-2240,1470,770,,,,,,,0x03,
1667,475,-1,863,-1330,980,490,,,,,,,0x03,
1677,487,-7,874,-630,770,-70,,,,,,,0x03,
1686,510,6,875,490,490,-630,,,,,,,0x03,
1696,518,5,880,1190,210,-350,,,,,,,0x03,
1706,508,-2,877,1820,-210,-280,,,,,,,0x03,
1715,492,16,872,3220,-490,-840,,,,,,,0x03,
1725,492,42,863,4480,-1120,-1050,,,,,,,0x03,
1734,486,39,865,3290,-1750,-420,,,,,,,0x03,
1744,483,36,867,1260,-1330,-70,,,,,,,0x03,
1754,506,55,864,-140,-700,70,,,,,,,0x03,
1763,533,52,860,-1820,-140,1050,,,,,,,0x03,
1773,532,18,860,-3570,140,2100,,,,,,,0x03,
1783,528,-11,864,-3920,560,2520,,,,,,,0x03,
1792,524,-16,861,-3430,1120,2240,,,,,,,0x03,
1802,504,-23,858,-3150,910,2100,,,,,,,0x03,
1812,471,-57,872,-3150,280,1890,,,,,,,0x03,
1821,462,-61,881,-1470,-140,70,,,,,,,0x03,
1831,478,-29,881,1610,-700,-1400,,,,,,,0x03,
1840,489,-13,879,3150,-1120,-1540,,,,,,,0x03,
1850,513,-8,875,3500,-1260,-1750,,,,,,,0x03,
1860,539,12,864,3360,-1050,-2030,,,,,,,0x03,
1869,532,35,856,2520,-770,-1750,,,,,,,0x03,
1879,502,27,862,420,-490,-980,,,,,,,0x03,
1889,491,28,862,-980,-350,-1120,,,,,,,0x03,
1898,492,34,863,-1610,-630,-1120,,,,,,,0x03,
1908,482,13,875,-2310,-700,-630,,,,,,,0x03,
1918,482,10,877,-2660,-560,-840,,,,,,,0x03,
1927,508,25,863,-2030,-980,-1120,,,,,,,0x03,
1937,513,27,854,-2170,-1470,-910,,,,,,,0x03,
1946,494,15,855,-2590,-1750,-1120,,,,,,,0x03,
1956,489,14,860,-2450,-1960,-1540,,,,,,,0x03,
1966,502,22,859,-2100,-1820,-1610,,,,,,,0x03,
1975,500,15,866,-2170,-1190,-700,,,,,,,0x03,
1985,497,2,872,-1610,-280,0,,,,,,,0x03,
1995,507,13,876,0,420,280,,,,,,,0x03,
2004,513,36,870,1540,630,490,,,,,,,0x03,
2014,506,37,864,2170,140,770,,,,,,,0x03,
2023,490,22,865,1960,-630,560,,,,,,,0x03,
2033,477,32,862,1890,-1120,0,,,,,,,0x03,
2043,478,39,856,1470,-1400,140,,,,,,,0x03,
2052,485,24,856,70,-1680,700,,,,,,,0x03,
2062,494,12,857,-770,-1330,980,,,,,,,0x03,
2072,513,23,853,-70,-560,980,,,,,,,0x03,
2081,527,26,850,350,-140,1540,,,,,,,0x03,
2091,519,14,853,140,280,2170,,,,,,,0x03,
2101,516,10,847,630,630,1960,,,,,,,0x03,
2110,519,8,837,1330,770,1960,,,,,,,0x03,
2120,498,-10,842,1330,840,2310,,,,,,,0x03,
2129,476,-27,859,1470,1120,1960,,,,,,,0x03,
2139,480,-9,872,2310,1330,1190,,,,,,,0x03,
2149,502,2,875,2380,1050,1050,,,,,,,0x03,
2158,500,-8,884,1260,700,910,,,,,,,0x03,
2168,504,-2,883,1050,560,-70,,,,,,,0x03,
2178,520,23,870,1330,0,-700,,,,,,,0x03,
2187,516,23,860,560,-700,-420,,,,,,,0x03,
2197,489,4,871,-490,-1050,-140,,,,,,,0x03,
2207,490,14,879,-490,-700,-560,,,,,,,0x03,
2216,515,37,879,-490,-700,-140,,,,,,,0x03,
2226,504,25,882,-1890,-770,1260,,,,,,,0x03,
2235,493,8,880,-2380,-630,1330,,,,,,,0x03,
2245,502,17,877,-1400,-910,700,,,,,,,0x03,
2255,506,10,866,-1120,-1190,840,,,,,,,0x03,
2264,490,-9,865,-1330,-1330,770,,,,,,,0x03,
2274,485,-12,870,-1120,-1050,280,,,,,,,0x03,
2284,496,1,873,-140,-1050,0,,,,,,,0x03,
2293,487,9,873,280,-1190,280,,,,,,,0x03,
2303,492,14,867,1050,-1400,140,,,,,,,0x03,
2313,500,32,855,1890,-1750,-350,,,,,,,0x03,
2322,497,48,847,2310,-1960,-210,,,,,,,0x03,
2332,491,51,842,1050,-2100,350,,,,,,,0x03,
2341,483,52,838,-980,-1960,980,,,,,,,0x03,
2351,484,40,844,-2870,-1260,1540,,,,,,,0x03,
2361,494,28,849,-3710,-420,2170,,,,,,,0x03,
2370,513,21,849,-3920,420,2870,,,,,,,0x03,
2380,524,11,854,-3990,840,3150,,,,,,,0x03,
2390,523,-4,860,-3500,1050,3080,,,,,,,0x03,
2399,509,-10,861,-2240,910,2590,,,,,,,0x03,
2409,491,-16,859,-1330,420,2310,,,,,,,0x03,
2419,467,-38,874,-1050,140,1890,,,,,,,0x03,
2428,473,-30,888,0,210,840,,,,,,,0x03,
2438,497,-4,891,1330,-70,420,,,,,,,0x03,
2447,508,-3,895,1260,-350,980,,,,,,,0x03,
2457,516,3,891,1120,-350,630,,,,,,,0x03,
2467,526,29,875,1330,-770,210,,,,,,,0x03,
2476,522,31,859,490,-1400,490,,,,,,,0x03,
2486,494,13,860,-1260,-1890,840,,,,,,,0x03,
2496,480,0,859,-2730,-2240,770,,,,,,,0x03,
2505,485,8,856,-3570,-2030,700,,,,,,,0x03,
2515,487,8,862,-4760,-1680,1330,,,,,,,0x03,
2525,495,-5,865,-5740,-1330,1610,,,,,,,0x03,
2534,516,-3,853,-5460,-980,1120,,,,,,,0x03,
2544,525,-8,850,-4620,-560,980,,,,,,,0x03,
2553,522,-12,841,-3570,-210,630,,,,,,,0x03,
2563,507,-11,841,-2520,-210,350,,,,,,,0x03,
2573,485,-10,842,-1680,-210,280,,,,,,,0x03,
2582,487,0,842,-700,0,210,,,,,,,0x03,
2592,504,9,850,140,70,490,,,,,,,0x03,
2602,515,20,851,280,280,910,,,,,,,0x03,
2611,518,22,847,-70,280,1400,,,,,,,0x03,
2621,508,11,841,-980,420,1680,,,,,,,0x03,
2631,504,5,832,-1120,770,1470,,,,,,,0x03,
2640,499,-2,839,-770,980,1540,,,,,,,0x03,
2650,490,-15,854,-350,1470,1750,,,,,,,0x03,
2659,486,-10,862,700,1680,1750,,,,,,,0x03,
2669,477,-9,862,1470,1680,2030,,,,,,,0x03,
2679,477,-20,869,1610,1680,2030,,,,,,,0x03,
2688,500,-21,875,1680,2100,1330,,,,,,,0x03,
2698,538,-4,877,1960,2520,770,,,,,,,0x03,
2708,541,-12,883,770,2730,1400,,,,,,,0x03,
2717,510,-25,884,-280,2520,1540,,,,,,,0x03,
2727,480,-20,876,0,1750,840,,,,,,,0x03,
2737,467,-16,866,910,770,280,,,,,,,0x03,
2746,457,-25,868,910,-280,0,,,,,,,0x03,
2756,469,-17,874,630,-490,-560,,,,,,,0x03,
2765,500,10,865,0,-560,-700,,,,,,,0x03,
2775,514,10,862,-2100,-210,70,,,,,,,0x03,
2785,519,0,855,-3780,350,280,,,,,,,0x03,
2794,524,-2,846,-3500,1120,-210,,,,,,,0x03,
2804,519,-10,843,-2380,1680,0,,,,,,,0x03,
2814,492,-29,844,-1680,2030,140,,,,,,,0x03,
2823,467,-31,859,-490,2240,-70,,,,,,,0x03,
2833,469,-34,884,70,2450,140,,,,,,,0x03,
2843,499,-18,889,980,2800,-280,,,,,,,0x03,
2852,519,-5,886,1750,2660,-280,,,,,,,0x03,
2862,513,-19,886,2030,2240,-140,,,,,,,0x03,
2871,512,-18,882,2800,1610,-980,,,,,,,0x03,
2881,509,6,877,3640,980,-1610,,,,,,,0x03,
2891,487,0,878,2590,210,-1120,,,,,,,0x03,
2900,455,-11,885,980,-140,-1120,,,,,,,0x03,
2910,455,1,889,770,-70,-1610,,,,,,,0x03,
2920,479,25,887,1120,-210,-1610,,,,,,,0x03,
2929,499,28,884,420,-210,-1050,,,,,,,0x03,
2939,507,27,880,-630,-140,-980,,,,,,,0x03,
2949,524,41,864,-980,210,-1190,,,,,,,0x03,
2958,531,41,847,-1610,210,-420,,,,,,,0x03,
2968,508,11,849,-3220,350,700,,,,,,,0x03,
2977,487,-14,853,-3570,840,770,,,,,,,0x03,
2987,481,-9,861,-2310,1260,490,,,,,,,0x03,
2997,456,-13,888,-1540,1330,1120,,,,,,,0x03,
3006,446,-22,906,-1120,1540,1260,,,,,,,0x03,
3016,476,0,894,560,1400,350,,,,,,,0x03,
3026,504,8,876,1610,980,140,,,,,,,0x03,
3035,504,-10,869,1960,700,0,,,,,,,0x03,
3045,498,-10,867,2800,140,-490,,,,,,,0x03,
3055,487,2,860,3010,-350,-560,,,,,,,0x03,
3064,457,6,863,1610,-630,-140,,,,,,,0x03,
3074,447,6,870,70,-630,-140,,,,,,,0x03,
3083,462,7,886,-1330,-630,-70,,,,,,,0x03,
3093,493,5,882,-2590,-70,-140,,,,,,,0x03,
3103,517,4,863,-3290,420,-420,,,,,,,0x03,
3112,517,-8,849,-3640,910,-280,,,,,,,0x03,
3122,501,-25,850,-2730,910,-630,,,,,,,0x03,
3132,487,-24,850,-980,1050,-980,,,,,,,0x03,
3141,471,-21,860,-70,1190,-700,,,,,,,0x03,
3151,452,-23,884,-280,1400,-420,,,,,,,0x03,
3161,463,-6,894,0,1400,-700,,,,,,,0x03,
3170,492,6,887,490,1050,-840,,,,,,,0x03,
3180,501,-7,880,140,910,-840,,,,,,,0x03,
3189,504,-14,881,560,1050,-1400,,,,,,,0x03,
3199,509,11,879,1680,1050,-1750,,,,,,,0x03,
3209,505,20,879,1400,770,-980,,,,,,,0x03,
3218,478,3,887,350,490,-350,,,,,,,0x03,
3228,465,2,890,420,210,-630,,,,,,,0x03,
3238,470,15,892,980,-70,-840,,,,,,,0x03,
3247,476,14,896,560,-210,-490,,,,,,,0x03,
3257,492,12,885,-420,-560,-420,,,,,,,0x03,
3267,498,14,874,-1610,-910,-350,,,,,,,0x03,
3276,494,6,868,-3010,-1260,-210,,,,,,,0x03,
3286,486,-2,864,-3990,-1610,-490,,,,,,,0x03,
3295,465,-5,873,-4550,-1750,-630,,,,,,,0x03,
3305,459,-5,887,-5460,-1540,-560,,,,,,,0x03,
3315,487,14,884,-6090,-1400,-980,,,,,,,0x03,
3324,509,34,876,-7070,-1610,-630,,,,,,,0x03,
3334,505,18,880,-8750,-1680,70,,,,,,,0x03,
3344,493,0,883,-9730,-1330,-70,,,,,,,0x03,
3353,483,7,882,-8960,-1260,-490,,,,,,,0x03,
3363,463,-7,889,-8960,-1260,560,,,,,,,0x03,
3372,457,-34,889,-8750,-1050,770,,,,,,,0x03,
3382,464,-33,886,-6650,-980,140,,,,,,,0x03,
3392,484,-34,885,-3710,-1330,-70,,,,,,,0x03,
3401,500,-36,888,-1330,-1960,-490,,,,,,,0x03,
3411,506,-28,884,210,-2170,-910,,,,,,,0x03,
3421,504,-18,880,1050,-2310,-1120,,,,,,,0x03,
3430,492,-20,877,910,-2100,-840,,,,,,,0x03,
3440,483,-18,875,1330,-1820,-840,,,,,,,0x03,
3450,480,-6,871,2450,-1680,-910,,,,,,,0x03,
3459,474,-1,876,3080,-1680,-560,,,,,,,0x03,
3469,478,6,876,3150,-1330,-490,,,,,,,0x03,
3478,489,23,879,2520,-1190,-140,,,,,,,0x03,
3488,498,24,885,420,-980,490,,,,,,,0x03,
3498,490,18,891,-2310,-700,770,,,,,,,0x03,
3507,490,11,883,-3710,-770,700,,,,,,,0x03,
3517,486,6,872,-4060,-1400,560,,,,,,,0x03,
3527,469,-7,865,-3990,-2170,420,,,,,,,0x03,
3536,460,-13,862,-3430,-2940,0,,,,,,,0x03,
3546,470,-11,859,-3220,-3360,-140,,,,,,,0x03,
3556,490,-15,854,-3500,-3080,280,,,,,,,0x03,
3565,508,-15,846,-3570,-2240,770,,,,,,,0x03,
3575,518,-16,838,-3220,-1260,1190,,,,,,,0x03,
3584,518,-18,831,-2450,-560,1330,,,,,,,0x03,
3594,500,-26,831,-1330,-210,1330,,,,,,,0x03,
3604,483,-36,835,-350,280,1050,,,,,,,0x03,
3613,482,-30,839,630,840,420,,,,,,,0x03,
3623,481,-23,846,910,1050,490,,,,,,,0x03,
3633,484,-28,846,420,1050,630,,,,,,,0x03,
3642,483,-18,843,350,1120,210,,,,,,,0x03,
3652,493,-7,843,490,1050,-70,,,,,,,0x03,
3662,502,-6,846,70,700,-140,,,,,,,0x03,
3671,492,-11,853,-1050,840,0,,,,,,,0x03,
3681,488,-12,854,-1890,1470,70,,,,,,,0x03,
3690,497,-14,854,-2100,1960,280,,,,,,,0x03,
3700,503,-24,861,-1610,2310,630,,,,,,,0x03,
3710,486,-38,872,-630,2450,840,,,,,,,0x03,
3719,480,-44,886,560,2870,700,,,,,,,0x03,
3729,498,-26,888,1890,3150,140,,,,,,,0x03,
3739,504,-20,892,2310,3010,210,,,,,,,0x03,
3748,492,-29,898,2100,2660,140,,,,,,,0x03,
3758,483,-16,900,2310,2240,-490,,,,,,,0x03,
3768,490,3,893,2730,1540,-840,,,,,,,0x03,
3777,488,0,889,1960,350,-420,,,,,,,0x03,
3787,468,-16,891,840,-350,-560,,,,,,,0x03,
3796,460,-4,890,350,-840,-1120,,,,,,,0x03,
3806,475,12,881,-350,-1190,-980,,,,,,,0x03,
3816,481,4,881,-1890,-1260,-280,,,,,,,0x03,
3825,486,-2,887,-2800,-630,-350,,,,,,,0x03,
3835,503,9,877,-2450,-70,-350,,,,,,,0x03,
3845,507,5,865,-2590,70,420,,,,,,,0x03,
3854,483,-19,868,-3010,140,700,,,,,,,0x03,
3864,467,-14,864,-2240,70,210,,,,,,,0x03,
3874,464,0,859,-1610,-350,0,,,,,,,0x03,
3883,457,-15,860,-2660,-700,420,,,,,,,0x03,
3893,468,-15,855,-2870,-700,-70,,,,,,,0x03,
3902,491,2,855,-2800,-560,-70,,,,,,,0x03,
3912,503,-7,857,-3920,-140,630,,,,,,,0x03,
3922,498,-19,856,-4480,560,840,,,,,,,0x03,
3931,485,-23,854,-3780,1190,700,,,,,,,0x03,
3941,474,-34,858,-2170,1680,700,,,,,,,0x03,
3951,474,-48,863,-1120,2100,840,,,,,,,0x03,
3960,476,-51,871,-700,2520,770,,,,,,,0x03,
3970,475,-42,888,-280,3010,560,,,,,,,0x03,
3980,481,-32,895,0,2660,420,,,,,,,0x03,
3989,485,-32,895,-420,2030,280,,,,,,,0x03,
3999,489,-33,889,-1050,1680,-210,,,,,,,0x03,
4008,489,-30,882,-1190,1260,-770,,,,,,,0x03,
4018,481,-33,879,-1400,1050,-770,,,,,,,0x03,
4028,464,-38,885,-1750,1120,-560,,,,,,,0x03,
4037,461,-32,889,-1330,1330,-490,,,,,,,0x03,
4047,473,-21,888,-560,1120,-280,,,,,,,0x03,
4057,470,-31,897,-770,1120,210,,,,,,,0x03,
4066,460,-33,898,-910,1260,-210,,,,,,,0x03,
4076,481,-13,892,-140,1470,-1120,,,,,,,0x03,
4086,501,-6,895,0,1190,-1120,,,,,,,0x03,
4095,496,-16,901,-280,1050,-770,,,,,,,0x03,
4105,483,-3,896,350,840,-840,,,,,,,0x03,
4114,469,1,887,910,280,-420,,,,,,,0x03,
4124,447,-13,885,1190,-280,-70,,,,,,,0x03,
4134,443,-9,886,1890,-490,-280,,,,,,,0x03,
4143,474,7,886,2310,-210,-210,,,,,,,0x03,
4153,509,15,875,1540,-70,560,,,,,,,0x03,
4163,506,-5,879,490,350,1330,,,,,,,0x03,
4172,489,-17,888,700,980,1120,,,,,,,0x03,
4182,475,-11,891,1610,980,840,,,,,,,0x03,
4192,454,-20,895,1190,840,1260,,,,,,,0x03,
4201,437,-37,907,770,840,840,,,,,,,0x03,
4211,449,-33,921,1120,770,140,,,,,,,0x03,
4220,484,-12,911,1820,210,-140,,,,,,,0x03,
4230,493,-1,906,1540,-490,0,,,,,,,0x03,
4240,478,1,896,1050,-1540,-70,,,,,,,0x03,
4249,470,4,885,840,-2520,-280,,,,,,,0x03,
4259,476,5,869,350,-3010,-280,,,,,,,0x03,
4269,476,-4,859,-1190,-3080,350,,,,,,,0x03,
4278,462,-26,869,-2730,-2310,1120,,,,,,,0x03,
4288,472,-30,872,-3080,-1120,1400,,,,,,,0x03,
4298,491,-26,870,-2520,-140,1680,,,,,,,0x03,
4307,484,-34,879,-2030,280,1680,,,,,,,0x03,
4317,471,-29,878,-420,420,980,,,,,,,0x03,
4326,472,-19,868,1260,-70,350,,,,,,,0x03,
4336,462,-25,866,1120,-490,210,,,,,,,0x03,
4346,451,-29,871,350,-700,-140,,,,,,,0x03,
4355,462,-23,872,-70,-630,-280,,,,,,,0x03,
4365,488,-23,868,-280,-490,0,,,,,,,0x03,
4375,501,-20,858,70,-280,280,,,,,,,0x03,
4384,493,-16,852,770,-280,560,,,,,,,0x03,
4394,477,-9,848,1050,-280,420,,,,,,,0x03,
4404,455,-14,855,280,-210,560,,,,,,,0x03,
4413,451,-30,859,-1190,490,630,,,,,,,0x03,
4423,457,-25,875,-1960,1610,350,,,,,,,0x03,
4432,477,-33,884,-2240,2450,840,,,,,,,0x03,
4442,489,-45,886,-2240,2870,1050,,,,,,,0x03,
4452,502,-35,881,-840,2940,280,,,,,,,0x03,
4461,507,-32,879,630,2100,-210,,,,,,,0x03,
4471,492,-46,879,630,1120,-140,,,,,,,0x03,
4481,476,-52,872,0,420,-490,,,,,,,0x03,
4490,458,-50,871,-1190,-210,-840,,,,,,,0x03,
4500,454,-56,882,-2310,-560,-1120,,,,,,,0x03,
4510,468,-49,892,-2240,-700,-1960,,,,,,,0x03,
4519,486,-33,898,-1960,-560,-2170,,,,,,,0x03,
4529,495,-29,900,-2450,-210,-2100,,,,,,,0x03,
4538,494,-23,895,-3150,420,-2380,,,,,,,0x03,
4548,487,-12,892,-3710,840,-2590,,,,,,,0x03,
4558,473,-11,891,-4760,770,-2520,,,,,,,0x03,
4567,458,-12,892,-5390,140,-2660,,,,,,,0x03,
4577,449,-1,891,-5460,-560,-2940,,,,,,,0x03,
4587,451,19,885,-4760,-1470,-3080,,,,,,,0x03,
4596,451,18,894,-5110,-2450,-2240,,,,,,,0x03,
4606,470,12,891,-6020,-2590,-1890,,,,,,,0x03,
4616,495,37,872,-5600,-2310,-1750,,,,,,,0x03,
4625,502,32,857,-5250,-1890,-350,,,,,,,0x03,
4635,491,-3,858,-4690,-1610,630,,,,,,,0x03,
4644,477,-18,864,-2520,-980,700,,,,,,,0x03,
4654,469,-8,864,70,-490,1050,,,,,,,0x03,
4664,452,-29,870,1050,0,2100,,,,,,,0x03,
4673,446,-47,883,2100,910,2240,,,,,,,0x03,
4683,463,-20,887,4270,1680,1540,,,,,,,0x03,
4693,477,-7,891,5250,1610,1960,,,,,,,0x03,
4702,475,-19,888,4690,1190,2240,,,,,,,0x03,
4712,474,-22,877,4340,560,1540,,,,,,,0x03,
4721,463,-15,863,4130,-140,840,,,,,,,0x03,
4731,442,-28,860,2660,-840,1050,,,,,,,0x03,
4741,440,-47,866,490,-910,910,,,,,,,0x03,
4750,449,-43,878,-770,-420,700,,,,,,,0x03,
4760,467,-49,886,-1820,420,910,,,,,,,0x03,
4770,480,-43,884,-2590,1050,770,,,,,,,0x03,
4779,492,-49,886,-3010,1260,1050,,,,,,,0x03,
4789,489,-65,880,-3290,1540,560,,,,,,,0x03,
4799,479,-62,872,-2660,1540,-560,,,,,,,0x03,
4808,464,-71,871,-2590,1190,-910,,,,,,,0x03,
4818,444,-75,879,-3010,840,-1330,,,,,,,0x03,
4827,441,-64,889,-2870,770,-1820,,,,,,,0x03,
4837,448,-40,890,-2380,840,-2240,,,,,,,0x03,
4847,454,-28,902,-2380,840,-2100,,,,,,,0x03,
4856,477,-11,903,-2030,1050,-2520,,,,,,,0x03,
4866,506,19,891,-1190,980,-2590,,,,,,,0x03,
4876,513,4,885,-2170,840,-1260,,,,,,,0x03,
4885,499,-13,879,-3220,770,-490,,,,,,,0x03,
4895,475,-22,879,-2800,840,-140,,,,,,,0x03,
4905,449,-35,897,-2520,700,140,,,,,,,0x03,
4914,445,-39,922,-2170,420,140,,,,,,,0x03,
4924,461,-32,931,-1540,-210,-70,,,,,,,0x03,
4933,473,-28,920,-1190,-700,-560,,,,,,,0x03,
4943,475,-22,903,-420,-1120,-1400,,,,,,,0x03,
4953,481,-9,884,770,-1820,-2030,,,,,,,0x03,
4962,479,1,873,980,-2660,-1820,,,,,,,0x03,
4972,466,2,871,-70,-2800,-1190,,,,,,,0x03,
4982,472,0,877,-1400,-2170,-420,,,,,,,0x03,
4991,492,5,884,-1820,-1400,350,,,,,,,0x03,
5001,498,-14,900,-2310,-700,1750,,,,,,,0x03,
5011,497,-37,903,-2870,70,2240,,,,,,,0x03,
5020,500,-43,893,-2380,420,1890,,,,,,,0x03,
5030,480,-53,879,-1680,70,1610,,,,,,,0x03,
5039,433,-89,880,-1260,-700,1330,,,,,,,0x03,
5049,400,-106,891,-280,-1120,-70,,,,,,,0x03,
5059,416,-72,892,1960,-1750,-1750,,,,,,,0x03,
5068,465,-53,898,2870,-2450,-1750,,,,,,,0x03,
5078,507,-55,898,2380,-2800,-1680,,,,,,,0x03,
5088,512,-47,896,1960,-2380,-2030,,,,,,,0x03,
5097,504,-30,881,2310,-1960,-2520,,,,,,,0x03,
5107,488,-32,866,2030,-2030,-2100,,,,,,,0x03,
5117,458,-56,866,1400,-1960,-1680,,,,,,,0x03,
5126,425,-55,869,1540,-1750,-1890,,,,,,,0x03,
5136,421,-42,870,1680,-1540,-1890,,,,,,,0x03,
5145,430,-41,878,770,-1750,-1820,,,,,,,0x03,
5155,453,-40,883,140,-1890,-2520,,,,,,,0x03,
5165,487,-31,877,70,-1750,-3500,,,,,,,0x03,
5174,500,-17,867,-490,-1330,-3850,,,,,,,0x03,
5184,486,-22,861,-1610,-1050,-3570,,,,,,,0x03,
5194,472,-24,853,-2030,-840,-3640,,,,,,,0x03,
5203,448,-20,852,-1470,-630,-3640,,,,,,,0x03,
5213,415,-21,866,-910,-210,-3080,,,,,,,0x03,
5223,424,0,879,210,140,-3080,,,,,,,0x03,
5232,478,26,885,700,210,-2520,,,,,,,0x03,
5242,510,22,887,0,490,-1540,,,,,,,0x03,
5251,509,-5,889,-700,1120,-840,,,,,,,0x03,
5261,503,-18,884,420,1610,-840,,,,,,,0x03,
5271,492,-31,884,2240,1540,-490,,,,,,,0x03,
5280,458,-49,897,4130,1330,-140,,,,,,,0x03,
5290,434,-49,919,5880,980,-350,,,,,,,0x03,
5300,452,-27,930,7350,350,-770,,,,,,,0x03,
5309,469,0,942,7840,-560,-1120,,,,,,,0x03,
5319,488,3,949,7000,-1330,-1190,,,,,,,0x03,
5329,506,13,930,5600,-1960,-1540,,,,,,,0x03,
5338,493,27,907,4200,-2310,-1540,,,,,,,0x03,
5348,467,30,890,3640,-2450,-910,,,,,,,0x03,
5357,452,47,878,3220,-2590,-210,,,,,,,0x03,
5367,437,36,891,1120,-2870,770,,,,,,,0x03,
5377,431,19,898,-1610,-3220,770,,,,,,,0x03,
5386,456,25,893,-3570,-3850,210,,,,,,,0x03,
5396,486,26,872,-5250,-4340,70,,,,,,,0x03,
5406,495,31,848,-5320,-4690,70,,,,,,,0x03,
5415,484,16,840,-5040,-4900,910,,,,,,,0x03,
5425,473,-15,845,-5530,-4690,1820,,,,,,,0x03,
5435,462,-31,844,-5250,-4270,2170,,,,,,,0x03,
5444,460,-43,843,-3850,-3710,2450,,,,,,,0x03,
5454,466,-58,850,-2030,-2940,2380,,,,,,,0x03,
5463,474,-52,861,140,-1960,2100,,,,,,,0x03,
5473,495,-39,868,1960,-910,2240,,,,,,,0x03,
5483,501,-22,861,2240,-70,2310,,,,,,,0x03,
5492,483,-13,853,1960,350,1960,,,,,,,0x03,
5502,446,-24,853,1120,140,1610,,,,,,,0x03,
5512,420,-24,852,0,70,980,,,,,,,0x03,
5521,424,-11,862,-1400,140,840,,,,,,,0x03,
5531,444,-10,873,-3920,70,1260,,,,,,,0x03,
5541,467,-22,880,-6230,210,1680,,,,,,,0x03,
5550,493,-25,874,-6860,490,1540,,,,,,,0x03,
5560,510,-25,865,-5880,350,1260,,,,,,,0x03,
5569,499,-48,868,-4270,0,1330,,,,,,,0x03,
5579,482,-50,868,-2310,0,980,,,,,,,0x03,
5589,476,-34,871,-840,140,1330,,,,,,,0x03,
5598,469,-40,880,-1190,350,2380,,,,,,,0x03,
5608,470,-45,886,-1750,560,2450,,,,,,,0x03,
5618,480,-46,891,-2030,840,2310,,,,,,,0x03,
5627,495,-45,886,-1890,1120,1540,,,,,,,0x03,
5637,488,-41,882,-1120,840,770,,,,,,,0x03,
5647,476,-43,878,70,350,280,,,,,,,0x03,
5656,466,-33,863,700,-350,-210,,,,,,,0x03,
5666,453,-23,856,210,-840,-280,,,,,,,0x03,
5675,439,-19,858,-980,-1260,-140,,,,,,,0x03,
5685,450,-17,861,-2240,-1120,-210,,,,,,,0x03,
5695,485,-2,862,-3150,-630,-280,,,,,,,0x03,
5704,515,1,855,-4690,-210,350,,,,,,,0x03,
5714,522,-16,843,-6160,630,910,,,,,,,0x03,
5724,502,-44,841,-6370,1400,1260,,,,,,,0x03,
5733,487,-60,841,-4690,2170,1190,,,,,,,0x03,
5743,468,-60,849,-2310,2590,1330,,,,,,,0x03,
5753,442,-79,869,-770,3010,1960,,,,,,,0x03,
5762,430,-85,893,840,3290,1540,,,,,,,0x03,
5772,463,-65,903,3290,3710,560,,,,,,,0x03,
5781,502,-32,897,5250,3430,-210,,,,,,,0x03,
5791,508,-29,895,4970,2660,-70,,,,,,,0x03,
5801,491,-29,883,3990,1820,-700,,,,,,,0x03,
5810,466,-9,873,3640,1050,-1260,,,,,,,0x03,
5820,440,-13,877,2450,280,-840,,,,,,,0x03,
5830,424,-20,888,420,-70,-630,,,,,,,0x03,
5839,436,-12,901,-1260,140,-280,,,,,,,0x03,
5849,473,-15,897,-2380,770,280,,,,,,,0x03,
5859,492,-23,898,-2870,1470,700,,,,,,,0x03,
5868,495,-32,904,-2940,2100,700,,,,,,,0x03,
5878,499,-20,898,-2310,2450,210,,,,,,,0x03,
5887,478,-33,890,-2800,2310,770,,,,,,,0x03,
5897,435,-54,894,-3220,2030,630,,,,,,,0x03,
5907,402,-49,913,-2240,1750,-70,,,,,,,0x03,
5916,425,-17,923,-420,1330,-420,,,,,,,0x03,
5926,461,4,925,0,560,280,,,,,,,0x03,
5936,486,-7,928,-910,350,1400,,,,,,,0x03,
5945,493,6,923,-1260,630,1400,,,,,,,0x03,
5955,490,21,916,-1190,560,2030,,,,,,,0x03,
5964,463,1,914,-1890,70,3010,,,,,,,0x03,
5974,438,-6,916,-1750,-210,3220,,,,,,,0x03,
5984,428,-6,921,-840,-560,3430,,,,,,,0x03,
5993,431,-10,928,-350,-700,4060,,,,,,,0x03,
6003,458,-22,929,0,-840,4550,,,,,,,0x03,
6013,486,-16,906,1120,-1120,4410,,,,,,,0x03,
6022,493,-29,892,1890,-1470,4620,,,,,,,0x03,
6032,490,-57,882,2380,-1890,4270,,,,,,,0x03,
6042,470,-56,873,3500,-2450,3290,,,,,,,0x03,
6051,445,-58,874,3920,-2940,3080,,,,,,,0x03,
6061,436,-69,876,3150,-3290,2590,,,,,,,0x03,
6070,436,-61,875,2590,-3360,1750,,,,,,,0x03,
6080,451,-54,876,2520,-2940,1050,,,,,,,0x03,
6090,472,-41,878,2310,-2450,770,,,,,,,0x03,
6099,498,-24,866,1820,-2170,770,,,,,,,0x03,
6109,508,-17,848,700,-1960,1120,,,,,,,0x03,
6119,477,-36,844,-700,-1680,1610,,,,,,,0x03,
6128,455,-62,847,-1680,-1190,1820,,,,,,,0x03,
6138,456,-57,851,-1050,-420,1330,,,,,,,0x03,
6148,448,-57,875,-210,140,1750,,,,,,,0x03,
6157,440,-80,904,350,490,2380,,,,,,,0x03,
6167,465,-85,903,1540,840,2030,,,,,,,0x03,
6176,493,-62,888,3710,1120,1190,,,,,,,0x03,
6186,484,-72,888,5040,910,1120,,,,,,,0x03,
6196,451,-89,896,6650,560,280,,,,,,,0x03,
6205,425,-63,906,10080,210,-700,,,,,,,0x03,
6215,428,-40,920,13370,-70,-560,,,,,,,0x03,
6225,453,-34,933,15820,-140,0,,,,,,,0x03,
6234,484,-24,947,17780,210,630,,,,,,,0x03,
6244,502,-6,947,18760,560,1190,,,,,,,0x03,
6254,491,5,942,19040,420,1470,,,,,,,0x03,
6263,446,2,951,18830,-210,1330,,,,,,,0x03,
6273,427,-3,963,19950,-1190,770,,,,,,,0x03,
6282,435,4,957,21560,-2240,490,,,,,,,0x03,
6292,438,0,957,21840,-3080,1260,,,,,,,0x03,
6302,450,-17,955,21280,-3500,1190,,,,,,,0x03,
6311,477,6,943,22260,-4200,140,,,,,,,0x03,
6321,487,21,921,22890,-5460,140,,,,,,,0x03,
6331,467,19,903,22540,-6930,210,,,,,,,0x03,
6340,452,21,882,22050,-8120,-420,,,,,,,0x03,
6350,439,40,861,21000,-9030,-630,,,,,,,0x03,
6360,435,47,847,18690,-8890,-280,,,,,,,0x03,
6369,452,62,833,16380,-8260,-140,,,,,,,0x03,
6379,491,67,817,14000,-7700,350,,,,,,,0x03,
6388,511,59,798,10920,-6790,1260,,,,,,,0x03,
6398,504,57,792,8050,-5390,1680,,,,,,,0x03,
6408,505,53,776,6090,-4340,2100,,,,,,,0x03,
6417,482,41,770,3850,-3570,2730,,,,,,,0x03,
6427,461,22,788,1470,-2240,3220,,,,,,,0x03,
6437,471,17,808,-280,-1120,3150,,,,,,,0x03,
6446,492,11,815,-1890,-140,3430,,,,,,,0x03,
6456,494,-15,827,-2870,630,3640,,,,,,,0x03,
6466,495,-37,839,-2310,1190,2940,,,,,,,0x03,
6475,490,-31,849,-140,1330,1750,,,,,,,0x03,
6485,461,-28,862,1260,1120,1610,,,,,,,0x03,
6494,445,-40,879,1330,770,1540,,,,,,,0x03,
6504,444,-30,897,1330,630,910,,,,,,,0x03,
6514,469,-15,922,1400,910,840,,,,,,,0x03,
6523,506,-5,931,560,980,980,,,,,,,0x03,
6533,521,-4,930,-980,770,1050,,,,,,,0x03,
6543,500,-7,924,-1540,70,350,,,,,,,0x03,
6552,458,-5,928,-980,-1050,-630,,,,,,,0x03,
6562,428,4,943,-630,-2380,-1400,,,,,,,0x03,
6572,445,12,951,-1680,-3150,-1610,,,,,,,0x03,
6581,490,8,953,-4270,-3360,-1190,,,,,,,0x03,
6591,499,15,941,-6580,-2870,-1190,,,,,,,0x03,
6600,477,25,936,-6860,-3220,-1260,,,,,,,0x03,
6610,458,25,927,-6370,-4620,-1540,,,,,,,0x03,
6620,436,34,918,-5600,-6090,-2240,,,,,,,0x03,
6629,429,47,913,-5250,-6860,-2520,,,,,,,0x03,
6639,462,66,892,-4970,-7420,-2310,,,,,,,0x03,
6649,496,54,882,-5740,-7630,-840,,,,,,,0x03,
6658,522,31,874,-6020,-6720,-140,,,,,,,0x03,
6668,531,51,866,-4410,-5670,70,,,,,,,0x03,
6678,508,49,865,-3500,-5390,1400,,,,,,,0x03,
6687,463,29,865,-3640,-5530,2030,,,,,,,0x03,
6697,447,28,853,-2660,-5670,1540,,,,,,,0x03,
6706,453,24,847,-2100,-5740,1540,,,,,,,0x03,
6716,471,0,852,-2450,-5250,1750,,,,,,,0x03,
6726,492,17,850,-1540,-4480,1050,,,,,,,0x03,
6735,505,44,847,-210,-4200,1190,,,,,,,0x03,
6745,504,31,848,-210,-4480,1960,,,,,,,0x03,
6755,496,26,846,140,-4620,1960,,,,,,,0x03,
6764,501,39,839,420,-4340,1890,,,,,,,0x03,
6774,504,33,829,-1050,-4200,2800,,,,,,,0x03,
6784,484,-9,836,-3780,-3780,3780,,,,,,,0x03,
6793,480,-33,841,-4200,-2590,3360,,,,,,,0x03,
6803,494,-19,848,-2240,-1820,2800,,,,,,,0x03,
6812,510,-23,857,-1050,-1400,3080,,,,,,,0x03,
6822,520,-15,861,-1050,-1610,2730,,,,,,,0x03,
6832,502,-16,858,-2030,-1890,2660,,,,,,,0x03,
6841,478,-33,850,-3290,-1820,1890,,,,,,,0x03,
6851,462,-25,846,-3220,-2030,420,,,,,,,0x03,
6861,475,-35,855,-3010,-2660,140,,,,,,,0x03,
6870,504,-34,851,-3220,-2660,-490,,,,,,,0x03,
6880,501,-13,844,-2800,-2170,-770,,,,,,,0x03,
6890,487,-22,844,-2450,-2170,-420,,,,,,,0x03,
6899,479,-29,838,-1960,-2380,-700,,,,,,,0x03,
6909,477,-8,828,-1190,-1820,-1400,,,,,,,0x03,
6918,475,5,827,-1540,-1120,-1330,,,,,,,0x03,
6928,479,2,826,-2870,-770,-980,,,,,,,0x03,
6938,483,6,824,-3430,-350,-1120,,,,,,,0x03,
6947,495,14,828,-2730,210,-1190,,,,,,,0x03,
6957,515,18,836,-2520,700,-910,,,,,,,0x03,
6967,522,18,840,-2800,980,-490,,,,,,,0x03,
6976,515,5,840,-3010,1470,0,,,,,,,0x03,
6986,503,-2,840,-2310,1820,140,,,,,,,0x03,
6996,489,-4,846,-840,1750,70,,,,,,,0x03,
7005,467,-11,867,70,1750,140,,,,,,,0x03,
7015,468,-11,883,280,1960,-140,,,,,,,0x03,
7024,474,4,895,-350,2100,-210,,,,,,,0x03,
7034,489,0,910,-1890,2520,-70,,,,,,,0x03,
7044,508,0,912,-2590,2520,-770,,,,,,,0x03,
7053,513,1,909,-2660,1890,-1190,,,,,,,0x03,
7063,490,-6,913,-3360,840,-1120,,,,,,,0x03,
7073,466,-8,932,-4480,-140,-1330,,,,,,,0x03,
7082,478,8,932,-5600,-1120,-1750,,,,,,,0x03,
7092,484,9,933,-7350,-1890,-1470,,,,,,,0x03,
7102,475,-9,935,-9170,-2170,-1050,,,,,,,0x03,
7111,480,-7,927,-8820,-2520,-1470,,,,,,,0x03,
7121,496,-5,920,-7910,-2800,-1190,,,,,,,0x03,
7130,510,-14,908,-7700,-2660,-840,,,,,,,0x03,
7140,510,-25,912,-7840,-2310,-280,,,,,,,0x03,
7150,504,-41,917,-7980,-1750,70,,,,,,,0x03,
7159,490,-39,917,-7000,-1400,70,,,,,,,0x03,
7169,473,-58,920,-5950,-1680,420,,,,,,,0x03,
7179,468,-69,917,-4480,-2310,-560,,,,,,,0x03,
7188,459,-38,908,-1890,-3500,-2030,,,,,,,0x03,
7198,463,-27,905,-700,-5320,-2660,,,,,,,0x03,
7208,487,-29,893,-1120,-7210,-3430,,,,,,,0x03,
7217,505,-10,881,-1120,-8190,-4480,,,,,,,0x03,
7227,508,13,875,-1470,-8540,-4550,,,,,,,0x03,
7236,508,14,871,-3150,-8890,-3640,,,,,,,0x03,
7246,511,21,850,-4410,-8680,-3220,,,,,,,0x03,
7256,509,23,830,-4200,-8120,-2730,,,,,,,0x03,
7265,505,0,826,-3920,-7490,-1890,,,,,,,0x03,
7275,508,-5,822,-3290,-6300,-1750,,,,,,,0x03,
7285,507,20,813,-2240,-4970,-1540,,,,,,,0x03,
7294,492,7,826,-2590,-4060,-350,,,,,,,0x03,
7304,489,-16,832,-3150,-3710,-70,,,,,,,0x03,
7313,504,-3,819,-2240,-3360,-490,,,,,,,0x03,
7323,509,1,805,-1820,-3010,-630,,,,,,,0x03,
7333,485,-16,810,-2450,-3080,-700,,,,,,,0x03,
7342,484,-39,823,-2100,-3010,-1050,,,,,,,0x03,
7352,502,-21,825,-420,-2450,-1820,,,,,,,0x03,
7362,511,0,827,1330,-1750,-1330,,,,,,,0x03,
7371,503,-23,840,1190,-1190,-140,,,,,,,0x03,
7381,506,-38,853,1120,0,70,,,,,,,0x03,
7391,524,-23,848,1890,1120,-140,,,,,,,0x03,
7400,508,-25,845,1610,1610,280,,,,,,,0x03,
7410,472,-50,863,490,1470,70,,,,,,,0x03,
7419,468,-52,877,350,910,-1190,,,,,,,0x03,
7429,492,-36,868,280,-70,-1890,,,,,,,0x03,
7439,487,-52,869,-1330,-1050,-1890,,,,,,,0x03,
7448,480,-74,880,-2660,-1540,-2730,,,,,,,0x03,
7458,505,-59,876,-2380,-2170,-4130,,,,,,,0x03,
7468,514,-49,863,-2520,-2310,-4340,,,,,,,0x03,
7477,506,-52,866,-3570,-1960,-4760,,,,,,,0x03,
7487,511,-34,866,-3640,-1750,-5600,,,,,,,0x03,
7497,516,-8,848,-3430,-1680,-5670,,,,,,,0x03,
7506,501,-6,838,-3990,-1610,-5180,,,,,,,0x03,
7516,473,-17,858,-4690,-1470,-4970,,,,,,,0x03,
7525,487,-5,857,-4340,-1260,-5250,,,,,,,0x03,
7535,522,19,854,-3850,-630,-4970,,,,,,,0x03,
7545,539,0,863,-4690,-70,-3570,,,,,,,0x03,
7554,545,-23,869,-4480,770,-3290,,,,,,,0x03,
7564,543,-1,864,-1960,1050,-3710,,,,,,,0x03,
7574,524,-2,859,-70,280,-3150,,,,,,,0x03,
7583,495,-16,864,840,-700,-3150,,,,,,,0x03,
7593,479,-7,865,2170,-1470,-3780,,,,,,,0x03,
7603,476,13,865,3010,-1890,-3780,,,,,,,0x03,
7612,506,18,866,3080,-1820,-3220,,,,,,,0x03,
7622,545,29,862,2800,-1540,-2870,,,,,,,0x03,
7631,556,41,851,2520,-980,-2240,,,,,,,0x03,
7641,528,32,841,1540,-840,-1330,,,,,,,0x03,
7651,489,10,837,70,-910,-1190,,,,,,,0x03,
7660,476,0,833,-420,-1120,-1680,,,,,,,0x03,
7670,471,-6,842,-980,-1260,-1960,,,,,,,0x03,
7680,494,-9,851,-1960,-1260,-1960,,,,,,,0x03,
7689,510,-3,841,-3500,-1470,-1890,,,,,,,0x03,
7699,513,-8,824,-4970,-1890,-1960,,,,,,,0x03,
7709,497,-18,813,-6370,-2450,-2520,,,,,,,0x03,
7718,483,-5,800,-7490,-3010,-3290,,,,,,,0x03,
7728,472,5,792,-9730,-3500,-3570,,,,,,,0x03,
7737,468,-12,794,-13020,-3220,-3430,,,,,,,0x03,
7747,493,-36,791,-15050,-2240,-3640,,,,,,,0x03,
7757,522,-45,781,-14140,-140,-4130,,,,,,,0x03,
7766,534,-36,790,-10990,2380,-3710,,,,,,,0x03,
7776,532,-35,796,-7840,4480,-2450,,,,,,,0x03,
7786,524,-22,798,-5040,5950,-1960,,,,,,,0x03,
7795,488,-21,808,-2870,7070,-1540,,,,,,,0x03,
7805,473,-35,819,-1050,7840,-1470,,,,,,,0x03,
7815,483,-29,820,490,8190,-1890,,,,,,,0x03,
7824,491,-17,825,1610,8470,-1750,,,,,,,0x03,
7834,489,-23,840,1610,8400,-1330,,,,,,,0x03,
7843,488,-23,855,1540,8260,-1260,,,,,,,0x03,
7853,492,-6,859,1890,8330,-1540,,,,,,,0x03,
7863,489,2,861,2730,8050,-1680,,,,,,,0x03,
7872,478,-11,872,3010,7770,-1400,,,,,,,0x03,
7882,478,-9,872,2940,7910,-1610,,,,,,,0x03,
7892,481,7,876,2590,8120,-1540,,,,,,,0x03,
7901,482,3,894,560,8330,-630,,,,,,,0x03,
7911,487,3,907,-1960,8330,-350,,,,,,,0x03,
7921,505,-2,906,-4410,8120,-70,,,,,,,0x03,
7930,498,-14,904,-7210,7490,-70,,,,,,,0x03,
7940,480,-25,908,-10150,6720,-490,,,,,,,0x03,
7949,483,-17,906,-13090,5460,-1330,,,,,,,0x03,
7959,478,-21,900,-16870,4200,-1470,,,,,,,0x03,
7969,467,-45,903,-19950,3430,-1820,,,,,,,0x03,
7978,480,-45,909,-20440,3010,-2730,,,,,,,0x03,
7988,492,-45,924,-20580,3080,-2800,,,,,,,0x03,
7998,513,-50,926,-19110,3780,-3290,,,,,,,0x03,
8007,532,-56,918,-14560,4200,-3220,,,,,,,0x03,
8017,515,-89,917,-9520,4690,-2170,,,,,,,0x03,
8027,489,-92,916,-4690,5250,-1820,,,,,,,0x03,
8036,476,-48,919,-700,4970,-1750,,,,,,,0x03,
8046,454,-27,931,210,3920,-770,,,,,,,0x03,
8055,439,-20,939,-70,2590,-770,,,,,,,0x03,
8065,456,14,933,840,1260,-1960,,,,,,,0x03,
8075,482,35,926,1050,-140,-2240,,,,,,,0x03,
8084,492,19,919,-350,-1120,-1680,,,,,,,0x03,
8094,484,15,896,-1330,-1330,-1750,,,,,,,0x03,
8104,461,12,881,-1750,-1120,-1190,,,,,,,0x03,
8113,450,-20,894,-2450,-420,-70,,,,,,,0x03,
8123,468,-23,904,-1750,560,0,,,,,,,0x03,
8133,483,-7,913,-350,1540,490,,,,,,,0x03,
8142,483,-19,922,0,2030,1610,,,,,,,0x03,
8152,471,-25,921,420,1610,1680,,,,,,,0x03,
8161,455,-7,915,1120,560,1050,,,,,,,0x03,
8171,453,0,905,1190,-980,700,,,,,,,0x03,
8181,452,-10,894,-350,-2590,770,,,,,,,0x03,
8190,446,-31,892,-2450,-3500,980,,,,,,,0x03,
8200,450,-16,893,-3080,-3150,770,,,,,,,0x03,
8210,447,-6,905,-3780,-2800,1960,,,,,,,0x03,
8219,478,-35,906,-4620,-1960,3010,,,,,,,0x03,
8229,506,-31,888,-3220,-630,2870,,,,,,,0x03,
8239,498,-35,880,-700,420,3570,,,,,,,0x03,
8248,464,-63,887,700,210,4130,,,,,,,0x03,
8258,433,-76,888,1330,-280,3780,,,,,,,0x03,
8267,431,-85,891,1330,-630,3290,,,,,,,0x03,
8277,441,-90,895,770,-980,2940,,,,,,,0x03,
8287,443,-93,912,140,-1260,2660,,,,,,,0x03,
8296,463,-86,915,0,-1610,2030,,,,,,,0x03,
8306,493,-61,896,280,-2240,1050,,,,,,,0x03,
8316,500,-55,883,-350,-2870,630,,,,,,,0x03,
8325,474,-59,874,-1680,-3360,70,,,,,,,0x03,
8335,456,-54,868,-2660,-3500,-630,,,,,,,0x03,
8345,455,-43,866,-3710,-3220,-700,,,,,,,0x03,
8354,459,-40,862,-4620,-3080,-280,,,,,,,0x03,
8364,462,-39,861,-5530,-2800,350,,,,,,,0x03,
8373,488,-23,849,-6160,-1890,280,,,,,,,0x03,
8383,510,-8,836,-6790,-1400,490,,,,,,,0x03,
8393,505,-38,836,-7420,-1190,980,,,,,,,0x03,
8402,477,-54,836,-6720,-700,630,,,,,,,0x03,
8412,470,-56,840,-5110,-140,630,,,,,,,0x03,
8422,462,-65,860,-3710,70,910,,,,,,,0x03,
8431,451,-72,888,-2100,490,1540,,,,,,,0x03,
8441,491,-67,897,420,980,1540,,,,,,,0x03,
8451,523,-45,891,2660,1190,1330,,,,,,,0x03,
8460,521,-45,882,4480,910,1260,,,,,,,0x03,
8470,491,-47,879,5880,-70,630,,,,,,,0x03,
8479,472,-25,877,7210,-700,-140,,,,,,,0x03,
8489,468,-9,877,7210,-1400,140,,,,,,,0x03,
8499,452,-25,885,5250,-1890,1330,,,,,,,0x03,
8508,455,-40,891,3150,-1470,1960,,,,,,,0x03,
8518,485,-10,888,3080,-840,1820,,,,,,,0x03,
8528,503,-10,893,1750,-840,3010,,,,,,,0x03,
8537,505,-45,889,-1400,-630,3500,,,,,,,0x03,
8547,504,-48,872,-2730,-350,2450,,,,,,,0x03,
8557,494,-55,867,-3080,-350,2310,,,,,,,0x03,
8566,461,-88,875,-3640,-980,2170,,,,,,,0x03,
8576,430,-103,896,-3220,-1470,1680,,,,,,,0x03,
8585,445,-90,906,-1680,-1540,1050,,,,,,,0x03,
8595,474,-71,907,-490,-1610,980,,,,,,,0x03,
8605,504,-82,902,140,-1680,980,,,,,,,0x03,
8614,521,-82,885,1120,-1820,420,,,,,,,0x03,
8624,506,-69,872,2310,-1820,-210,,,,,,,0x03,
8634,480,-61,870,3150,-2170,-630,,,,,,,0x03,
8643,454,-61,883,3430,-2730,-560,,,,,,,0x03,
8653,448,-54,887,2870,-2870,-350,,,,,,,0x03,
8662,464,-45,884,1820,-2800,140,,,,,,,0x03,
8672,482,-56,882,0,-2380,490,,,,,,,0x03,
8682,480,-53,883,-630,-1680,0,,,,,,,0x03,
8691,484,-41,882,140,-1330,-420,,,,,,,0x03,
8701,485,-42,875,560,-1470,-420,,,,,,,0x03,
8711,485,-38,863,1540,-1330,-630,,,,,,,0x03,
8720,492,-35,849,3570,-1400,-630,,,,,,,0x03,
8730,479,-42,861,4690,-1470,280,,,,,,,0x03,
8740,466,-41,872,4480,-910,980,,,,,,,0x03,
8749,462,0,878,4130,-420,1050,,,,,,,0x03,
8759,449,-2,899,2240,-420,2310,,,,,,,0x03,
8768,468,-23,897,560,-350,2310,,,,,,,0x03,
8778,507,-2,868,910,-70,1540,,,,,,,0x03,
8788,518,-10,848,980,140,2170,,,,,,,0x03,
8797,494,-33,839,700,140,2660,,,,,,,0x03,
8807,469,-33,843,1260,560,3010,,,,,,,0x03,
8817,462,-10,844,1610,1260,3430,,,,,,,0x03,
8826,451,-1,850,490,1750,4620,,,,,,,0x03,
8836,460,-10,847,-1610,2590,5460,,,,,,,0x03,
8846,483,-1,834,-3570,3710,5460,,,,,,,0x03,
8855,499,3,821,-6090,4970,6020,,,,,,,0x03,
8865,495,-13,814,-9310,6370,6860,,,,,,,0x03,
8874,488,-26,820,-11620,7980,7420,,,,,,,0x03,
8884,477,-47,839,-12390,9170,8050,,,,,,,0x03,
8894,464,-83,871,-12110,9870,8960,,,,,,,0x03,
8903,464,-120,895,-10780,10150,9030,,,,,,,0x03,
8913,452,-136,906,-8470,9660,8190,,,,,,,0x03,
8923,451,-161,911,-5180,8400,6930,,,,,,,0x03,
8932,447,-178,915,-1470,6300,4900,,,,,,,0x03,
8942,442,-174,915,1960,4200,2730,,,,,,,0x03,
8952,433,-156,921,3640,1750,840,,,,,,,0x03,
8961,431,-143,929,3010,-350,-490,,,,,,,0x03,
8971,455,-122,923,2240,-1890,-2030,,,,,,,0x03,
8980,476,-102,922,1330,-2730,-2940,,,,,,,0x03,
8990,491,-96,911,-140,-2870,-3360,,,,,,,0x03,
9000,492,-74,893,-1050,-2730,-3920,,,,,,,0x03,
9009,479,-63,882,-1960,-2240,-3990,,,,,,,0x03,
9019,472,-44,866,-2660,-1680,-3920,,,,,,,0x03,
9029,461,-23,858,-3710,-1330,-3220,,,,,,,0x03,
9038,457,-14,850,-5600,-700,-2520,,,,,,,0x03,
9048,458,0,837,-7420,-140,-2100,,,,,,,0x03,
9058,460,8,835,-9170,350,-1470,,,,,,,0x03,
9067,471,8,831,-10290,1050,-980,,,,,,,0x03,
9077,495,14,827,-10430,1750,-560,,,,,,,0x03,
9086,510,-6,826,-9940,2520,910,,,,,,,0x03,
9096,504,-31,821,-8400,3920,2100,,,,,,,0x03,
9106,489,-29,821,-4760,5390,2870,,,,,,,0x03,
9115,473,-41,834,-840,6370,4270,,,,,,,0x03,
9125,458,-51,845,3290,7280,5110,,,,,,,0x03,
9135,444,-43,860,7630,8190,5600,,,,,,,0x03,
9144,442,-38,875,10920,8750,6230,,,,,,,0x03,
9154,447,-38,887,12670,8820,6580,,,,,,,0x03,
9164,448,-51,900,13020,8890,6860,,,,,,,0x03,
9173,452,-51,910,12950,8890,6510,,,,,,,0x03,
9183,445,-55,928,12110,8120,6650,,,,,,,0x03,
9192,440,-76,942,10290,7140,6860,,,,,,,0x03,
9202,440,-75,945,9310,5810,5880,,,,,,,0x03,
9212,433,-78,952,8050,4060,5460,,,,,,,0x03,
9221,427,-87,956,5950,2240,4690,,,,,,,0x03,
9231,424,-90,956,3780,350,3570,,,,,,,0x03,
9241,434,-92,950,1400,-1190,2590,,,,,,,0x03,
9250,439,-94,939,-1190,-2310,1890,,,,,,,0x03,
9260,444,-103,926,-3290,-3220,1400,,,,,,,0x03,
9270,453,-113,922,-4760,-3710,910,,,,,,,0x03,
9279,457,-115,917,-5320,-3710,280,,,,,,,0x03,
9289,458,-119,910,-5460,-3570,140,,,,,,,0x03,
9298,456,-137,910,-5670,-2870,140,,,,,,,0x03,
9308,453,-135,921,-4900,-1540,-280,,,,,,,0x03,
9318,450,-121,929,-2870,-630,-630,,,,,,,0x03,
9327,448,-119,928,-700,-630,-560,,,,,,,0x03,
9337,438,-121,928,1260,-910,-980,,,,,,,0x03,
9347,433,-107,932,3220,-1610,-1890,,,,,,,0x03,
9356,434,-78,942,4410,-2800,-2870,,,,,,,0x03,
9366,440,-56,948,3710,-4410,-3010,,,,,,,0x03,
9376,458,-50,938,2100,-6020,-3290,,,,,,,0x03,
9385,462,-38,928,910,-7350,-3780,,,,,,,0x03,
9395,461,-38,922,-210,-8330,-3710,,,,,,,0x03,
9404,466,-30,913,-1190,-9030,-3780,,,,,,,0x03,
9414,461,-21,913,-2590,-9240,-3220,,,,,,,0x03,
9424,455,-35,912,-4690,-9170,-2240,,,,,,,0x03,
9433,467,-27,893,-5390,-8610,-2450,,,,,,,0x03,
9443,459,-18,892,-5880,-8120,-2100,,,,,,,0x03,
9453,439,-37,902,-7700,-7910,-1540,,,,,,,0x03,
9462,446,-20,893,-8400,-7980,-2100,,,,,,,0x03,
9472,454,-10,884,-9240,-8330,-1750,,,,,,,0x03,
9482,451,-34,872,-10570,-9030,-1330,,,,,,,0x03,
9491,449,-63,878,-10850,-9310,-1050,,,,,,,0x03,
9501,474,-65,872,-9100,-8890,-1330,,,,,,,0x03,
9510,491,-46,856,-6160,-8330,-840,,,,,,,0x03,
9520,481,-69,851,-4200,-7840,770,,,,,,,0x03,
9530,462,-96,847,-2380,-7000,1260,,,,,,,0x03,
9539,453,-79,842,420,-5740,980,,,,,,,0x03,
9549,455,-62,822,2520,-4830,1330,,,,,,,0x03,
9559,450,-79,816,2450,-3920,1960,,,,,,,0x03,
9568,447,-92,815,2310,-2310,1750,,,,,,,0x03,
9578,448,-68,818,3710,-770,1260,,,,,,,0x03,
9588,447,-58,827,3640,350,2240,,,,,,,0x03,
9597,469,-63,820,2380,1540,2730,,,,,,,0x03,
9607,501,-58,806,1820,2660,2730,,,,,,,0x03,
9616,508,-77,801,1470,3640,3150,,,,,,,0x03,
9626,482,-88,816,1610,4760,3150,,,,,,,0x03,
9636,463,-80,822,2100,5250,3080,,,,,,,0x03,
9645,461,-72,821,2030,5670,3220,,,,,,,0x03,
9655,445,-73,827,910,6300,3430,,,,,,,0x03,
9665,445,-77,832,-560,6790,3500,,,,,,,0x03,
9674,478,-62,822,-1330,7420,2870,,,,,,,0x03,
9684,497,-51,823,-2590,7910,2870,,,,,,,0x03,
9694,497,-76,829,-4620,8330,3220,,,,,,,0x03,
9703,488,-81,821,-5110,8960,2660,,,,,,,0x03,
9713,468,-74,821,-4760,9730,2660,,,,,,,0x03,
9722,426,-99,843,-5110,9870,3290,,,,,,,0x03,
9732,419,-125,858,-4620,9940,2940,,,,,,,0x03,
9742,441,-110,859,-2170,10360,1680,,,,,,,0x03,
9751,447,-101,875,-420,10430,1540,,,,,,,0x03,
9761,443,-111,885,0,9660,1260,,,,,,,0x03,
9771,458,-97,880,490,8750,140,,,,,,,0x03,
9780,469,-81,879,910,8050,-630,,,,,,,0x03,
9790,464,-84,891,1050,7280,-630,,,,,,,0x03,
9800,451,-87,897,1190,6650,-420,,,,,,,0x03,
9809,432,-84,907,980,6230,-210,,,,,,,0x03,
9819,418,-84,930,770,5740,0,,,,,,,0x03,
9828,434,-73,941,1330,5040,-350,,,,,,,0x03,
9838,468,-60,941,1260,4200,-560,,,,,,,0x03,
9848,491,-73,938,0,3570,-420,,,,,,,0x03,
9857,484,-77,933,-910,3360,-630,,,,,,,0x03,
9867,469,-67,926,-980,3010,-490,,,,,,,0x03,
9877,428,-78,933,-1610,2520,350,,,,,,,0x03,
9886,403,-90,945,-1960,2310,420,,,,,,,0x03,
9896,423,-64,949,-910,2030,-210,,,,,,,0x03,
9906,459,-66,956,-1190,1610,420,,,,,,,0x03,
9915,487,-97,942,-2310,1610,630,,,,,,,0x03,
9925,477,-86,930,-1190,2170,-280,,,,,,,0x03,
9934,459,-71,930,420,2520,-280,,,,,,,0x03,
9944,450,-66,922,1190,1890,210,,,,,,,0x03,
9954,447,-69,916,910,1680,770,,,,,,,0x03,
9963,445,-64,914,350,1750,840,,,,,,,0x03,
9973,445,-60,911,-560,1400,1190,,,,,,,0x03,
9983,452,-62,909,-1820,1190,1190,,,,,,,0x03,
9992,448,-51,900,-2870,770,910,,,,,,,0x03,
10002,428,-68,903,-4410,210,1260,,,,,,,0x03,
10011,415,-78,897,-5460,-70,700,,,,,,,0x03,
10021,415,-64,889,-5040,-490,350,,,,,,,0x03,
10031,422,-67,889,-5250,-910,560,,,,,,,0x03,
10040,429,-66,884,-5600,-1120,350,,,,,,,0x03,
10050,426,-61,891,-5810,-1120,420,,,,,,,0x03,
10060,433,-53,890,-6230,-1120,700,,,,,,,0x03,
10069,438,-45,889,-7490,-1330,1190,,,,,,,0x03,
10079,427,-58,882,-9520,-1890,1820,,,,,,,0x03,
10089,412,-88,889,-11200,-2100,2030,,,,,,,0x03,
10098,413,-99,885,-11200,-2170,1820,,,,,,,0x03,
10108,409,-111,881,-10990,-2170,2100,,,,,,,0x03,
10117,406,-129,879,-10710,-1820,2100,,,,,,,0x03,
10127,411,-138,886,-9940,-1400,1680,,,,,,,0x03,
10137,417,-133,898,-8470,-910,1120,,,,,,,0x03,
10146,408,-131,916,-6930,-980,560,,,,,,,0x03,
10156,401,-140,924,-6370,-1470,490,,,,,,,0x03,
10166,420,-150,920,-6370,-1470,-350,,,,,,,0x03,
10175,429,-154,922,-5600,-1540,-1190,,,,,,,0x03,
10185,432,-169,937,-4690,-1610,-1470,,,,,,,0x03,
10195,454,-169,943,-3850,-1610,-2030,,,,,,,0x03,
10204,460,-153,949,-3220,-1540,-2310,,,,,,,0x03,
10214,447,-148,959,-2940,-1610,-2310,,,,,,,0x03,
10223,427,-145,956,-2870,-2030,-2730,,,,,,,0x03,
10233,411,-135,953,-3220,-2520,-3150,,,,,,,0x03,
10243,410,-118,945,-3360,-2870,-4270,,,,,,,0x03,
10252,418,-99,942,-2730,-3290,-4760,,,,,,,0x03,
10262,421,-99,946,-3290,-3710,-4340,,,,,,,0x03,
10272,440,-81,933,-3850,-4060,-4270,,,,,,,0x03,
10281,452,-58,930,-4270,-4270,-3990,,,,,,,0x03,
10291,463,-56,911,-5180,-4690,-3290,,,,,,,0x03,
10301,470,-58,889,-5740,-5250,-3080,,,,,,,0x03,
10310,458,-66,893,-5950,-5530,-2800,,,,,,,0x03,
10320,451,-74,883,-5110,-5950,-2450,,,,,,,0x03,
10329,446,-80,881,-3640,-6230,-1750,,,,,,,0x03,
10339,435,-94,889,-2800,-5740,-980,,,,,,,0x03,
10349,441,-89,890,-1190,-5110,-560,,,,,,,0x03,
10358,452,-96,883,280,-4410,70,,,,,,,0x03,
10368,452,-115,886,1120,-3640,490,,,,,,,0x03,
10378,451,-111,894,2800,-2870,140,,,,,,,0x03,
10387,452,-84,904,4690,-2730,-350,,,,,,,0x03,
10397,457,-69,894,5110,-3150,-210,,,,,,,0x03,
10407,448,-77,890,3570,-3710,-140,,,,,,,0x03,
10416,433,-89,898,1890,-3920,-280,,,,,,,0x03,
10426,438,-78,902,1400,-3920,-490,,,,,,,0x03,
10435,441,-63,904,700,-4060,-70,,,,,,,0x03,
10445,447,-81,900,-980,-4270,1050,,,,,,,0x03,
10455,458,-89,882,-1750,-4550,1050,,,,,,,0x03,
10464,464,-81,871,-1890,-4690,770,,,,,,,0x03,
10474,458,-77,861,-2380,-5390,420,,,,,,,0x03,
10484,432,-83,852,-3920,-6160,280,,,,,,,0x03,
10493,427,-96,836,-4760,-6440,-350,,,,,,,0x03,
10503,419,-96,842,-5180,-6160,-840,,,,,,,0x03,
10513,411,-95,859,-5600,-5390,-770,,,,,,,0x03,
10522,453,-88,866,-5740,-4200,-770,,,,,,,0x03,
10532,505,-73,861,-4970,-2730,-770,,,,,,,0x03,
10541,532,-69,862,-3010,-1260,-280,,,,,,,0x03,
10551,543,-57,858,-490,-490,350,,,,,,,0x03,
10561,539,-31,858,1960,-490,1190,,,,,,,0x03,
10570,510,-39,864,3640,-910,2730,,,,,,,0x03,
10580,470,-64,866,4270,-1540,4130,,,,,,,0x03,
10590,433,-60,866,4620,-1750,4620,,,,,,,0x03,
