#Format version: 1.0
time[ms],accX[mg],accY[mg],accZ[mg],gyroX[mdps],gyroY[mdps],gyroZ[mdps],magnX[mG],magnY[mG],magnZ[mG],press[hPa],temp[°C],hum[0,782,123,600,-140,70,-210,,,,,,,0x03,
10,780,120,598,-280,280,-140,,,,,,,0x03,
19,779,118,599,-350,490,-210,,,,,,,0x03,
29,779,119,599,-280,630,-280,,,,,,,0x03,
39,779,116,602,-210,700,-280,,,,,,,0x03,
48,780,110,604,-140,770,-280,,,,,,,0x03,
58,779,109,605,280,770,-490,,,,,,,0x03,
67,782,112,607,980,770,-560,,,,,,,0x03,
77,782,111,611,1540,840,-490,,,,,,,0x03,
87,783,122,615,1960,770,-630,,,,,,,0x03,
96,786,142,617,2730,490,-630,,,,,,,0x03,
106,786,145,618,2940,0,0,,,,,,,0x03,
116,785,140,613,2380,-280,350,,,,,,,0x03,
125,783,137,610,2240,-420,280,,,,,,,0x03,
135,782,136,607,2520,-560,210,,,,,,,0x03,
145,780,139,600,2660,-630,280,,,,,,,0x03,
154,778,138,598,2380,-490,350,,,,,,,0x03,
164,776,137,595,1610,-490,210,,,,,,,0x03,
173,779,142,594,910,-490,0,,,,,,,0x03,
183,783,145,595,70,-490,-70,,,,,,,0x03,
193,786,142,595,-840,-490,-70,,,,,,,0x03,
202,786,138,595,-1540,-280,-140,,,,,,,0x03,
212,787,139,598,-1680,-210,-140,,,,,,,0x03,
222,786,140,599,-1680,-70,140,,,,,,,0x03,
231,785,139,599,-1610,70,490,,,,,,,0x03,
241,784,139,601,-1820,210,840,,,,,,,0x03,
251,783,136,604,-2030,140,1050,,,,,,,0x03,
260,782,134,604,-2030,140,1190,,,,,,,0x03,
270,782,133,602,-1960,210,1470,,,,,,,0x03,
279,782,130,600,-1890,280,1680,,,,,,,0x03,
289,784,128,596,-2100,490,1750,,,,,,,0x03,
299,782,130,591,-2590,840,1820,,,,,,,0x03,
308,782,131,590,-3080,1120,1890,,,,,,,0x03,
318,783,123,592,-3850,1540,1890,,,,,,,0x03,
328,783,116,589,-4410,1960,1750,,,,,,,0x03,
337,784,115,593,-4410,2240,1610,,,,,,,0x03,
347,784,114,595,-3990,2520,1610,,,,,,,0x03,
356,784,114,599,-3570,2800,1610,,,,,,,0x03,
366,782,115,604,-3080,2940,1610,,,,,,,0x03,
376,779,113,612,-2660,3010,1680,,,,,,,0x03,
385,777,115,615,-2380,3220,1260,,,,,,,0x03,
395,777,114,616,-2030,3290,1190,,,,,,,0x03,
405,773,111,620,-1750,3150,980,,,,,,,0x03,
414,773,112,622,-1540,3010,700,,,,,,,0x03,
424,776,112,620,-1260,2800,700,,,,,,,0x03,
434,779,118,618,-1120,2520,700,,,,,,,0x03,
443,779,121,620,-1260,2170,700,,,,,,,0x03,
453,778,124,621,-1610,1820,840,,,,,,,0x03,
462,776,123,623,-1960,1470,980,,,,,,,0x03,
472,774,120,626,-2240,1190,1120,,,,,,,0x03,
482,772,119,624,-2240,910,1120,,,,,,,0x03,
491,770,118,626,-2170,630,1260,,,,,,,0x03,
501,766,115,624,-2240,280,1330,,,,,,,0x03,
511,768,115,624,-2170,70,1260,,,,,,,0x03,
520,767,114,624,-2100,0,1120,,,,,,,0x03,
530,771,108,626,-2100,-70,1120,,,,,,,0x03,
540,773,105,620,-2170,-210,910,,,,,,,0x03,
549,774,106,622,-2100,-350,700,,,,,,,0x03,
559,775,101,622,-2030,-490,490,,,,,,,0x03,
568,774,98,620,-2030,-490,280,,,,,,,0x03,
578,776,98,618,-1680,-630,70,,,,,,,0x03,
588,777,96,618,-1330,-630,-140,,,,,,,0x03,
597,777,95,620,-1050,-700,-350,,,,,,,0x03,
607,777,100,618,-350,-630,-420,,,,,,,0x03,
617,775,102,618,210,-700,-210,,,,,,,0x03,
626,776,102,616,490,-700,-140,,,,,,,0x03,
636,776,104,615,770,-700,-140,,,,,,,0x03,
646,776,109,612,1120,-630,-210,,,,,,,0x03,
655,778,112,613,980,-630,-140,,,,,,,0x03,
665,779,107,615,490,-560,-210,,,,,,,0x03,
674,778,105,612,70,-490,-350,,,,,,,0x03,
684,779,106,608,0,-420,-700,,,,,,,0x03,
694,776,106,608,70,-280,-910,,,,,,,0x03,
703,777,107,607,-70,-70,-980,,,,,,,0x03,
713,775,111,606,-70,70,-1120,,,,,,,0x03,
723,776,115,605,70,280,-1120,,,,,,,0x03,
732,775,118,611,0,280,-1120,,,,,,,0x03,
742,774,119,611,0,280,-1120,,,,,,,0x03,
752,776,123,612,140,210,-1190,,,,,,,0x03,
761,777,124,616,140,140,-1120,,,,,,,0x03,
771,777,121,617,0,280,-1120,,,,,,,0x03,
780,776,116,615,-70,420,-1190,,,,,,,0x03,
790,771,118,614,-70,490,-1400,,,,,,,0x03,
800,771,116,617,-140,490,-1540,,,,,,,0x03,
809,770,114,613,-490,630,-1470,,,,,,,0x03,
819,770,112,617,-560,560,-1470,,,,,,,0x03,
829,772,108,620,-210,490,-1400,,,,,,,0x03,
838,774,121,617,210,490,-1400,,,,,,,0x03,
848,774,124,622,630,280,-1120,,,,,,,0x03,
858,774,123,622,420,280,-840,,,,,,,0x03,
867,772,123,620,140,280,-700,,,,,,,0x03,
877,769,124,621,140,210,-630,,,,,,,0x03,
886,766,123,621,-210,140,-350,,,,,,,0x03,
896,768,122,621,-420,0,-70,,,,,,,0x03,
906,770,122,619,-770,0,70,,,,,,,0x03,
915,774,123,617,-1260,-140,210,,,,,,,0x03,
925,775,119,620,-1890,-210,280,,,,,,,0x03,
935,774,113,625,-2380,-350,70,,,,,,,0x03,
944,774,115,627,-2310,-420,-280,,,,,,,0x03,
954,774,115,625,-2240,-560,-420,,,,,,,0x03,
963,772,116,624,-2380,-700,-490,,,,,,,0x03,
973,774,115,624,-2380,-770,-630,,,,,,,0x03,
983,775,112,618,-2450,-700,-630,,,,,,,0x03,
992,775,111,618,-2310,-700,-770,,,,,,,0x03,
1002,775,106,617,-1890,-630,-770,,,,,,,0x03,
1012,772,106,616,-1330,-490,-700,,,,,,,0x03,
1021,772,107,619,-770,-490,-700,,,,,,,0x03,
1031,770,113,623,-70,-560,-630,,,,,,,0x03,
1041,772,121,625,350,-630,-420,,,,,,,0x03,
1050,771,125,626,420,-700,-350,,,,,,,0x03,
1060,773,120,626,70,-700,-140,,,,,,,0x03,
1069,772,114,622,-280,-630,-210,,,,,,,0x03,
1079,773,117,619,-210,-630,-350,,,,,,,0x03,
1089,773,118,618,0,-770,-210,,,,,,,0x03,
1098,774,117,616,-140,-770,-140,,,,,,,0x03,
1108,772,112,616,-560,-770,-210,,,,,,,0x03,
1118,772,113,617,-840,-910,-420,,,,,,,0x03,
1127,771,112,616,-770,-980,-700,,,,,,,0x03,
1137,770,110,617,-980,-910,-840,,,,,,,0x03,
1147,770,111,614,-1260,-910,-980,,,,,,,0x03,
1156,772,114,615,-1330,-910,-1190,,,,,,,0x03,
1166,773,117,614,-1890,-700,-1330,,,,,,,0x03,
1175,772,116,616,-2380,-630,-1190,,,,,,,0x03,
1185,770,115,621,-2590,-490,-1330,,,,,,,0x03,
1195,769,117,624,-2380,-350,-1260,,,,,,,0x03,
1204,767,118,627,-1750,-350,-1120,,,,,,,0x03,
1214,766,119,630,-700,-350,-700,,,,,,,0x03,
1224,769,120,628,280,-350,-350,,,,,,,0x03,
1233,770,125,623,910,-490,0,,,,,,,0x03,
1243,771,124,625,840,-630,280,,,,,,,0x03,
1253,774,121,623,420,-630,420,,,,,,,0x03,
1262,776,115,622,0,-700,420,,,,,,,0x03,
1272,778,110,618,-70,-700,350,,,,,,,0x03,
1281,779,110,614,0,-840,350,,,,,,,0x03,
1291,778,112,612,-70,-840,210,,,,,,,0x03,
1301,775,116,612,-630,-840,210,,,,,,,0x03,
1310,774,116,614,-1260,-910,140,,,,,,,0x03,
1320,772,113,615,-1610,-910,140,,,,,,,0x03,
1330,773,111,617,-1680,-910,0,,,,,,,0x03,
1339,771,113,619,-1470,-980,-70,,,,,,,0x03,
1349,772,116,618,-1120,-980,-70,,,,,,,0x03,
1359,772,115,617,-980,-910,70,,,,,,,0x03,
1368,773,113,616,-910,-840,70,,,,,,,0x03,
1378,773,113,615,-840,-910,70,,,,,,,0x03,
1387,774,115,614,-980,-910,-210,,,,,,,0x03,
1397,774,114,615,-1260,-980,-420,,,,,,,0x03,
1407,771,112,615,-1540,-910,-560,,,,,,,0x03,
1416,769,111,617,-1680,-840,-700,,,,,,,0x03,
1426,768,110,616,-1750,-770,-770,,,,,,,0x03,
1436,768,109,618,-1890,-770,-840,,,,,,,0x03,
1445,769,106,617,-2100,-700,-1050,,,,,,,0x03,
1455,771,114,616,-2240,-770,-1120,,,,,,,0x03,
1465,773,109,623,-2380,-700,-1050,,,,,,,0x03,
1474,773,103,625,-2590,-560,-1050,,,,,,,0x03,
1484,772,109,625,-1820,-490,-1120,,,,,,,0x03,
1493,771,116,631,-840,-420,-910,,,,,,,0x03,
1503,769,119,631,-70,-280,-490,,,,,,,0x03,
1513,769,120,633,560,-350,-210,,,,,,,0x03,
1522,770,116,628,910,-350,0,,,,,,,0x03,
1532,772,122,621,1050,-490,70,,,,,,,0x03,
1542,773,120,621,910,-630,280,,,,,,,0x03,
1551,775,113,615,350,-700,490,,,,,,,0x03,
1561,778,110,609,-70,-770,350,,,,,,,0x03,
1570,782,109,608,-210,-910,210,,,,,,,0x03,
1580,780,110,608,-420,-980,140,,,,,,,0x03,
1590,777,112,608,-770,-980,70,,,,,,,0x03,
1599,777,111,608,-1050,-840,-140,,,,,,,0x03,
1609,776,108,606,-1190,-700,-350,,,,,,,0x03,
1619,776,109,611,-1050,-420,-420,,,,,,,0x03,
1628,774,105,616,-770,-350,-490,,,,,,,0x03,
1638,772,109,615,-630,-140,-630,,,,,,,0x03,
1648,771,116,617,-420,-70,-560,,,,,,,0x03,
1657,772,113,622,-490,-70,-420,,,,,,,0x03,
1667,773,112,620,-700,0,-420,,,,,,,0x03,
1676,772,115,618,-490,140,-350,,,,,,,0x03,
1686,770,118,617,-350,280,-280,,,,,,,0x03,
1696,771,120,618,-350,280,-70,,,,,,,0x03,
1705,770,119,620,-490,210,70,,,,,,,0x03,
1715,772,119,623,-700,210,140,,,,,,,0x03,
1725,771,114,621,-980,280,70,,,,,,,0x03,
1734,771,110,616,-1050,420,70,,,,,,,0x03,
1744,771,109,617,-980,350,0,,,,,,,0x03,
1754,774,109,615,-840,350,-70,,,,,,,0x03,
1763,774,115,612,-770,420,-70,,,,,,,0x03,
1773,774,116,614,-1190,420,-70,,,,,,,0x03,
1782,771,115,616,-2030,490,0,,,,,,,0x03,
1792,769,120,618,-2940,490,0,,,,,,,0x03,
1802,772,117,621,-3640,350,0,,,,,,,0x03,
1811,770,110,625,-3990,350,-70,,,,,,,0x03,
1821,767,107,635,-3500,350,-280,,,,,,,0x03,
1831,766,111,640,-1890,140,-280,,,,,,,0x03,
1840,768,114,638,-560,-210,140,,,,,,,0x03,
1850,768,113,638,140,-560,420,,,,,,,0x03,
1860,768,110,633,420,-700,350,,,,,,,0x03,
1869,768,114,629,420,-840,210,,,,,,,0x03,
1879,768,118,626,140,-910,210,,,,,,,0x03,
1888,765,116,621,-630,-910,280,,,,,,,0x03,
1898,767,111,619,-1330,-840,350,,,,,,,0x03,
1908,767,108,618,-1680,-700,280,,,,,,,0x03,
1917,769,110,619,-1610,-630,350,,,,,,,0x03,
1927,768,107,622,-1400,-560,490,,,,,,,0x03,
1937,767,104,625,-1120,-490,490,,,,,,,0x03,
1946,768,106,621,-630,-420,630,,,,,,,0x03,
1956,771,109,620,-70,-350,700,,,,,,,0x03,
1966,771,110,624,70,-280,910,,,,,,,0x03,
1975,771,107,626,-210,-280,840,,,,,,,0x03,
1985,769,110,623,-490,-280,700,,,,,,,0x03,
1994,769,110,627,-770,-350,560,,,,,,,0x03,
2004,770,103,628,-1120,-420,490,,,,,,,0x03,
2014,771,104,625,-1330,-420,350,,,,,,,0x03,
2023,770,107,626,-1330,-490,210,,,,,,,0x03,
2033,770,108,625,-1400,-630,140,,,,,,,0x03,
2043,770,109,625,-1400,-770,210,,,,,,,0x03,
2052,771,109,626,-1400,-770,350,,,,,,,0x03,
2062,771,108,624,-1470,-910,420,,,,,,,0x03,
2072,770,104,623,-1540,-840,490,,,,,,,0x03,
2081,768,102,624,-1470,-840,490,,,,,,,0x03,
2091,768,101,626,-1400,-910,490,,,,,,,0x03,
2100,770,101,625,-1470,-1050,490,,,,,,,0x03,
2110,773,101,623,-1400,-1120,490,,,,,,,0x03,
2120,777,99,621,-1470,-1120,490,,,,,,,0x03,
2129,779,98,620,-1330,-1120,420,,,,,,,0x03,
2139,777,98,617,-1190,-1050,280,,,,,,,0x03,
2149,774,99,615,-1050,-910,210,,,,,,,0x03,
2158,771,100,612,-980,-840,280,,,,,,,0x03,
2168,771,98,612,-1260,-910,280,,,,,,,0x03,
2177,771,97,614,-1680,-770,140,,,,,,,0x03,
2187,770,94,613,-2030,-560,0,,,,,,,0x03,
2197,772,97,615,-1750,-420,-280,,,,,,,0x03,
2206,772,99,619,-1610,-280,-280,,,,,,,0x03,
2216,770,98,625,-1400,-70,-350,,,,,,,0x03,
2226,768,100,629,-980,0,-420,,,,,,,0x03,
2235,767,102,630,-490,70,-490,,,,,,,0x03,
2245,766,105,632,210,-140,-700,,,,,,,0x03,
2255,767,111,632,630,-280,-700,,,,,,,0x03,
2264,770,112,630,840,-420,-630,,,,,,,0x03,
2274,771,114,628,1050,-630,-630,,,,,,,0x03,
2283,770,109,625,1260,-700,-490,,,,,,,0x03,
2293,768,110,623,1050,-770,-420,,,,,,,0x03,
2303,770,112,623,840,-840,-420,,,,,,,0x03,
2312,771,109,623,420,-840,-280,,,,,,,0x03,
2322,770,105,622,0,-770,-210,,,,,,,0x03,
2332,771,105,622,-70,-910,-210,,,,,,,0x03,
2341,773,104,622,0,-840,-210,,,,,,,0x03,
2351,774,106,622,0,-630,-140,,,,,,,0x03,
2361,774,108,621,-280,-630,0,,,,,,,0x03,
2370,775,107,622,-700,-630,0,,,,,,,0x03,
2380,772,108,622,-980,-630,70,,,,,,,0x03,
2389,770,106,625,-1120,-560,140,,,,,,,0x03,
2399,767,102,622,-1260,-490,280,,,,,,,0x03,
2409,766,102,622,-1470,-420,280,,,,,,,0x03,
2418,766,103,624,-1330,-560,140,,,,,,,0x03,
2428,769,102,623,-1190,-560,280,,,,,,,0x03,
2438,773,98,623,-1050,-630,280,,,,,,,0x03,
2447,775,98,622,-630,-700,210,,,,,,,0x03,
2457,777,105,621,-70,-700,70,,,,,,,0x03,
2467,778,106,620,140,-630,70,,,,,,,0x03,
2476,772,104,618,70,-560,70,,,,,,,0x03,
2486,770,104,618,70,-350,0,,,,,,,0x03,
2495,764,104,619,210,-140,-210,,,,,,,0x03,
2505,765,106,617,350,-70,-210,,,,,,,0x03,
2515,764,107,621,350,0,-70,,,,,,,0x03,
2524,767,108,624,420,-140,70,,,,,,,0x03,
2534,769,109,627,560,-280,140,,,,,,,0x03,
2544,770,111,629,490,-490,140,,,,,,,0x03,
2553,771,110,630,490,-490,140,,,,,,,0x03,
2563,772,111,629,210,-490,210,,,,,,,0x03,
2573,771,112,628,-70,-630,210,,,,,,,0x03,
2582,770,114,627,-420,-770,140,,,,,,,0x03,
2592,769,115,627,-980,-840,280,,,,,,,0x03,
2601,768,106,629,-1680,-980,420,,,,,,,0x03,
2611,768,103,625,-2030,-980,350,,,,,,,0x03,
2621,768,101,626,-1890,-1050,420,,,,,,,0x03,
2630,771,96,628,-1540,-1190,560,,,,,,,0x03,
2640,772,99,624,-1330,-1330,630,,,,,,,0x03,
2650,773,101,626,-1260,-1400,560,,,,,,,0x03,
2659,774,95,627,-1330,-1400,630,,,,,,,0x03,
2669,772,92,624,-1470,-1330,560,,,,,,,0x03,
2679,771,95,627,-1260,-1400,490,,,,,,,0x03,
2688,772,95,626,-980,-1400,560,,,,,,,0x03,
2698,774,94,624,-980,-1330,700,,,,,,,0x03,
2707,774,97,620,-840,-1330,560,,,,,,,0x03,
2717,775,97,617,-700,-1260,630,,,,,,,0x03,
2727,776,96,611,-840,-1120,630,,,,,,,0x03,
2736,776,96,611,-770,-980,560,,,,,,,0x03,
2746,774,95,613,-490,-840,420,,,,,,,0x03,
2756,770,96,613,-420,-630,280,,,,,,,0x03,
2765,769,99,616,-350,-560,140,,,,,,,0x03,
2775,767,97,620,-280,-560,-70,,,,,,,0x03,
2784,766,97,624,-210,-490,-210,,,,,,,0x03,
2794,767,104,623,210,-630,-280,,,,,,,0x03,
2804,769,103,626,630,-630,-280,,,,,,,0x03,
2813,768,102,627,770,-770,-280,,,,,,,0x03,
2823,770,106,627,980,-910,-280,,,,,,,0x03,
2833,771,111,627,1120,-840,-280,,,,,,,0x03,
2842,771,110,625,840,-840,-140,,,,,,,0x03,
2852,772,104,623,420,-770,0,,,,,,,0x03,
2862,769,103,621,70,-700,-70,,,,,,,0x03,
2871,769,103,624,140,-770,-140,,,,,,,0x03,
2881,771,97,623,420,-910,70,,,,,,,0x03,
2890,772,104,619,350,-700,70,,,,,,,0x03,
2900,773,109,622,350,-910,210,,,,,,,0x03,
2910,777,108,622,70,-910,420,,,,,,,0x03,
2919,777,109,620,-210,-910,560,,,,,,,0x03,
2929,775,108,622,-350,-910,630,,,,,,,0x03,
2939,770,106,624,-490,-910,700,,,,,,,0x03,
2948,769,106,626,-560,-840,700,,,,,,,0x03,
2958,769,103,626,-560,-840,840,,,,,,,0x03,
2968,769,106,622,-560,-770,910,,,,,,,0x03,
2977,774,110,623,-490,-770,980,,,,,,,0x03,
2987,774,108,622,-700,-560,1120,,,,,,,0x03,
2996,775,103,622,-770,-630,1330,,,,,,,0x03,
3006,776,102,621,-770,-700,1260,,,,,,,0x03,
3016,777,102,622,-770,-770,1190,,,,,,,0x03,
3025,777,100,620,-910,-840,1190,,,,,,,0x03,
3035,777,103,617,-1120,-910,1260,,,,,,,0x03,
3045,777,99,617,-1330,-910,1260,,,,,,,0x03,
3054,774,96,617,-1470,-840,1260,,,,,,,0x03,
3064,773,96,619,-1330,-770,1260,,,,,,,0x03,
3074,771,98,620,-1190,-700,1260,,,,,,,0x03,
3083,770,99,626,-1260,-770,1400,,,,,,,0x03,
3093,768,98,626,-1330,-630,1540,,,,,,,0x03,
3102,769,99,630,-1400,-630,1540,,,,,,,0x03,
3112,770,96,632,-1400,-630,1610,,,,,,,0x03,
3122,771,90,630,-1540,-700,1610,,,,,,,0x03,
3131,773,87,626,-1470,-700,1260,,,,,,,0x03,
3141,774,92,624,-1330,-910,1050,,,,,,,0x03,
3151,774,95,625,-1330,-1050,1050,,,,,,,0x03,
3160,775,90,625,-1540,-1190,1120,,,,,,,0x03,
3170,774,84,622,-1540,-1260,980,,,,,,,0x03,
3180,774,83,617,-1260,-1330,700,,,,,,,0x03,
3189,773,87,617,-770,-1260,490,,,,,,,0x03,
3199,774,84,617,-350,-1260,490,,,,,,,0x03,
3208,775,85,613,-140,-1050,490,,,,,,,0x03,
3218,776,86,612,70,-840,420,,,,,,,0x03,
3228,776,85,615,140,-630,350,,,,,,,0x03,
3237,777,86,615,0,-490,210,,,,,,,0x03,
3247,775,86,617,-140,-350,140,,,,,,,0x03,
3257,777,86,621,-140,-350,0,,,,,,,0x03,
3266,775,85,622,-210,0,-210,,,,,,,0x03,
3276,773,86,622,-280,0,-350,,,,,,,0x03,
3286,772,88,623,-210,-70,-490,,,,,,,0x03,
3295,773,89,625,-140,0,-490,,,,,,,0x03,
3305,775,91,623,-140,0,-420,,,,,,,0x03,
3314,776,93,623,-70,-70,-420,,,,,,,0x03,
3324,774,91,623,-70,-140,-350,,,,,,,0x03,
3334,774,93,622,-70,-210,-350,,,,,,,0x03,
3343,773,95,623,0,-140,-210,,,,,,,0x03,
3353,771,94,625,-70,-140,-210,,,,,,,0x03,
3363,769,92,625,-140,-210,-280,,,,,,,0x03,
3372,768,92,624,70,-140,-280,,,,,,,0x03,
3382,770,94,625,140,-210,-350,,,,,,,0x03,
3391,770,95,626,140,-350,-280,,,,,,,0x03,
3401,770,96,625,-70,-420,-350,,,,,,,0x03,
3411,771,97,626,-140,-490,-420,,,,,,,0x03,
3420,770,97,626,-350,-560,-350,,,,,,,0x03,
3430,771,101,626,-280,-700,-350,,,,,,,0x03,
3440,772,98,629,-280,-770,-140,,,,,,,0x03,
3449,771,95,626,-630,-700,-140,,,,,,,0x03,
3459,771,102,622,-490,-770,-140,,,,,,,0x03,
3469,773,100,629,-350,-840,0,,,,,,,0x03,
3478,773,88,625,-630,-770,70,,,,,,,0x03,
3488,774,90,620,-630,-910,-210,,,,,,,0x03,
3497,774,98,626,-420,-1120,-420,,,,,,,0x03,
3507,773,95,632,-770,-1330,-350,,,,,,,0x03,
3517,772,93,630,-980,-1470,-350,,,,,,,0x03,
3526,771,91,631,-1050,-1540,-560,,,,,,,0x03,
3536,769,90,632,-910,-1610,-700,,,,,,,0x03,
3546,771,94,624,-630,-1680,-490,,,,,,,0x03,
3555,777,103,620,-210,-1890,-210,,,,,,,0x03,
3565,780,104,620,-140,-2100,140,,,,,,,0x03,
3575,778,99,619,-350,-2100,350,,,,,,,0x03,
3584,775,95,615,-560,-2030,210,,,,,,,0x03,
3594,773,91,613,-560,-1750,140,,,,,,,0x03,
3603,773,85,612,-630,-1470,0,,,,,,,0x03,
3613,773,83,611,-560,-1330,-140,,,,,,,0x03,
3623,774,86,611,-490,-1120,-280,,,,,,,0x03,
3632,775,85,611,-420,-910,-420,,,,,,,0x03,
3642,775,82,613,-280,-560,-420,,,,,,,0x03,
3652,775,83,613,0,-280,-560,,,,,,,0x03,
3661,776,86,615,350,-70,-630,,,,,,,0x03,
3671,776,90,620,630,140,-770,,,,,,,0x03,
3681,776,90,624,770,280,-700,,,,,,,0x03,
3690,774,94,630,560,210,-700,,,,,,,0x03,
3700,773,92,635,420,0,-770,,,,,,,0x03,
3709,771,94,634,210,-210,-840,,,,,,,0x03,
3719,773,98,632,210,-560,-770,,,,,,,0x03,
3729,773,99,632,280,-840,-700,,,,,,,0x03,
3738,772,97,631,210,-980,-630,,,,,,,0x03,
3748,770,96,625,280,-1190,-490,,,,,,,0x03,
3758,770,100,621,420,-1330,-490,,,,,,,0x03,
3767,772,101,622,420,-1540,-350,,,,,,,0x03,
3777,774,99,619,350,-1680,-210,,,,,,,0x03,
3787,776,98,619,210,-1750,-210,,,,,,,0x03,
3796,775,99,620,-70,-1820,-210,,,,,,,0x03,
3806,774,95,619,-210,-1750,-210,,,,,,,0x03,
3815,774,93,618,-70,-1610,-350,,,,,,,0x03,
3825,774,94,619,0,-1540,-420,,,,,,,0x03,
3835,775,91,620,70,-1470,-490,,,,,,,0x03,
3844,774,90,616,140,-1400,-560,,,,,,,0x03,
3854,778,96,615,280,-1470,-560,,,,,,,0x03,
3864,781,96,615,210,-1400,-490,,,,,,,0x03,
3873,780,95,612,-210,-1400,-490,,,,,,,0x03,
3883,778,94,613,-350,-1260,-490,,,,,,,0x03,
3892,776,97,614,-420,-1120,-420,,,,,,,0x03,
3902,776,92,613,-350,-910,-280,,,,,,,0x03,
3912,775,87,612,0,-770,-210,,,,,,,0x03,
3921,775,85,614,350,-490,-280,,,,,,,0x03,
3931,775,86,614,700,-210,-420,,,,,,,0x03,
3941,773,86,616,980,0,-560,,,,,,,0x03,
3950,774,90,617,1050,140,-560,,,,,,,0x03,
3960,776,94,619,840,140,-630,,,,,,,0x03,
3970,776,96,621,630,280,-700,,,,,,,0x03,
3979,774,97,623,490,280,-770,,,,,,,0x03,
3989,770,99,626,420,210,-840,,,,,,,0x03,
3998,769,100,626,350,70,-840,,,,,,,0x03,
4008,770,99,626,490,-70,-840,,,,,,,0x03,
4018,772,99,626,700,-210,-700,,,,,,,0x03,
4027,771,98,624,1050,-350,-630,,,,,,,0x03,
4037,772,103,623,1470,-490,-560,,,,,,,0x03,
4047,773,108,625,1610,-770,-420,,,,,,,0x03,
4056,775,108,625,1260,-980,-280,,,,,,,0x03,
4066,775,106,625,770,-1050,-350,,,,,,,0x03,
4076,775,105,623,560,-1050,-490,,,,,,,0x03,
4085,773,111,620,210,-1190,-420,,,,,,,0x03,
4095,773,109,621,-280,-1330,-210,,,,,,,0x03,
4104,774,104,618,-840,-1260,-140,,,,,,,0x03,
4114,775,103,618,-1050,-1260,-70,,,,,,,0x03,
4124,776,97,620,-840,-1260,0,,,,,,,0x03,
4133,775,95,614,-770,-1190,0,,,,,,,0x03,
4143,778,97,613,-490,-1050,70,,,,,,,0x03,
4153,780,96,609,-210,-910,140,,,,,,,0x03,
4162,781,102,607,-210,-770,210,,,,,,,0x03,
4172,780,103,609,-490,-700,420,,,,,,,0x03,
4182,776,100,611,-910,-490,350,,,,,,,0x03,
4191,774,100,613,-1330,-280,420,,,,,,,0x03,
4201,775,99,616,-1400,-140,490,,,,,,,0x03,
4210,775,96,620,-1470,-70,560,,,,,,,0x03,
4220,775,91,620,-1330,70,490,,,,,,,0x03,
4230,774,94,622,-980,70,490,,,,,,,0x03,
4239,775,97,622,-770,70,420,,,,,,,0x03,
4249,774,92,621,-770,140,560,,,,,,,0x03,
4259,773,97,622,-840,70,420,,,,,,,0x03,
4268,773,97,624,-770,0,350,,,,,,,0x03,
4278,773,97,622,-980,0,350,,,,,,,0x03,
4288,772,98,622,-1050,70,350,,,,,,,0x03,
4297,771,96,624,-1120,0,280,,,,,,,0x03,
4307,771,95,623,-1050,0,280,,,,,,,0x03,
4316,772,96,627,-910,-70,280,,,,,,,0x03,
4326,771,94,625,-840,-70,350,,,,,,,0x03,
4336,772,96,625,-700,-210,350,,,,,,,0x03,
4345,773,97,627,-630,-350,420,,,,,,,0x03,
4355,770,95,630,-770,-490,490,,,,,,,0x03,
4365,770,93,629,-770,-560,420,,,,,,,0x03,
4374,771,95,625,-630,-630,350,,,,,,,0x03,
4384,771,94,624,-420,-630,420,,,,,,,0x03,
4394,774,90,620,-490,-560,490,,,,,,,0x03,
4403,773,92,618,-490,-490,560,,,,,,,0x03,
4413,774,90,621,-560,-490,560,,,,,,,0x03,
4422,775,86,618,-700,-420,560,,,,,,,0x03,
4432,776,91,616,-770,-490,490,,,,,,,0x03,
4442,775,88,620,-910,-490,490,,,,,,,0x03,
4451,774,85,621,-980,-490,420,,,,,,,0x03,
4461,773,84,626,-700,-490,350,,,,,,,0x03,
4471,770,84,628,-280,-490,280,,,,,,,0x03,
4480,770,87,627,-140,-630,280,,,,,,,0x03,
4490,773,87,625,140,-700,140,,,,,,,0x03,
4499,776,86,620,420,-630,0,,,,,,,0x03,
4509,778,91,617,280,-560,-70,,,,,,,0x03,
4519,778,93,616,70,-700,-140,,,,,,,0x03,
4528,775,89,615,-490,-560,-280,,,,,,,0x03,
4538,775,84,616,-1050,-350,-420,,,,,,,0x03,
4548,772,88,620,-770,-210,-630,,,,,,,0x03,
4557,773,92,622,-280,-350,-560,,,,,,,0x03,
4567,772,95,619,-350,-420,-420,,,,,,,0x03,
4577,773,98,618,-770,-490,-280,,,,,,,0x03,
4586,774,92,624,-910,-490,-280,,,,,,,0x03,
4596,775,91,625,-560,-560,-420,,,,,,,0x03,
4605,776,94,624,-140,-630,-420,,,,,,,0x03,
4615,774,94,626,350,-630,-350,,,,,,,0x03,
4625,773,94,625,630,-700,-420,,,,,,,0x03,
4634,774,98,620,630,-770,-420,,,,,,,0x03,
4644,774,98,620,560,-770,-420,,,,,,,0x03,
4654,772,99,618,210,-700,-420,,,,,,,0x03,
4663,772,104,617,-70,-770,-420,,,,,,,0x03,
4673,773,104,620,-420,-770,-280,,,,,,,0x03,
4683,775,101,621,-910,-770,-70,,,,,,,0x03,
4692,774,103,622,-1190,-770,0,,,,,,,0x03,
4702,774,105,623,-1190,-840,70,,,,,,,0x03,
4711,776,98,624,-1330,-770,280,,,,,,,0x03,
4721,772,91,622,-1400,-700,280,,,,,,,0x03,
4731,772,91,621,-1120,-700,210,,,,,,,0x03,
4740,773,91,621,-910,-630,140,,,,,,,0x03,
4750,775,88,619,-910,-560,210,,,,,,,0x03,
4760,778,92,616,-980,-560,280,,,,,,,0x03,
4769,777,96,615,-980,-490,350,,,,,,,0x03,
4779,778,96,616,-1400,-490,490,,,,,,,0x03,
4789,776,94,619,-1890,-490,630,,,,,,,0x03,
4798,773,94,621,-2030,-490,700,,,,,,,0x03,
4808,771,91,623,-2100,-420,770,,,,,,,0x03,
4817,773,83,622,-2100,-350,630,,,,,,,0x03,
4827,772,81,624,-1750,-280,490,,,,,,,0x03,
4837,772,81,627,-1400,-420,420,,,,,,,0x03,
4846,770,77,630,-1050,-560,280,,,,,,,0x03,
4856,773,76,631,-700,-700,-70,,,,,,,0x03,
4866,774,82,628,-140,-770,-140,,,,,,,0x03,
4875,775,86,626,70,-840,-70,,,,,,,0x03,
4885,773,86,626,-70,-980,0,,,,,,,0x03,
4895,772,84,627,-140,-980,-70,,,,,,,0x03,
4904,770,86,624,0,-1120,-140,,,,,,,0x03,
4914,771,90,621,140,-1260,-70,,,,,,,0x03,
4923,771,85,624,210,-1260,0,,,,,,,0x03,
4933,771,84,624,350,-1400,0,,,,,,,0x03,
4943,773,84,621,700,-1400,-70,,,,,,,0x03,
4952,776,83,618,980,-1330,-140,,,,,,,0x03,
4962,776,82,618,1260,-1330,-280,,,,,,,0x03,
4972,776,83,618,1540,-1190,-490,,,,,,,0x03,
4981,775,87,617,1610,-1120,-630,,,,,,,0x03,
4991,775,88,618,1610,-980,-770,,,,,,,0x03,
5001,775,91,618,1540,-840,-770,,,,,,,0x03,
5010,772,92,620,1330,-770,-770,,,,,,,0x03,
5020,773,93,623,1190,-700,-840,,,,,,,0x03,
5029,772,95,622,980,-700,-840,,,,,,,0x03,
5039,773,99,623,910,-770,-840,,,,,,,0x03,
5049,773,97,625,700,-840,-770,,,,,,,0x03,
5058,776,97,620,490,-910,-700,,,,,,,0x03,
5068,778,95,619,280,-910,-630,,,,,,,0x03,
5078,778,92,620,70,-910,-630,,,,,,,0x03,
5087,776,93,616,70,-840,-630,,,,,,,0x03,
5097,776,92,618,-70,-700,-560,,,,,,,0x03,
5106,773,91,620,-350,-630,-560,,,,,,,0x03,
5116,772,91,621,-210,-630,-490,,,,,,,0x03,
5126,772,86,620,-70,-490,-490,,,,,,,0x03,
5135,771,83,618,0,-420,-560,,,,,,,0x03,
5145,774,88,620,280,-280,-840,,,,,,,0x03,
5155,774,96,623,490,-420,-770,,,,,,,0x03,
5164,774,96,628,350,-700,-560,,,,,,,0x03,
5174,776,91,628,0,-770,-560,,,,,,,0x03,
5184,776,89,627,0,-840,-630,,,,,,,0x03,
5193,775,91,624,490,-980,-770,,,,,,,0x03,
5203,775,93,619,840,-980,-700,,,,,,,0x03,
5212,776,95,616,840,-980,-630,,,,,,,0x03,
5222,772,90,619,630,-980,-770,,,,,,,0x03,
5232,772,88,617,630,-1050,-1050,,,,,,,0x03,
5241,774,93,617,630,-980,-1190,,,,,,,0x03,
5251,775,90,620,490,-980,-1260,,,,,,,0x03,
5261,775,90,617,630,-980,-1400,,,,,,,0x03,
5270,778,95,614,770,-840,-1470,,,,,,,0x03,
5280,778,97,611,770,-700,-1470,,,,,,,0x03,
5290,775,95,615,700,-490,-1330,,,,,,,0x03,
5299,776,97,616,910,-420,-1400,,,,,,,0x03,
5309,776,105,616,1330,-280,-1190,,,,,,,0x03,
5318,776,108,618,1400,-210,-770,,,,,,,0x03,
5328,775,111,617,1190,-140,-490,,,,,,,0x03,
5338,775,114,616,840,-70,-280,,,,,,,0x03,
5347,773,114,617,280,0,-70,,,,,,,0x03,
5357,773,110,617,-280,210,70,,,,,,,0x03,
5367,774,107,617,-630,350,140,,,,,,,0x03,
5376,773,104,620,-700,490,210,,,,,,,0x03,
5386,773,98,622,-630,560,140,,,,,,,0x03,
5396,771,98,618,-420,700,140,,,,,,,0x03,
5405,770,104,622,-140,560,140,,,,,,,0x03,
5415,772,105,623,-210,490,280,,,,,,,0x03,
5424,774,105,621,-560,420,490,,,,,,,0x03,
5434,774,105,623,-840,420,420,,,,,,,0x03,
5444,774,100,625,-770,420,420,,,,,,,0x03,
5453,773,99,626,-700,420,420,,,,,,,0x03,
5463,771,99,627,-560,210,560,,,,,,,0x03,
5473,770,98,628,-490,70,770,,,,,,,0x03,
5482,769,94,628,-630,0,840,,,,,,,0x03,
5492,770,92,627,-770,-70,840,,,,,,,0x03,
5502,772,93,625,-560,-280,840,,,,,,,0x03,
5511,773,92,625,-490,-350,910,,,,,,,0x03,
5521,772,89,626,-840,-560,910,,,,,,,0x03,
5530,771,88,629,-980,-700,700,,,,,,,0x03,
5540,773,86,627,-1050,-840,630,,,,,,,0x03,
5550,772,85,627,-1050,-910,350,,,,,,,0x03,
5559,772,84,627,-840,-980,210,,,,,,,0x03,
5569,772,88,625,-560,-1050,210,,,,,,,0x03,
5579,772,88,623,-280,-1120,210,,,,,,,0x03,
5588,772,90,623,70,-1120,210,,,,,,,0x03,
5598,772,91,624,210,-1120,140,,,,,,,0x03,
5608,772,92,621,140,-1050,70,,,,,,,0x03,
5617,772,95,619,0,-1050,70,,,,,,,0x03,
5627,772,94,621,-280,-980,0,,,,,,,0x03,
5636,773,89,622,-630,-910,-70,,,,,,,0x03,
5646,773,86,620,-770,-840,-210,,,,,,,0x03,
5656,773,89,620,-350,-770,-350,,,,,,,0x03,
5665,775,91,619,70,-770,-350,,,,,,,0x03,
5675,775,94,618,280,-840,-210,,,,,,,0x03,
5685,777,96,619,280,-840,-210,,,,,,,0x03,
5694,775,96,620,350,-910,-280,,,,,,,0x03,
5704,774,97,620,140,-910,-280,,,,,,,0x03,
5713,771,97,621,-70,-840,-280,,,,,,,0x03,
5723,771,95,621,-210,-770,-280,,,,,,,0x03,
5733,771,95,620,-210,-700,-210,,,,,,,0x03,
5742,771,95,620,-140,-630,-140,,,,,,,0x03,
5752,770,92,621,-210,-560,-70,,,,,,,0x03,
5762,771,92,622,-280,-420,-140,,,,,,,0x03,
5771,773,94,622,-210,-350,-140,,,,,,,0x03,
5781,776,94,620,-70,-280,-70,,,,,,,0x03,
5791,775,104,625,0,-350,0,,,,,,,0x03,
5800,776,100,622,280,-560,350,,,,,,,0x03,
5810,777,93,620,-350,-560,280,,,,,,,0x03,
5819,774,97,624,-210,-630,0,,,,,,,0x03,
5829,773,98,625,140,-840,140,,,,,,,0x03,
5839,773,100,622,-140,-1050,280,,,,,,,0x03,
5848,771,96,624,-420,-1120,280,,,,,,,0x03,
5858,769,95,625,-630,-1190,210,,,,,,,0x03,
5868,771,97,624,-700,-1330,210,,,,,,,0x03,
5877,773,92,623,-770,-1330,350,,,,,,,0x03,
5887,774,87,622,-700,-1330,350,,,,,,,0x03,
5897,775,89,623,-350,-1400,140,,,,,,,0x03,
5906,775,90,625,-70,-1400,140,,,,,,,0x03,
5916,775,93,622,-210,-1330,140,,,,,,,0x03,
5925,772,95,621,-490,-1330,70,,,,,,,0x03,
5935,770,93,624,-770,-1260,70,,,,,,,0x03,
5945,769,91,623,-910,-1190,70,,,,,,,0x03,
5954,771,94,620,-910,-1190,140,,,,,,,0x03,
5964,774,90,618,-980,-1050,280,,,,,,,0x03,
5974,776,88,619,-1050,-1050,210,,,,,,,0x03,
5983,777,90,622,-840,-980,140,,,,,,,0x03,
5993,777,91,622,-770,-1120,210,,,,,,,0x03,
6003,776,89,620,-840,-1120,210,,,,,,,0x03,
6012,775,87,620,-770,-1050,210,,,,,,,0x03,
6022,775,88,620,-560,-1120,70,,,,,,,0x03,
6031,775,91,617,-420,-1050,-70,,,,,,,0x03,
6041,775,91,617,-560,-980,0,,,,,,,0x03,
6051,774,88,620,-840,-840,-70,,,,,,,0x03,
6060,774,86,621,-770,-770,-280,,,,,,,0x03,
6070,775,89,619,-490,-770,-420,,,,,,,0x03,
6080,777,92,618,-420,-700,-490,,,,,,,0x03,
6089,775,87,623,-420,-560,-490,,,,,,,0x03,
6099,774,84,620,-280,-490,-560,,,,,,,0x03,
6109,772,92,617,140,-490,-560,,,,,,,0x03,
6118,772,96,621,350,-490,-490,,,,,,,0x03,
6128,772,97,623,140,-560,-280,,,,,,,0x03,
6137,774,96,622,-70,-700,-210,,,,,,,0x03,
6147,775,96,623,-140,-630,-210,,,,,,,0x03,
6157,775,99,625,-350,-840,-140,,,,,,,0x03,
6166,775,97,624,-490,-980,-70,,,,,,,0x03,
6176,774,95,623,-770,-1050,70,,,,,,,0x03,
6186,773,94,621,-980,-1050,70,,,,,,,0x03,
6195,775,92,623,-770,-1120,0,,,,,,,0x03,
6205,774,94,623,-700,-1190,70,,,,,,,0x03,
6215,777,92,619,-560,-1190,140,,,,,,,0x03,
6224,777,92,616,-490,-1120,140,,,,,,,0x03,
6234,775,97,616,-630,-1120,70,,,,,,,0x03,
6243,777,98,618,-770,-980,140,,,,,,,0x03,
6253,775,92,617,-1050,-910,280,,,,,,,0x03,
6263,773,92,618,-910,-840,140,,,,,,,0x03,
6272,774,100,623,-700,-840,140,,,,,,,0x03,
6282,774,103,623,-630,-910,560,,,,,,,0x03,
6292,777,88,621,-980,-980,700,,,,,,,0x03,
6301,779,85,615,-1120,-840,350,,,,,,,0x03,
6311,779,92,614,-630,-770,210,,,,,,,0x03,
6320,780,91,614,-420,-770,280,,,,,,,0x03,
6330,779,91,611,-980,-630,490,,,,,,,0x03,
6340,775,90,612,-1400,-560,350,,,,,,,0x03,
6349,774,87,617,-1820,-420,210,,,,,,,0x03,
6359,770,87,619,-1960,-350,210,,,,,,,0x03,
6369,773,87,621,-1820,-280,140,,,,,,,0x03,
6378,773,85,621,-1470,-140,140,,,,,,,0x03,
6388,773,84,622,-1050,-70,280,,,,,,,0x03,
6398,773,84,625,-630,-70,280,,,,,,,0x03,
6407,774,84,622,-420,0,210,,,,,,,0x03,
6417,776,84,622,-280,70,280,,,,,,,0x03,
6426,774,80,625,-350,70,210,,,,,,,0x03,
6436,774,82,624,-420,0,70,,,,,,,0x03,
6446,777,83,625,-350,-210,-70,,,,,,,0x03,
6455,777,81,623,-490,-210,-210,,,,,,,0x03,
6465,776,82,620,-490,-350,-280,,,,,,,0x03,
6475,777,81,621,-280,-280,-420,,,,,,,0x03,
6484,775,82,621,0,-350,-490,,,,,,,0x03,
6494,773,83,619,210,-350,-630,,,,,,,0x03,
6504,772,86,620,420,-280,-630,,,,,,,0x03,
6513,772,86,622,560,-280,-630,,,,,,,0x03,
6523,771,86,623,350,-280,-630,,,,,,,0x03,
6532,772,89,624,420,-350,-770,,,,,,,0x03,
6542,773,92,624,490,-490,-700,,,,,,,0x03,
6552,773,90,624,630,-700,-490,,,,,,,0x03,
6561,778,94,626,700,-910,-490,,,,,,,0x03,
6571,776,96,625,560,-840,-350,,,,,,,0x03,
6581,775,90,627,280,-980,-280,,,,,,,0x03,
6590,771,86,625,140,-980,-350,,,,,,,0x03,
6600,772,91,622,350,-1120,-490,,,,,,,0x03,
6610,772,91,623,560,-1120,-420,,,,,,,0x03,
6619,771,91,625,420,-1120,-350,,,,,,,0x03,
6629,774,101,630,770,-1330,-210,,,,,,,0x03,
6638,775,81,622,490,-1330,-210,,,,,,,0x03,
6648,776,83,620,-140,-1260,-840,,,,,,,0x03,
6658,775,90,624,560,-1330,-1050,,,,,,,0x03,
6667,777,92,621,560,-1470,-700,,,,,,,0x03,
6677,776,86,619,0,-1470,-630,,,,,,,0x03,
6687,774,87,617,-70,-1470,-910,,,,,,,0x03,
6696,775,88,615,0,-1540,-980,,,,,,,0x03,
6706,775,88,615,140,-1400,-910,,,,,,,0x03,
6716,775,88,615,280,-1330,-840,,,,,,,0x03,
6725,776,89,615,490,-1260,-840,,,,,,,0x03,
6735,780,92,614,630,-1120,-840,,,,,,,0x03,
6744,784,95,615,630,-1050,-770,,,,,,,0x03,
6754,781,92,615,350,-910,-770,,,,,,,0x03,
6764,776,91,617,70,-770,-910,,,,,,,0x03,
6773,772,91,618,-140,-630,-1050,,,,,,,0x03,
6783,771,89,617,-70,-420,-1050,,,,,,,0x03,
6793,771,88,619,-70,-350,-980,,,,,,,0x03,
6802,771,88,619,70,-210,-1050,,,,,,,0x03,
6812,776,92,617,490,-210,-910,,,,,,,0x03,
6822,780,97,616,630,-140,-770,,,,,,,0x03,
6831,781,97,618,560,-70,-700,,,,,,,0x03,
6841,780,96,618,490,-70,-630,,,,,,,0x03,
6850,778,99,618,280,-70,-700,,,,,,,0x03,
6860,775,98,619,70,-70,-700,,,,,,,0x03,
6870,774,95,620,-280,0,-700,,,,,,,0x03,
6879,771,95,620,-630,0,-770,,,,,,,0x03,
6889,771,96,620,-840,0,-840,,,,,,,0x03,
6899,773,95,621,-770,70,-700,,,,,,,0x03,
6908,773,92,621,-700,210,-560,,,,,,,0x03,
6918,773,93,621,-350,350,-560,,,,,,,0x03,
6927,774,95,623,0,280,-490,,,,,,,0x03,
6937,775,94,621,210,350,-350,,,,,,,0x03,
6947,774,93,621,350,490,-280,,,,,,,0x03,
6956,773,95,620,420,420,-350,,,,,,,0x03,
6966,772,95,623,350,420,-280,,,,,,,0x03,
6976,770,95,624,210,420,-140,,,,,,,0x03,
6985,771,96,624,210,420,-210,,,,,,,0x03,
6995,771,98,624,350,350,-140,,,,,,,0x03,
7005,773,98,622,350,280,-140,,,,,,,0x03,
7014,773,99,622,420,280,0,,,,,,,0x03,
7024,773,102,624,490,210,70,,,,,,,0x03,
7033,773,101,624,420,140,210,,,,,,,0x03,
7043,772,101,625,210,70,210,,,,,,,0x03,
7053,771,97,627,-70,-140,210,,,,,,,0x03,
7062,773,96,627,-140,-280,70,,,,,,,0x03,
7072,775,98,625,-140,-490,-70,,,,,,,0x03,
7082,776,98,624,-140,-560,-70,,,,,,,0x03,
7091,775,107,628,-70,-700,70,,,,,,,0x03,
7101,772,92,624,-280,-910,490,,,,,,,0x03,
7111,771,82,619,-1050,-770,0,,,,,,,0x03,
7120,768,88,619,-490,-490,-420,,,,,,,0x03,
7130,771,94,618,140,-420,-140,,,,,,,0x03,
7139,773,92,617,-280,-280,140,,,,,,,0x03,
7149,773,89,620,-560,-140,210,,,,,,,0x03,
7159,774,90,622,-490,0,70,,,,,,,0x03,
7168,776,94,620,-630,0,210,,,,,,,0x03,
7178,775,95,624,-700,-70,210,,,,,,,0x03,
7188,774,96,627,-770,-140,280,,,,,,,0x03,
7197,772,93,629,-910,-140,280,,,,,,,0x03,
7207,771,89,631,-980,0,140,,,,,,,0x03,
7217,768,85,626,-770,0,140,,,,,,,0x03,
7226,769,92,623,-350,-140,0,,,,,,,0x03,
7236,772,91,622,-140,-210,0,,,,,,,0x03,
7245,775,87,620,-350,-210,70,,,,,,,0x03,
7255,775,88,619,-350,-210,0,,,,,,,0x03,
7265,776,92,622,-210,-280,-70,,,,,,,0x03,
7274,776,94,623,-140,-420,-70,,,,,,,0x03,
7284,774,95,622,-280,-490,-70,,,,,,,0x03,
7294,772,95,625,-420,-560,-70,,,,,,,0x03,
7303,770,94,623,-700,-490,-140,,,,,,,0x03,
7313,769,94,623,-770,-560,-210,,,,,,,0x03,
7323,769,92,625,-630,-490,-140,,,,,,,0x03,
7332,770,93,624,-490,-490,-210,,,,,,,0x03,
7342,772,90,623,-350,-420,-210,,,,,,,0x03,
7351,770,89,624,-350,-350,-280,,,,,,,0x03,
7361,769,89,627,-210,-420,-280,,,,,,,0x03,
7371,771,90,626,0,-350,-280,,,,,,,0x03,
7380,773,89,625,140,-280,-350,,,,,,,0x03,
7390,771,89,622,210,-210,-350,,,,,,,0x03,
7400,772,96,620,560,-210,-350,,,,,,,0x03,
7409,773,97,622,490,-210,-140,,,,,,,0x03,
7419,774,95,622,210,-280,-70,,,,,,,0x03,
7429,774,97,621,70,-210,0,,,,,,,0x03,
7438,772,101,623,-70,-280,70,,,,,,,0x03,
7448,773,100,624,-350,-280,210,,,,,,,0x03,
7457,774,99,623,-630,-280,420,,,,,,,0x03,
7467,772,100,625,-560,-350,560,,,,,,,0x03,
7477,770,100,626,-560,-280,630,,,,,,,0x03,
7486,770,99,625,-840,-140,700,,,,,,,0x03,
7496,769,95,625,-1120,-70,700,,,,,,,0x03,
7506,769,95,624,-1190,0,630,,,,,,,0x03,
7515,770,94,623,-1190,-70,560,,,,,,,0x03,
7525,772,89,623,-1120,0,560,,,,,,,0x03,
7534,775,89,621,-1050,-140,560,,,,,,,0x03,
7544,775,90,623,-770,-280,490,,,,,,,0x03,
7554,771,90,626,-560,-490,420,,,,,,,0x03,
7563,768,86,627,-280,-560,420,,,,,,,0x03,
7573,769,89,624,70,-490,350,,,,,,,0x03,
7583,769,90,626,70,-350,560,,,,,,,0x03,
7592,767,88,626,-70,-420,490,,,,,,,0x03,
7602,768,86,627,-350,-280,420,,,,,,,0x03,
7612,770,83,630,-700,-210,280,,,,,,,0x03,
7621,770,83,631,-630,-350,140,,,,,,,0x03,
7631,771,87,632,-560,-420,70,,,,,,,0x03,
7640,770,83,633,-700,-560,210,,,,,,,0x03,
7650,773,86,631,-700,-770,0,,,,,,,0x03,
7660,771,86,629,-490,-770,-70,,,,,,,0x03,
7669,769,84,626,-210,-700,-210,,,,,,,0x03,
7679,768,84,620,70,-630,-280,,,,,,,0x03,
7689,768,86,618,210,-560,-420,,,,,,,0x03,
7698,770,84,621,140,-420,-490,,,,,,,0x03,
7708,771,84,621,140,-350,-560,,,,,,,0x03,
7718,774,86,621,280,-280,-770,,,,,,,0x03,
7727,774,84,626,210,-350,-840,,,,,,,0x03,
7737,773,87,625,210,-350,-840,,,,,,,0x03,
7746,772,90,627,210,-420,-910,,,,,,,0x03,
7756,771,87,631,0,-420,-910,,,,,,,0x03,
7766,768,87,630,0,-420,-840,,,,,,,0x03,
7775,767,92,629,140,-490,-840,,,,,,,0x03,
7785,767,94,630,70,-560,-700,,,,,,,0x03,
7795,765,93,631,-70,-700,-490,,,,,,,0x03,
7804,768,92,630,-140,-700,-350,,,,,,,0x03,
7814,769,93,630,-140,-700,-350,,,,,,,0x03,
7824,771,94,627,0,-840,-280,,,,,,,0x03,
7833,771,93,625,140,-770,-280,,,,,,,0x03,
7843,769,92,625,140,-840,-350,,,,,,,0x03,
7852,770,92,625,210,-840,-350,,,,,,,0x03,
7862,770,92,625,210,-840,-490,,,,,,,0x03,
7872,768,94,623,70,-770,-490,,,,,,,0x03,
7881,769,97,625,0,-980,-560,,,,,,,0x03,
7891,772,98,626,70,-980,-420,,,,,,,0x03,
7901,774,100,623,-70,-1050,-280,,,,,,,0x03,
7910,774,101,620,0,-1120,-210,,,,,,,0x03,
7920,776,102,620,70,-1120,-140,,,,,,,0x03,
7930,774,102,617,-280,-910,70,,,,,,,0x03,
7939,773,99,614,-700,-770,140,,,,,,,0x03,
7949,772,96,614,-1050,-560,70,,,,,,,0x03,
7958,772,93,616,-1190,-420,0,,,,,,,0x03,
7968,771,89,621,-1400,-280,70,,,,,,,0x03,
7978,770,87,623,-1470,-140,70,,,,,,,0x03,
7987,771,89,627,-1260,-70,0,,,,,,,0x03,
7997,773,85,628,-1050,-70,0,,,,,,,0x03,
8007,773,88,627,-910,-70,-70,,,,,,,0x03,
8016,772,91,628,-770,-140,-70,,,,,,,0x03,
8026,771,87,631,-770,-210,-70,,,,,,,0x03,
8036,769,86,627,-700,-210,-70,,,,,,,0x03,
8045,768,87,627,-560,-210,-140,,,,,,,0x03,
8055,767,89,629,-490,-210,-70,,,,,,,0x03,
8064,765,91,628,-490,-280,0,,,,,,,0x03,
8074,766,93,630,-560,-210,140,,,,,,,0x03,
8084,766,90,630,-770,-210,210,,,,,,,0x03,
8093,767,88,630,-700,-280,140,,,,,,,0x03,
8103,769,86,631,-560,-280,0,,,,,,,0x03,
8113,770,85,630,-490,-280,-70,,,,,,,0x03,
8122,770,86,630,-350,-420,-280,,,,,,,0x03,
8132,771,88,629,-140,-490,-420,,,,,,,0x03,
8141,770,88,630,-210,-560,-490,,,,,,,0x03,
8151,769,89,629,-350,-630,-630,,,,,,,0x03,
8161,768,91,627,-350,-700,-630,,,,,,,0x03,
8170,768,92,627,-350,-770,-560,,,,,,,0x03,
8180,769,91,627,-350,-770,-420,,,,,,,0x03,
8190,770,86,624,-140,-700,-420,,,,,,,0x03,
8199,770,89,624,140,-630,-420,,,,,,,0x03,
8209,772,91,623,210,-700,-420,,,,,,,0x03,
8219,771,96,628,140,-770,-210,,,,,,,0x03,
8228,773,102,629,490,-980,140,,,,,,,0x03,
8238,773,84,623,-140,-980,280,,,,,,,0x03,
8247,772,87,620,-350,-840,-210,,,,,,,0x03,
8257,768,89,625,-70,-840,-560,,,,,,,0x03,
8267,769,95,623,70,-840,-490,,,,,,,0x03,
8276,770,91,624,-210,-770,-140,,,,,,,0x03,
8286,769,91,627,-490,-840,-210,,,,,,,0x03,
8296,771,86,625,-490,-700,-280,,,,,,,0x03,
8305,770,87,624,-420,-490,-420,,,,,,,0x03,
8315,772,94,624,-280,-490,-420,,,,,,,0x03,
8325,773,92,625,-350,-560,-210,,,,,,,0x03,
8334,775,88,624,-560,-490,-140,,,,,,,0x03,
8344,772,90,624,-630,-560,-140,,,,,,,0x03,
8353,773,91,626,-560,-700,-140,,,,,,,0x03,
8363,772,91,624,-560,-700,-140,,,,,,,0x03,
8373,770,89,627,-560,-700,0,,,,,,,0x03,
8382,767,85,629,-420,-700,-70,,,,,,,0x03,
8392,764,88,628,-210,-700,-140,,,,,,,0x03,
8402,762,89,629,70,-700,-140,,,,,,,0x03,
8411,765,88,629,140,-700,-140,,,,,,,0x03,
8421,770,90,630,420,-700,-70,,,,,,,0x03,
8431,771,89,633,560,-700,-70,,,,,,,0x03,
8440,770,88,636,770,-770,0,,,,,,,0x03,
8450,769,87,632,910,-840,-70,,,,,,,0x03,
8459,768,92,632,1050,-1050,-280,,,,,,,0x03,
8469,768,91,633,980,-1330,-560,,,,,,,0x03,
8479,769,89,629,840,-1400,-630,,,,,,,0x03,
8488,767,88,627,840,-1470,-700,,,,,,,0x03,
8498,768,88,628,1050,-1540,-840,,,,,,,0x03,
8508,768,91,628,1330,-1680,-910,,,,,,,0x03,
8517,769,94,625,1400,-1750,-910,,,,,,,0x03,
8527,770,93,624,1260,-1680,-840,,,,,,,0x03,
8537,772,95,624,770,-1610,-840,,,,,,,0x03,
8546,772,97,625,490,-1470,-770,,,,,,,0x03,
8556,771,96,628,70,-1400,-630,,,,,,,0x03,
8565,772,95,627,-420,-1470,-490,,,,,,,0x03,
8575,772,94,626,-630,-1470,-490,,,,,,,0x03,
8585,772,94,628,-700,-1610,-490,,,,,,,0x03,
8594,772,90,628,-700,-1540,-420,,,,,,,0x03,
8604,773,91,623,-630,-1540,-350,,,,,,,0x03,
8614,772,95,622,-560,-1610,-420,,,,,,,0x03,
8623,773,94,621,-560,-1540,-350,,,,,,,0x03,
8633,774,94,616,-700,-1470,-210,,,,,,,0x03,
8643,777,94,615,-630,-1400,-210,,,,,,,0x03,
8652,777,93,616,-490,-1260,-140,,,,,,,0x03,
8662,776,94,614,-350,-1120,-70,,,,,,,0x03,
8671,774,96,615,-210,-1120,-70,,,,,,,0x03,
8681,772,96,616,-210,-1050,0,,,,,,,0x03,
8691,772,93,616,-280,-910,-70,,,,,,,0x03,
8700,771,90,617,-280,-770,-140,,,,,,,0x03,
8710,771,91,618,-210,-630,-350,,,,,,,0x03,
8720,772,92,619,-140,-490,-420,,,,,,,0x03,
8729,771,90,622,-210,-280,-350,,,,,,,0x03,
8739,773,88,626,-210,-210,-490,,,,,,,0x03,
8748,774,88,626,-210,-280,-560,,,,,,,0x03,
8758,774,92,626,-140,-420,-630,,,,,,,0x03,
8768,774,91,629,-210,-420,-560,,,,,,,0x03,
8777,774,86,632,-350,-490,-420,,,,,,,0x03,
8787,771,91,628,-420,-630,-490,,,,,,,0x03,
8797,771,94,628,-420,-770,-490,,,,,,,0x03,
8806,769,92,630,-630,-910,-350,,,,,,,0x03,
8816,771,91,629,-700,-980,-350,,,,,,,0x03,
8826,768,93,626,-560,-1120,-350,,,,,,,0x03,
8835,770,93,624,-560,-1330,-350,,,,,,,0x03,
8845,769,90,625,-560,-1120,-280,,,,,,,0x03,
8854,769,91,625,-420,-1260,-70,,,,,,,0x03,
8864,770,94,626,-210,-1120,-210,,,,,,,0x03,
8874,771,94,630,-280,-1050,-490,,,,,,,0x03,
8883,771,89,628,-490,-980,-490,,,,,,,0x03,
8893,773,92,623,-490,-1120,-700,,,,,,,0x03,
8903,775,93,621,-350,-1330,-840,,,,,,,0x03,
8912,775,92,621,-210,-1330,-700,,,,,,,0x03,
8922,775,92,619,-140,-1260,-700,,,,,,,0x03,
8932,773,95,619,70,-1260,-700,,,,,,,0x03,
8941,772,95,620,0,-1330,-700,,,,,,,0x03,
8951,771,95,618,-70,-1330,-770,,,,,,,0x03,
8960,772,96,621,0,-1260,-700,,,,,,,0x03,
8970,773,96,622,-70,-1190,-630,,,,,,,0x03,
8980,774,93,623,0,-1120,-490,,,,,,,0x03,
8989,773,92,622,210,-1050,-490,,,,,,,0x03,
8999,772,100,622,350,-1050,-420,,,,,,,0x03,
9009,773,103,623,210,-980,-140,,,,,,,0x03,
9018,774,102,620,-140,-980,140,,,,,,,0x03,
9028,773,102,621,-140,-840,280,,,,,,,0x03,
9038,771,102,621,-210,-770,420,,,,,,,0x03,
9047,771,102,622,-280,-630,560,,,,,,,0x03,
9057,772,101,621,-420,-560,560,,,,,,,0x03,
9066,774,100,620,-420,-630,630,,,,,,,0x03,
9076,775,98,622,-560,-630,630,,,,,,,0x03,
9086,775,95,623,-700,-700,630,,,,,,,0x03,
9095,776,96,621,-840,-770,630,,,,,,,0x03,
9105,775,93,621,-770,-770,490,,,,,,,0x03,
9115,775,89,620,-700,-700,490,,,,,,,0x03,
9124,773,92,619,-490,-770,350,,,,,,,0x03,
9134,773,95,621,-350,-770,280,,,,,,,0x03,
9144,775,95,619,-490,-700,490,,,,,,,0x03,
9153,775,96,617,-630,-700,630,,,,,,,0x03,
9163,775,94,619,-770,-700,630,,,,,,,0x03,
9172,774,94,620,-980,-770,630,,,,,,,0x03,
9182,774,92,620,-1260,-770,700,,,,,,,0x03,
9192,775,87,623,-1400,-770,700,,,,,,,0x03,
9201,775,82,624,-1470,-770,560,,,,,,,0x03,
9211,775,85,623,-1400,-910,420,,,,,,,0x03,
9221,776,88,625,-1330,-1050,490,,,,,,,0x03,
9230,776,84,624,-1330,-1120,630,,,,,,,0x03,
9240,774,81,621,-1400,-1190,560,,,,,,,0x03,
9250,773,81,621,-980,-1120,280,,,,,,,0x03,
9259,771,82,623,-560,-980,210,,,,,,,0x03,
9269,771,89,622,-490,-1120,280,,,,,,,0x03,
9278,772,87,623,-560,-980,280,,,,,,,0x03,
9288,770,84,624,-910,-910,140,,,,,,,0x03,
9298,772,85,624,-980,-770,-70,,,,,,,0x03,
9307,772,82,624,-840,-630,-140,,,,,,,0x03,
9317,771,79,625,-630,-490,-280,,,,,,,0x03,
9327,770,82,623,-140,-490,-350,,,,,,,0x03,
9336,772,86,625,140,-560,-420,,,,,,,0x03,
9346,775,87,623,140,-630,-420,,,,,,,0x03,
9355,774,89,623,140,-770,-420,,,,,,,0x03,
9365,774,87,625,210,-1050,-490,,,,,,,0x03,
9375,775,89,624,280,-1260,-490,,,,,,,0x03,
9384,777,91,624,490,-1400,-420,,,,,,,0x03,
9394,777,90,622,420,-1470,-490,,,,,,,0x03,
9404,776,95,619,210,-1470,-490,,,,,,,0x03,
9413,776,92,621,0,-1470,-420,,,,,,,0x03,
9423,774,87,619,-420,-1400,-350,,,,,,,0x03,
9433,774,88,618,-490,-1330,-420,,,,,,,0x03,
9442,773,88,620,-420,-1260,-420,,,,,,,0x03,
9452,773,89,620,-420,-1120,-420,,,,,,,0x03,
9461,772,86,622,-420,-980,-420,,,,,,,0x03,
9471,773,88,625,-420,-1050,-420,,,,,,,0x03,
9481,772,91,625,-280,-1050,-420,,,,,,,0x03,
9490,771,90,622,-70,-980,-280,,,,,,,0x03,
9500,774,89,620,210,-840,-280,,,,,,,0x03,
9510,774,89,621,560,-770,-210,,,,,,,0x03,
9519,775,91,620,770,-700,-280,,,,,,,0x03,
9529,777,96,616,770,-700,-140,,,,,,,0x03,
9539,777,95,616,490,-630,70,,,,,,,0x03,
9548,776,89,617,140,-560,140,,,,,,,0x03,
9558,775,90,617,70,-560,0,,,,,,,0x03,
9567,775,91,617,210,-490,-140,,,,,,,0x03,
9577,775,88,619,280,-420,-70,,,,,,,0x03,
9587,775,85,622,350,-490,-210,,,,,,,0x03,
9596,774,88,622,560,-490,-490,,,,,,,0x03,
9606,774,91,623,630,-630,-630,,,,,,,0x03,
9616,774,92,624,420,-700,-630,,,,,,,0x03,
9625,776,90,623,280,-700,-770,,,,,,,0x03,
9635,777,91,621,280,-770,-910,,,,,,,0x03,
9645,777,91,619,280,-770,-840,,,,,,,0x03,
9654,776,90,622,70,-770,-770,,,,,,,0x03,
9664,775,87,622,-70,-770,-840,,,,,,,0x03,
9673,775,90,620,0,-770,-840,,,,,,,0x03,
9683,776,92,620,0,-840,-770,,,,,,,0x03,
9693,776,90,620,0,-840,-630,,,,,,,0x03,
9702,776,88,620,-140,-840,-630,,,,,,,0x03,
9712,777,89,620,70,-840,-700,,,,,,,0x03,
9722,776,89,619,70,-770,-700,,,,,,,0x03,
9731,775,93,617,140,-700,-700,,,,,,,0x03,
9741,774,91,618,280,-630,-630,,,,,,,0x03,
9751,774,87,618,280,-490,-560,,,,,,,0x03,
9760,772,87,620,420,-420,-700,,,,,,,0x03,
9770,772,90,620,700,-280,-840,,,,,,,0x03,
9779,773,96,620,910,-280,-840,,,,,,,0x03,
9789,774,99,622,840,-280,-770,,,,,,,0x03,
9799,774,97,621,770,-210,-630,,,,,,,0x03,
9808,776,98,622,770,-210,-560,,,,,,,0x03,
9818,775,99,622,910,-140,-630,,,,,,,0x03,
9828,774,101,621,910,-70,-560,,,,,,,0x03,
9837,773,104,619,770,-70,-350,,,,,,,0x03,
9847,774,102,618,560,-70,-140,,,,,,,0x03,
9857,773,102,616,280,0,-70,,,,,,,0x03,
9866,773,102,617,70,-70,70,,,,,,,0x03,
9876,774,101,619,-70,-70,210,,,,,,,0x03,
9885,774,99,620,-280,-70,280,,,,,,,0x03,
9895,774,100,621,-280,-140,350,,,,,,,0x03,
9905,778,101,620,-420,-140,350,,,,,,,0x03,
9914,778,100,620,-630,-140,420,,,,,,,0x03,
9924,777,96,620,-770,-140,490,,,,,,,0x03,
9934,776,93,617,-840,-70,490,,,,,,,0x03,
9943,776,92,617,-910,-70,350,,,,,,,0x03,
9953,775,91,620,-910,0,280,,,,,,,0x03,
9962,774,89,620,-980,-70,280,,,,,,,0x03,
9972,773,90,620,-1050,-140,210,,,,,,,0x03,
9982,775,88,622,-910,-140,140,,,,,,,0x03,
9991,774,86,623,-840,-140,0,,,,,,,0x03,
10001,773,86,624,-560,-140,0,,,,,,,0x03,
10011,773,85,624,-350,-70,-70,,,,,,,0x03,
10020,773,86,623,-280,-70,-210,,,,,,,0x03,
10030,774,87,620,-210,-70,-140,,,,,,,0x03,
10040,773,86,622,-350,70,-140,,,,,,,0x03,
10049,771,84,625,-560,70,-210,,,,,,,0x03,
10059,771,84,625,-560,0,-350,,,,,,,0x03,
10068,772,85,626,-420,0,-420,,,,,,,0x03,
10078,772,88,624,-210,-70,-490,,,,,,,0x03,
10088,772,90,626,-70,-140,-560,,,,,,,0x03,
10097,771,90,626,70,-70,-560,,,,,,,0x03,
10107,770,91,626,140,-70,-560,,,,,,,0x03,
10117,768,93,627,280,-140,-630,,,,,,,0x03,
10126,767,94,630,420,-280,-630,,,,,,,0x03,
10136,768,97,631,350,-280,-630,,,,,,,0x03,
10146,768,97,630,280,-350,-630,,,,,,,0x03,
10155,769,96,630,350,-490,-490,,,,,,,0x03,
10165,770,95,628,490,-700,-490,,,,,,,0x03,
10174,772,96,625,630,-770,-490,,,,,,,0x03,
10184,772,97,625,770,-910,-490,,,,,,,0x03,
10194,773,97,625,770,-1050,-560,,,,,,,0x03,
10203,772,97,619,700,-1050,-490,,,,,,,0x03,
10213,772,100,620,490,-1050,-350,,,,,,,0x03,
10223,772,100,623,210,-1190,-420,,,,,,,0x03,
10232,774,97,620,0,-1120,-280,,,,,,,0x03,
10242,775,96,618,-210,-1050,-210,,,,,,,0x03,
10252,776,93,619,-210,-1050,-280,,,,,,,0x03,
10261,777,93,618,0,-980,-210,,,,,,,0x03,
10271,776,95,616,70,-910,-70,,,,,,,0x03,
10280,776,94,618,0,-700,0,,,,,,,0x03,
10290,771,90,619,-280,-420,70,,,,,,,0x03,
10300,768,93,619,-280,-280,0,,,,,,,0x03,
10309,768,107,621,0,-210,280,,,,,,,0x03,
10319,772,88,621,-280,-140,700,,,,,,,0x03,
10329,773,84,619,-910,0,420,,,,,,,0x03,
10338,774,97,624,0,70,210,,,,,,,0x03,
10348,777,99,626,420,-70,490,,,,,,,0x03,
10358,774,94,625,-140,-140,700,,,,,,,0x03,
10367,773,93,625,-280,-210,420,,,,,,,0x03,
10377,773,94,625,-210,-210,140,,,,,,,0x03,
10386,772,91,621,-490,-210,70,,,,,,,0x03,
10396,770,91,621,-560,-140,-140,,,,,,,0x03,
10406,770,91,623,-490,-280,-210,,,,,,,0x03,
10415,771,89,624,-420,-280,-210,,,,,,,0x03,
10425,772,88,624,-140,-210,-280,,,,,,,0x03,
10435,770,90,625,-140,-210,-420,,,,,,,0x03,
10444,770,91,628,0,-280,-420,,,,,,,0x03,
10454,770,92,628,0,-350,-490,,,,,,,0x03,
10464,771,92,628,-70,-490,-420,,,,,,,0x03,
10473,771,94,629,70,-630,-420,,,,,,,0x03,
10483,770,96,628,-70,-840,-420,,,,,,,0x03,
10492,772,96,627,-560,-1050,-280,,,,,,,0x03,
10502,771,94,628,-980,-1120,-280,,,,,,,0x03,
10512,774,88,626,-910,-1190,-350,,,,,,,0x03,
10521,775,88,622,-700,-1190,-420,,,,,,,0x03,
10531,776,89,622,-140,-1190,-420,,,,,,,0x03,
10541,775,91,618,70,-1120,-280,,,,,,,0x03,
10550,775,90,616,0,-910,-350,,,,,,,0x03,
10560,772,91,614,-140,-700,-490,,,,,,,0x03,
10569,769,95,617,-420,-700,-490,,,,,,,0x03,
10579,769,95,621,-700,-630,-490,,,,,,,0x03,
10589,769,90,626,-840,-490,-420,,,,,,,0x03,
10598,773,95,626,-490,-490,-490,,,,,,,0x03,
10608,773,93,631,-140,-560,-280,,,,,,,0x03,
10618,773,100,629,140,-700,-350,,,,,,,0x03,
10627,773,98,628,280,-840,-140,,,,,,,0x03,
10637,774,96,623,140,-910,-210,,,,,,,0x03,
10647,774,98,620,70,-980,-350,,,,,,,0x03,
10656,772,98,619,-210,-840,-280,,,,,,,0x03,
10666,772,95,618,-490,-770,-210,,,,,,,0x03,
10675,771,94,618,-770,-770,-210,,,,,,,0x03,
10685,770,94,620,-770,-700,-210,,,,,,,0x03,
10695,773,95,620,-630,-630,-140,,,,,,,0x03,
10704,774,94,623,-490,-490,-140,,,,,,,0x03,
10714,773,93,624,-210,-420,-70,,,,,,,0x03,
10724,773,106,622,140,-420,70,,,,,,,0x03,
10733,774,95,620,70,-210,490,,,,,,,0x03,
10743,771,86,620,-560,-70,280,,,,,,,0x03,
10753,769,93,624,-350,-140,-140,,,,,,,0x03,
10762,770,95,627,-70,-350,-210,,,,,,,0x03,
10772,772,90,626,-350,-280,-70,,,,,,,0x03,
10781,772,87,626,-420,-350,-140,,,,,,,0x03,
10791,772,89,626,0,-420,-350,,,,,,,0x03,
10801,773,93,625,280,-420,-350,,,,,,,0x03,
10810,773,95,625,350,-420,-350,,,,,,,0x03,
10820,771,93,623,280,-420,-210,,,,,,,0x03,
10830,771,98,622,140,-420,-210,,,,,,,0x03,
10839,772,97,622,70,-350,-140,,,,,,,0x03,
10849,772,93,622,-210,-210,0,,,,,,,0x03,
10859,771,93,622,-420,-210,70,,,,,,,0x03,
10868,772,92,623,-490,-280,70,,,,,,,0x03,
10878,772,90,624,-490,-280,140,,,,,,,0x03,
10887,772,89,626,-490,-280,140,,,,,,,0x03,
10897,773,88,628,-420,-350,70,,,,,,,0x03,
10907,771,87,630,-350,-490,70,,,,,,,0x03,
10916,771,88,631,-280,-630,-140,,,,,,,0x03,
10926,772,89,631,-70,-700,-210,,,,,,,0x03,
10936,771,90,628,70,-910,-350,,,,,,,0x03,
10945,774,91,625,140,-980,-420,,,,,,,0x03,
10955,772,93,622,70,-980,-420,,,,,,,0x03,
10965,771,93,621,70,-1050,-490,,,,,,,0x03,
10974,771,94,621,0,-1050,-490,,,,,,,0x03,
10984,770,94,622,-140,-980,-490,,,,,,,0x03,
10993,767,95,624,-210,-910,-420,,,,,,,0x03,
11003,768,95,626,-70,-910,-350,,,,,,,0x03,
11013,772,94,626,0,-840,-280,,,,,,,0x03,
11022,773,95,626,140,-770,-280,,,,,,,0x03,
11032,774,97,626,350,-840,-280,,,,,,,0x03,
11042,773,99,626,420,-910,-210,,,,,,,0x03,
11051,772,99,624,280,-1050,-280,,,,,,,0x03,
11061,772,97,622,70,-1050,-420,,,,,,,0x03,
11071,771,96,622,0,-1050,-490,,,,,,,0x03,
11080,768,95,621,-140,-1120,-490,,,,,,,0x03,
11090,767,95,620,-140,-1190,-490,,,,,,,0x03,
11099,769,96,621,70,-1120,-420,,,,,,,0x03,
11109,771,95,623,140,-1120,-280,,,,,,,0x03,
11119,771,94,622,140,-980,-280,,,,,,,0x03,
11128,772,95,623,140,-840,-210,,,,,,,0x03,
11138,771,91,626,70,-770,-210,,,,,,,0x03,
11148,772,88,627,0,-700,-210,,,,,,,0x03,
11157,773,90,629,140,-770,-350,,,,,,,0x03,
11167,774,90,629,280,-840,-350,,,,,,,0x03,
11176,772,91,627,140,-910,-280,,,,,,,0x03,
11186,769,92,626,0,-980,-280,,,,,,,0x03,
11196,770,92,627,70,-1050,-350,,,,,,,0x03,
11205,771,94,624,210,-1050,-420,,,,,,,0x03,
11215,772,91,624,210,-1050,-210,,,,,,,0x03,
11225,775,85,622,210,-1120,-420,,,,,,,0x03,
11234,778,95,619,770,-1190,-770,,,,,,,0x03,
11244,775,98,624,980,-1190,-350,,,,,,,0x03,
11254,770,93,622,420,-1400,-420,,,,,,,0x03,
11263,772,94,619,210,-1470,-700,,,,,,,0x03,
11273,773,93,622,140,-1330,-840,,,,,,,0x03,
11282,772,92,621,210,-1260,-770,,,,,,,0x03,
11292,773,92,620,420,-1120,-770,,,,,,,0x03,
11302,772,92,623,560,-1050,-770,,,,,,,0x03,
11311,772,93,623,630,-1050,-770,,,,,,,0x03,
11321,776,95,618,700,-1050,-910,,,,,,,0x03,
11331,776,100,618,140,-980,-770,,,,,,,0x03,
11340,774,92,621,-280,-1050,-910,,,,,,,0x03,
11350,775,91,617,0,-980,-1120,,,,,,,0x03,
11360,776,94,616,280,-840,-1050,,,,,,,0x03,
11369,772,100,624,630,-910,-910,,,,,,,0x03,
11379,771,97,624,1050,-980,-910,,,,,,,0x03,
11388,775,99,620,1050,-910,-840,,,,,,,0x03,
11398,775,103,620,1190,-980,-770,,,,,,,0x03,
11408,774,103,621,1330,-910,-630,,,,,,,0x03,
11417,775,103,619,1050,-840,-560,,,,,,,0x03,
11427,775,106,620,700,-840,-420,,,,,,,0x03,
11437,773,104,621,280,-840,-350,,,,,,,0x03,
11446,772,105,621,0,-770,-350,,,,,,,0x03,
11456,772,105,620,-140,-770,-210,,,,,,,0x03,
11466,771,105,619,-420,-630,-140,,,,,,,0x03,
11475,772,103,618,-560,-560,-70,,,,,,,0x03,
11485,774,103,620,-560,-630,70,,,,,,,0x03,
11494,775,105,622,-490,-630,210,,,,,,,0x03,
11504,774,104,623,-630,-630,280,,,,,,,0x03,
11514,776,104,621,-700,-630,280,,,,,,,0x03,
11523,776,101,621,-840,-630,280,,,,,,,0x03,
11533,773,96,622,-770,-630,280,,,,,,,0x03,
11543,773,98,620,-700,-630,210,,,,,,,0x03,
11552,773,99,621,-700,-700,140,,,,,,,0x03,
11562,773,96,623,-980,-840,70,,,,,,,0x03,
11572,773,95,619,-980,-910,0,,,,,,,0x03,
11581,775,95,619,-700,-980,-70,,,,,,,0x03,
11591,775,94,621,-700,-980,-70,,,,,,,0x03,
11600,774,94,620,-630,-980,-70,,,,,,,0x03,
11610,773,95,622,-560,-910,-70,,,,,,,0x03,
11620,772,94,622,-490,-910,-70,,,,,,,0x03,
11629,772,95,623,-420,-840,0,,,,,,,0x03,
11639,773,92,625,-280,-840,0,,,,,,,0x03,
11649,771,89,624,-280,-770,-70,,,,,,,0x03,
11658,772,89,622,-140,-840,-140,,,,,,,0x03,
11668,773,92,622,-70,-840,-280,,,,,,,0x03,
11677,775,90,623,-140,-770,-210,,,,,,,0x03,
11687,774,88,624,-210,-770,-280,,,,,,,0x03,
11697,773,91,625,0,-770,-350,,,,,,,0x03,
11706,773,95,623,210,-840,-350,,,,,,,0x03,
11716,772,95,621,420,-840,-280,,,,,,,0x03,
11726,771,97,623,560,-840,-140,,,,,,,0x03,
11735,772,103,623,630,-910,-140,,,,,,,0x03,
11745,774,102,622,630,-910,0,,,,,,,0x03,
11755,773,101,620,280,-840,70,,,,,,,0x03,
11764,771,102,622,0,-910,-70,,,,,,,0x03,
11774,772,101,621,-280,-910,-140,,,,,,,0x03,
11783,772,101,621,-490,-840,-210,,,,,,,0x03,
11793,774,99,622,-560,-840,-350,,,,,,,0x03,
11803,775,101,621,-560,-980,-280,,,,,,,0x03,
11812,777,104,619,-490,-1120,-350,,,,,,,0x03,
11822,778,101,619,-420,-1050,-280,,,,,,,0x03,
11832,779,98,617,-490,-1050,-280,,,,,,,0x03,
11841,777,103,616,-140,-1050,-350,,,,,,,0x03,
11851,775,101,614,-210,-980,-70,,,,,,,0x03,
11861,774,98,613,-420,-1050,0,,,,,,,0x03,
11870,775,98,612,-490,-910,0,,,,,,,0x03,
11880,775,97,612,-490,-770,0,,,,,,,0x03,
11889,773,98,615,-630,-630,70,,,,,,,0x03,
11899,773,94,618,-700,-490,140,,,,,,,0x03,
11909,775,92,620,-630,-350,70,,,,,,,0x03,
11918,777,93,622,-420,-420,70,,,,,,,0x03,
11928,776,97,624,-210,-420,70,,,,,,,0x03,
11938,773,96,626,-140,-490,70,,,,,,,0x03,
11947,770,94,626,-280,-560,0,,,,,,,0x03,
11957,771,97,625,-280,-700,-140,,,,,,,0x03,
11967,772,96,624,-140,-910,-140,,,,,,,0x03,
11976,774,93,624,-210,-910,0,,,,,,,0x03,
11986,774,93,621,-350,-980,0,,,,,,,0x03,
11995,774,95,622,-350,-1190,0,,,,,,,0x03,
12005,774,90,623,-420,-1120,0,,,,,,,0x03,
12015,775,87,623,-490,-1120,-70,,,,,,,0x03,
12024,774,89,620,-280,-1050,-210,,,,,,,0x03,
12034,774,91,620,-140,-1050,-280,,,,,,,0x03,
12044,776,89,620,-140,-980,-420,,,,,,,0x03,
12053,777,92,617,-280,-980,-420,,,,,,,0x03,
12063,777,95,616,-420,-840,-490,,,,,,,0x03,
12073,777,93,617,-630,-770,-560,,,,,,,0x03,
12082,776,92,617,-630,-630,-490,,,,,,,0x03,
12092,776,92,618,-350,-630,-490,,,,,,,0x03,
12101,774,95,618,-70,-560,-560,,,,,,,0x03,
12111,773,98,621,140,-630,-560,,,,,,,0x03,
12121,774,97,619,210,-700,-560,,,,,,,0x03,
12130,774,97,619,350,-560,-560,,,,,,,0x03,
12140,774,99,618,490,-560,-700,,,,,,,0x03,
12150,776,100,615,560,-490,-700,,,,,,,0x03,
12159,773,99,615,420,-280,-630,,,,,,,0x03,
12169,772,101,617,210,-210,-700,,,,,,,0x03,
12179,772,102,619,210,-280,-630,,,,,,,0x03,
12188,773,102,620,140,-280,-560,,,,,,,0x03,
12198,775,103,620,0,-280,-490,,,,,,,0x03,
12207,775,102,620,70,-280,-420,,,,,,,0x03,
12217,774,105,620,140,-210,-420,,,,,,,0x03,
12227,773,104,620,70,-140,-350,,,,,,,0x03,
12236,772,101,621,-140,-140,-210,,,,,,,0x03,
12246,772,102,620,-350,-140,-210,,,,,,,0x03,
12256,775,100,622,-420,-70,-140,,,,,,,0x03,
12265,774,96,623,-560,0,-70,,,,,,,0x03,
12275,774,98,623,-560,-210,0,,,,,,,0x03,
12284,775,97,622,-420,-210,0,,,,,,,0x03,
12294,775,96,622,-350,-210,70,,,,,,,0x03,
12304,775,96,623,-350,-350,70,,,,,,,0x03,
12313,775,97,622,-210,-490,0,,,,,,,0x03,
12323,776,96,621,-280,-560,0,,,,,,,0x03,
12333,776,97,618,-350,-560,0,,,,,,,0x03,
12342,775,100,618,-420,-490,0,,,,,,,0x03,
12352,773,98,621,-630,-490,0,,,,,,,0x03,
12362,770,96,621,-700,-490,-70,,,,,,,0x03,
12371,769,98,620,-560,-420,0,,,,,,,0x03,
12381,772,96,621,-420,-280,0,,,,,,,0x03,
12390,774,95,624,-420,-350,70,,,,,,,0x03,
12400,776,96,622,-280,-420,70,,,,,,,0x03,
12410,777,94,623,-70,-490,70,,,,,,,0x03,
12419,776,92,622,70,-560,-70,,,,,,,0x03,
12429,774,94,619,140,-700,-210,,,,,,,0x03,
12439,773,96,620,70,-630,-350,,,,,,,0x03,
12448,770,95,620,-140,-490,-420,,,,,,,0x03,
12458,769,96,621,-350,-420,-420,,,,,,,0x03,
12468,769,92,622,-350,-280,-420,,,,,,,0x03,
12477,770,92,620,-140,-140,-280,,,,,,,0x03,
12487,772,92,621,140,0,-210,,,,,,,0x03,
12496,774,96,623,560,0,-210,,,,,,,0x03,
12506,777,98,623,560,-70,0,,,,,,,0x03,
12516,777,97,622,350,-140,-140,,,,,,,0x03,
12525,776,99,622,210,-210,-210,,,,,,,0x03,
12535,773,100,624,0,-350,-280,,,,,,,0x03,
12545,772,100,623,-70,-420,-210,,,,,,,0x03,
12554,772,99,623,-210,-490,-210,,,,,,,0x03,
12564,772,98,622,-280,-560,-210,,,,,,,0x03,
12574,771,99,621,-350,-560,-210,,,,,,,0x03,
12583,776,101,620,-280,-700,-210,,,,,,,0x03,
12593,777,100,620,-210,-770,0,,,,,,,0x03,
12602,775,97,618,-350,-700,-70,,,,,,,0x03,
12612,772,96,620,-280,-560,-210,,,,,,,0x03,
12622,771,97,618,-210,-490,-350,,,,,,,0x03,
12631,770,100,619,-210,-420,-350,,,,,,,0x03,
12641,772,101,619,-280,-490,-280,,,,,,,0x03,
12651,771,101,620,-350,-420,-280,,,,,,,0x03,
12660,774,100,619,-420,-420,-280,,,,,,,0x03,
12670,776,101,620,-280,-420,-210,,,,,,,0x03,
12680,776,99,620,-280,-420,-140,,,,,,,0x03,
12689,776,98,618,-280,-420,-140,,,,,,,0x03,
12699,774,100,619,-420,-350,-70,,,,,,,0x03,
12708,773,97,621,-560,-280,70,,,,,,,0x03,
12718,771,94,620,-770,-210,140,,,,,,,0x03,
12728,770,96,623,-700,-280,140,,,,,,,0x03,
12737,770,95,627,-560,-280,210,,,,,,,0x03,
12747,770,93,627,-560,-280,280,,,,,,,0x03,
12757,772,95,627,-420,-350,280,,,,,,,0x03,
12766,772,94,627,-280,-420,210,,,,,,,0x03,
12776,771,93,627,-210,-490,140,,,,,,,0x03,
12786,771,92,625,-140,-490,70,,,,,,,0x03,
12795,771,92,623,-70,-560,0,,,,,,,0x03,
12805,770,92,624,-140,-630,-70,,,,,,,0x03,
12814,772,92,624,-70,-840,-210,,,,,,,0x03,
12824,770,94,623,70,-910,-210,,,,,,,0x03,
12834,770,94,625,70,-1050,-280,,,,,,,0x03,
12843,771,94,629,0,-1050,-420,,,,,,,0x03,
12853,772,95,625,70,-980,-490,,,,,,,0x03,
12863,772,98,624,0,-1120,-490,,,,,,,0x03,
12872,772,99,627,-70,-1190,-630,,,,,,,0x03,
12882,772,95,627,-140,-1190,-560,,,,,,,0x03,
12891,770,94,625,-70,-1120,-560,,,,,,,0x03,
12901,770,95,623,210,-1190,-630,,,,,,,0x03,
12911,771,96,623,280,-1190,-560,,,,,,,0x03,
12920,773,95,623,350,-1190,-560,,,,,,,0x03,
12930,773,91,622,350,-1190,-560,,,,,,,0x03,
12940,773,88,621,560,-1050,-770,,,,,,,0x03,
12949,776,93,618,840,-910,-840,,,,,,,0x03,
12959,774,98,617,840,-980,-770,,,,,,,0x03,
12969,775,99,619,560,-1050,-770,,,,,,,0x03,
12978,776,100,619,350,-980,-840,,,,,,,0x03,
12988,774,100,622,210,-980,-770,,,,,,,0x03,
12997,772,100,622,70,-1050,-770,,,,,,,0x03,
13007,773,100,620,210,-1050,-840,,,,,,,0x03,
13017,776,101,619,280,-1050,-700,,,,,,,0x03,
13026,777,103,619,210,-980,-630,,,,,,,0x03,
13036,777,103,617,-70,-980,-560,,,,,,,0x03,
13046,774,99,616,-140,-910,-560,,,,,,,0x03,
13055,772,97,617,-210,-770,-630,,,,,,,0x03,
13065,772,94,615,-70,-630,-630,,,,,,,0x03,
13075,773,100,613,70,-420,-630,,,,,,,0x03,
13084,774,102,614,70,-280,-490,,,,,,,0x03,
13094,775,100,616,-140,-140,-420,,,,,,,0x03,
13103,777,99,615,0,0,-420,,,,,,,0x03,
13113,778,103,614,70,70,-420,,,,,,,0x03,
13123,777,102,616,0,210,-420,,,,,,,0x03,
13132,775,101,617,-70,280,-350,,,,,,,0x03,
13142,775,102,618,-70,420,-420,,,,,,,0x03,
13152,774,101,618,0,420,-490,,,,,,,0x03,
13161,774,99,616,0,490,-420,,,,,,,0x03,
13171,773,100,615,-70,630,-490,,,,,,,0x03,
13181,773,101,616,0,700,-560,,,,,,,0x03,
13190,771,103,617,70,840,-420,,,,,,,0x03,
13200,770,105,619,70,840,-420,,,,,,,0x03,
13209,771,106,624,-70,910,-280,,,,,,,0x03,
13219,773,101,628,-140,840,-280,,,,,,,0x03,
13229,772,106,631,-280,700,-210,,,,,,,0x03,
13238,770,107,634,-420,420,-70,,,,,,,0x03,
13248,769,102,636,-700,280,-140,,,,,,,0x03,
13258,767,102,635,-910,140,-140,,,,,,,0x03,
13267,765,105,636,-840,-210,-140,,,,,,,0x03,
13277,764,105,636,-910,-350,0,,,,,,,0x03,
13287,764,106,633,-1120,-560,140,,,,,,,0x03,
13296,765,107,634,-1120,-770,350,,,,,,,0x03,
13306,768,106,631,-1120,-980,700,,,,,,,0x03,
13315,769,107,628,-980,-1050,840,,,,,,,0x03,
13325,770,103,627,-840,-1120,980,,,,,,,0x03,
13335,769,99,625,-910,-1120,1050,,,,,,,0x03,
13344,770,101,620,-840,-1190,980,,,,,,,0x03,
13354,771,100,619,-840,-1120,910,,,,,,,0x03,
13364,771,96,619,-1050,-980,840,,,,,,,0x03,
13373,769,96,619,-1120,-910,700,,,,,,,0x03,
13383,770,96,620,-1050,-910,560,,,,,,,0x03,
13393,772,95,621,-910,-840,420,,,,,,,0x03,
13402,773,94,620,-700,-700,350,,,,,,,0x03,
13412,776,92,618,-490,-630,420,,,,,,,0x03,
13421,775,93,619,-350,-560,420,,,,,,,0x03,
13431,776,94,620,-140,-560,420,,,,,,,0x03,
13441,775,93,620,-210,-490,490,,,,,,,0x03,
13450,774,91,621,-490,-490,420,,,,,,,0x03,
13460,775,91,620,-560,-420,280,,,,,,,0x03,
13470,773,93,622,-630,-420,280,,,,,,,0x03,
13479,774,90,622,-840,-420,350,,,,,,,0x03,
13489,773,90,623,-840,-280,280,,,,,,,0x03,
13498,772,91,624,-560,-210,210,,,,,,,0x03,
13508,771,94,621,-420,-70,210,,,,,,,0x03,
13518,771,97,623,-420,-140,210,,,,,,,0x03,
13527,773,94,623,-350,-70,210,,,,,,,0x03,
13537,774,95,622,-420,-70,280,,,,,,,0x03,
13547,773,100,623,-560,-210,70,,,,,,,0x03,
13556,774,100,625,-630,-280,70,,,,,,,0x03,
13566,772,97,624,-770,-280,140,,,,,,,0x03,
13576,771,95,624,-700,-350,70,,,,,,,0x03,
13585,770,97,625,-490,-420,0,,,,,,,0x03,
13595,769,100,623,-280,-350,70,,,,,,,0x03,
13604,768,99,625,-350,-350,140,,,,,,,0x03,
13614,767,97,628,-420,-420,140,,,,,,,0x03,
13624,769,98,626,-420,-350,140,,,,,,,0x03,
13633,770,100,627,-420,-280,210,,,,,,,0x03,
13643,769,97,628,-630,-280,210,,,,,,,0x03,
13653,767,95,628,-770,-280,280,,,,,,,0x03,
13662,768,96,628,-700,-420,210,,,,,,,0x03,
13672,769,99,628,-560,-420,280,,,,,,,0x03,
13682,770,102,628,-630,-630,560,,,,,,,0x03,
13691,771,93,629,-910,-840,700,,,,,,,0x03,
13701,772,92,626,-770,-910,630,,,,,,,0x03,
13710,775,97,626,-420,-1050,560,,,,,,,0x03,
13720,774,94,625,-350,-1050,630,,,,,,,0x03,
13730,771,90,624,-630,-980,560,,,,,,,0x03,
13739,770,93,622,-840,-910,350,,,,,,,0x03,
13749,769,93,622,-910,-840,280,,,,,,,0x03,
13759,771,93,623,-1050,-840,280,,,,,,,0x03,
13768,771,93,624,-1120,-840,280,,,,,,,0x03,
13778,772,92,623,-1120,-770,280,,,,,,,0x03,
13788,770,92,624,-980,-700,350,,,,,,,0x03,
13797,770,92,624,-910,-700,280,,,,,,,0x03,
13807,768,91,623,-840,-630,350,,,,,,,0x03,
13816,769,91,625,-840,-630,420,,,,,,,0x03,
13826,770,90,625,-840,-630,350,,,,,,,0x03,
13836,771,93,625,-840,-700,280,,,,,,,0x03,
13845,773,93,625,-840,-770,350,,,,,,,0x03,
13855,773,91,625,-910,-770,350,,,,,,,0x03,
13865,772,90,625,-980,-840,350,,,,,,,0x03,
13874,773,90,626,-910,-770,280,,,,,,,0x03,
13884,770,88,627,-770,-700,280,,,,,,,0x03,
13894,768,89,623,-770,-700,210,,,,,,,0x03,
13903,769,90,623,-630,-700,280,,,,,,,0x03,
13913,771,88,623,-560,-560,280,,,,,,,0x03,
13922,769,89,622,-420,-560,280,,,,,,,0x03,
13932,770,91,625,-210,-490,280,,,,,,,0x03,
13942,769,92,628,-140,-490,350,,,,,,,0x03,
13951,768,91,629,-280,-420,280,,,,,,,0x03,
13961,771,91,628,-280,-490,210,,,,,,,0x03,
13971,772,92,627,-490,-630,280,,,,,,,0x03,
13980,771,92,627,-560,-700,210,,,,,,,0x03,
13990,771,91,629,-630,-770,280,,,,,,,0x03,
14000,770,90,628,-770,-910,350,,,,,,,0x03,
14009,770,91,628,-770,-1120,350,,,,,,,0x03,
14019,770,89,628,-840,-1190,350,,,,,,,0x03,
14028,772,90,627,-910,-1260,280,,,,,,,0x03,
14038,772,89,623,-910,-1330,280,,,,,,,0x03,
14048,772,87,623,-980,-1330,280,,,,,,,0x03,
14057,773,85,623,-910,-1260,350,,,,,,,0x03,
14067,773,87,622,-770,-1260,210,,,,,,,0x03,
14077,776,86,620,-560,-1260,280,,,,,,,0x03,
14086,775,86,619,-630,-1260,210,,,,,,,0x03,
14096,774,87,620,-560,-1260,70,,,,,,,0x03,
14105,775,88,620,-630,-1260,0,,,,,,,0x03,
14115,773,86,620,-770,-1120,-70,,,,,,,0x03,
14125,772,84,620,-700,-1050,-280,,,,,,,0x03,
14134,770,83,621,-560,-910,-420,,,,,,,0x03,
14144,770,84,623,-350,-840,-490,,,,,,,0x03,
14154,772,86,622,-280,-770,-560,,,,,,,0x03,
14163,773,86,621,-140,-700,-560,,,,,,,0x03,
14173,773,85,624,-210,-630,-630,,,,,,,0x03,
14183,772,85,626,-140,-560,-700,,,,,,,0x03,
14192,772,88,626,-70,-560,-630,,,,,,,0x03,
14202,770,90,628,70,-630,-630,,,,,,,0x03,
14211,769,90,631,70,-700,-630,,,,,,,0x03,
14221,769,90,629,0,-770,-490,,,,,,,0x03,
14231,770,93,627,0,-980,-420,,,,,,,0x03,
14240,770,92,630,0,-1120,-350,,,,,,,0x03,
14250,773,88,627,-140,-1260,-350,,,,,,,0x03,
14260,775,89,623,70,-1330,-350,,,,,,,0x03,
14269,772,89,625,350,-1330,-280,,,,,,,0x03,
14279,771,88,625,280,-1400,-280,,,,,,,0x03,
14289,770,90,622,350,-1330,-350,,,,,,,0x03,
14298,771,94,622,420,-1400,-280,,,,,,,0x03,
14308,772,89,623,280,-1330,-280,,,,,,,0x03,
14317,771,88,621,280,-1330,-280,,,,,,,0x03,
14327,773,91,621,420,-1260,-420,,,,,,,0x03,
14337,774,91,621,420,-1260,-280,,,,,,,0x03,
14346,774,93,621,350,-1260,-280,,,,,,,0x03,
14356,775,96,621,280,-1330,-350,,,,,,,0x03,
14366,776,96,620,70,-1260,-280,,,,,,,0x03,
14375,775,95,620,-210,-1260,-280,,,,,,,0x03,
14385,774,93,620,-210,-1260,-210,,,,,,,0x03,
14395,772,93,620,-280,-1120,-210,,,,,,,0x03,
14404,772,91,620,-350,-1120,-140,,,,,,,0x03,
14414,774,91,620,-420,-1190,-70,,,,,,,0x03,
14423,776,88,622,-420,-1190,0,,,,,,,0x03,
14433,777,85,622,-350,-1050,-70,,,,,,,0x03,
14443,777,85,623,-210,-1050,-70,,,,,,,0x03,
14452,776,86,621,-70,-980,-70,,,,,,,0x03,
14462,775,88,620,-210,-980,-140,,,,,,,0x03,
14472,772,88,621,-350,-1050,-140,,,,,,,0x03,
14481,772,85,621,-420,-910,-210,,,,,,,0x03,
14491,772,87,622,-420,-770,-280,,,,,,,0x03,
14501,772,88,622,-280,-770,-280,,,,,,,0x03,
14510,771,88,624,-70,-840,-350,,,,,,,0x03,
14520,774,89,624,0,-910,-350,,,,,,,0x03,
14529,775,91,623,70,-980,-350,,,,,,,0x03,
14539,775,90,622,70,-1050,-280,,,,,,,0x03,
14549,773,89,623,140,-1120,-280,,,,,,,0x03,
14558,772,88,620,210,-1190,-350,,,,,,,0x03,
14568,772,92,622,350,-1330,-350,,,,,,,0x03,
14578,774,91,624,420,-1330,-420,,,,,,,0x03,
14587,775,90,622,210,-1330,-490,,,,,,,0x03,
14597,776,95,618,70,-1330,-560,,,,,,,0x03,
14607,776,97,619,-210,-1330,-560,,,,,,,0x03,
14616,775,94,616,-560,-1260,-420,,,,,,,0x03,
14626,774,95,614,-560,-1050,-420,,,,,,,0x03,
14635,774,93,617,-490,-980,-350,,,,,,,0x03,
14645,771,91,619,-560,-910,-280,,,,,,,0x03,
14655,771,89,622,-560,-840,-210,,,,,,,0x03,
14664,772,86,623,-490,-840,-140,,,,,,,0x03,
14674,773,84,624,-280,-770,-210,,,,,,,0x03,
14684,774,82,624,0,-770,-420,,,,,,,0x03,
14693,774,87,624,280,-910,-490,,,,,,,0x03,
14703,776,89,623,490,-980,-560,,,,,,,0x03,
14712,776,90,622,420,-1050,-490,,,,,,,0x03,
14722,775,91,621,280,-1050,-490,,,,,,,0x03,
14732,775,96,618,280,-980,-490,,,,,,,0x03,
14741,775,96,619,140,-1050,-350,,,,,,,0x03,
14751,771,101,623,-70,-1120,-210,,,,,,,0x03,
14761,774,114,627,700,-1330,280,,,,,,,0x03,
14770,773,91,623,-210,-1330,770,,,,,,,0x03,
14780,777,89,618,-280,-1120,420,,,,,,,0x03,
14790,773,78,619,-350,-1120,70,,,,,,,0x03,
14799,777,88,614,140,-980,-560,,,,,,,0x03,
14809,775,91,617,490,-840,-350,,,,,,,0x03,
14818,777,91,617,-140,-980,-350,,,,,,,0x03,
14828,776,85,618,-700,-770,-490,,,,,,,0x03,
14838,775,90,619,-770,-770,-770,,,,,,,0x03,
14847,777,97,617,-490,-840,-770,,,,,,,0x03,
14857,779,95,618,-350,-840,-560,,,,,,,0x03,
14867,779,93,616,-350,-770,-420,,,,,,,0x03,
14876,780,94,616,-280,-700,-350,,,,,,,0x03,
14886,778,91,618,-280,-630,-280,,,,,,,0x03,
14896,775,87,619,-350,-630,-210,,,,,,,0x03,
14905,775,90,616,-420,-560,-210,,,,,,,0x03,
14915,776,92,616,-630,-700,-140,,,,,,,0x03,
14924,777,91,620,-840,-630,-140,,,,,,,0x03,
14934,776,88,620,-910,-630,-70,,,,,,,0x03,
14944,775,89,620,-700,-630,-140,,,,,,,0x03,
14953,775,89,621,-350,-560,-280,,,,,,,0x03,
14963,777,90,621,-70,-630,-350,,,,,,,0x03,
14973,777,92,618,70,-560,-280,,,,,,,0x03,
14982,776,95,616,70,-560,-350,,,,,,,0x03,
14992,774,94,617,-140,-560,-280,,,,,,,0x03,
15002,773,92,618,-350,-490,-280,,,,,,,0x03,
15011,773,92,621,-210,-420,-350,,,,,,,0x03,
15021,773,92,619,-210,-280,-420,,,,,,,0x03,
15030,774,91,619,-140,-210,-350,,,,,,,0x03,
15040,774,96,617,-140,-140,-350,,,,,,,0x03,
15050,777,94,618,-140,-140,-210,,,,,,,0x03,
15059,779,89,618,-210,-70,-140,,,,,,,0x03,
15069,778,91,619,-70,-70,-210,,,,,,,0x03,
15079,776,91,621,0,-70,-350,,,,,,,0x03,
15088,775,91,620,-210,-70,-280,,,,,,,0x03,
15098,773,92,621,-490,-140,-210,,,,,,,0x03,
15108,773,90,622,-700,-140,-280,,,,,,,0x03,
15117,772,87,622,-840,-140,-210,,,,,,,0x03,
15127,772,86,622,-630,-70,-280,,,,,,,0x03,
15136,771,85,621,-350,0,-210,,,,,,,0x03,
15146,772,83,622,-70,70,-210,,,,,,,0x03,
15156,772,83,625,140,0,-420,,,,,,,0x03,
15165,772,81,627,350,70,-560,,,,,,,0x03,
15175,771,81,626,420,-70,-700,,,,,,,0x03,
15185,773,81,628,560,-140,-980,,,,,,,0x03,
15194,775,80,627,630,-210,-1190,,,,,,,0x03,
15204,776,85,623,770,-350,-1400,,,,,,,0x03,
15214,776,90,623,980,-490,-1400,,,,,,,0x03,
15223,775,92,624,1050,-560,-1400,,,,,,,0x03,
15233,774,94,622,1120,-700,-1330,,,,,,,0x03,
15242,773,98,620,1190,-700,-1260,,,,,,,0x03,
15252,773,99,623,1190,-770,-1190,,,,,,,0x03,
15262,773,96,622,1190,-840,-1050,,,,,,,0x03,
15271,774,99,619,1330,-840,-1050,,,,,,,0x03,
15281,774,100,618,1400,-770,-910,,,,,,,0x03,
15291,772,103,619,1330,-700,-840,,,,,,,0x03,
15300,770,104,620,1120,-700,-700,,,,,,,0x03,
15310,772,105,619,840,-630,-700,,,,,,,0x03,
15319,773,107,621,560,-560,-630,,,,,,,0x03,
15329,772,109,624,420,-560,-560,,,,,,,0x03,
15339,772,107,623,210,-700,-420,,,,,,,0x03,
15348,775,110,619,70,-840,-280,,,,,,,0x03,
15358,777,112,619,-70,-910,-210,,,,,,,0x03,
15368,776,108,618,-350,-980,70,,,,,,,0x03,
15377,775,107,616,-770,-980,210,,,,,,,0x03,
15387,772,104,615,-980,-840,350,,,,,,,0x03,
15397,772,99,617,-1190,-770,560,,,,,,,0x03,
15406,772,95,617,-1400,-700,560,,,,,,,0x03,
15416,774,91,616,-1260,-490,560,,,,,,,0x03,
15425,775,89,617,-1050,-420,630,,,,,,,0x03,
15435,776,88,620,-980,-280,630,,,,,,,0x03,
15445,776,84,621,-910,-210,630,,,,,,,0x03,
15454,776,81,623,-840,-140,490,,,,,,,0x03,
15464,775,83,620,-560,0,350,,,,,,,0x03,
15474,772,86,621,-210,0,280,,,,,,,0x03,
15483,773,87,622,-140,0,140,,,,,,,0x03,
15493,771,91,621,-350,0,140,,,,,,,0x03,
15503,771,92,622,-350,0,0,,,,,,,0x03,
15512,771,92,624,-350,0,-70,,,,,,,0x03,
15522,773,95,622,-210,-70,-70,,,,,,,0x03,
15531,774,97,622,0,-140,0,,,,,,,0x03,
15541,775,95,622,0,-210,0,,,,,,,0x03,
15551,775,93,622,-70,-210,-70,,,,,,,0x03,
15560,775,94,621,0,-280,-70,,,,,,,0x03,
15570,773,96,622,-70,-280,-70,,,,,,,0x03,
