#Format version: 1.0
time[ms],accX[mg],accY[mg],accZ[mg],gyroX[mdps],gyroY[mdps],gyroZ[mdps],magnX[mG],magnY[mG],magnZ[mG],press[hPa],temp[°C],hum[0,786,-189,587,-910,-770,280,,,,,,,0x03,
10,785,-189,588,-910,-700,210,,,,,,,0x03,
19,786,-188,590,-910,-700,210,,,,,,,0x03,
29,785,-189,593,-980,-770,280,,,,,,,0x03,
39,785,-190,594,-980,-910,350,,,,,,,0x03,
48,786,-193,594,-770,-1050,280,,,,,,,0x03,
58,786,-193,594,-490,-1190,210,,,,,,,0x03,
67,788,-188,591,-70,-1260,140,,,,,,,0x03,
77,789,-190,589,210,-1330,140,,,,,,,0x03,
87,788,-193,586,280,-1190,140,,,,,,,0x03,
96,788,-195,585,350,-1190,0,,,,,,,0x03,
106,788,-193,584,350,-1120,-140,,,,,,,0x03,
116,789,-193,581,280,-1050,-280,,,,,,,0x03,
125,790,-190,577,280,-840,-350,,,,,,,0x03,
135,790,-192,577,70,-560,-350,,,,,,,0x03,
144,789,-193,579,-280,-280,-350,,,,,,,0x03,
154,788,-192,584,-280,-210,-490,,,,,,,0x03,
164,787,-192,588,-210,-210,-490,,,,,,,0x03,
173,788,-188,588,-70,-210,-490,,,,,,,0x03,
183,786,-185,588,0,-210,-490,,,,,,,0x03,
193,786,-184,590,140,-210,-350,,,,,,,0x03,
202,786,-183,590,350,-280,-350,,,,,,,0x03,
212,788,-181,591,560,-350,-210,,,,,,,0x03,
221,788,-181,592,490,-420,-70,,,,,,,0x03,
231,787,-180,591,280,-490,0,,,,,,,0x03,
241,787,-181,589,70,-420,0,,,,,,,0x03,
250,787,-181,588,-140,-420,140,,,,,,,0x03,
260,787,-183,590,-350,-420,140,,,,,,,0x03,
270,787,-184,591,-560,-420,280,,,,,,,0x03,
279,786,-184,591,-560,-560,210,,,,,,,0x03,
289,786,-189,590,-630,-560,210,,,,,,,0x03,
299,786,-191,591,-630,-560,70,,,,,,,0x03,
308,787,-190,590,-280,-630,0,,,,,,,0x03,
318,790,-191,588,210,-700,-70,,,,,,,0x03,
327,791,-188,586,280,-630,-140,,,,,,,0x03,
337,792,-187,583,350,-560,-140,,,,,,,0x03,
347,788,-187,582,70,-350,-140,,,,,,,0x03,
356,785,-188,585,-350,-210,-210,,,,,,,0x03,
366,783,-187,588,-630,-210,-210,,,,,,,0x03,
376,783,-185,590,-700,-140,-140,,,,,,,0x03,
385,784,-186,591,-770,-70,-70,,,,,,,0x03,
395,784,-191,593,-770,0,70,,,,,,,0x03,
404,783,-193,594,-560,0,0,,,,,,,0x03,
414,785,-194,592,-70,-70,0,,,,,,,0x03,
424,787,-193,592,560,-140,-70,,,,,,,0x03,
433,788,-190,591,840,-280,-70,,,,,,,0x03,
443,791,-189,588,980,-350,-70,,,,,,,0x03,
453,792,-188,585,910,-350,-140,,,,,,,0x03,
462,792,-189,582,630,-420,-210,,,,,,,0x03,
472,789,-190,582,280,-210,-350,,,,,,,0x03,
481,786,-188,584,-70,-140,-490,,,,,,,0x03,
491,785,-188,586,-280,-70,-560,,,,,,,0x03,
501,784,-188,588,-210,70,-560,,,,,,,0x03,
510,782,-189,592,-210,140,-490,,,,,,,0x03,
520,782,-187,595,-70,140,-490,,,,,,,0x03,
530,782,-185,596,350,140,-420,,,,,,,0x03,
539,782,-184,595,630,140,-280,,,,,,,0x03,
549,782,-181,595,840,70,-140,,,,,,,0x03,
559,784,-181,597,910,-70,-70,,,,,,,0x03,
568,786,-180,598,700,-210,0,,,,,,,0x03,
578,787,-178,597,420,-420,0,,,,,,,0x03,
587,790,-180,595,280,-560,0,,,,,,,0x03,
597,789,-184,593,0,-630,70,,,,,,,0x03,
607,789,-186,590,-210,-630,0,,,,,,,0x03,
616,786,-189,587,-350,-630,-140,,,,,,,0x03,
626,785,-189,587,-350,-630,-280,,,,,,,0x03,
636,785,-188,588,-420,-560,-280,,,,,,,0x03,
645,784,-188,589,-490,-560,-210,,,,,,,0x03,
655,785,-185,590,-420,-630,-140,,,,,,,0x03,
664,787,-184,589,-280,-630,0,,,,,,,0x03,
674,788,-185,588,-210,-630,210,,,,,,,0x03,
684,786,-188,588,-140,-560,280,,,,,,,0x03,
693,787,-187,589,-140,-490,210,,,,,,,0x03,
703,785,-186,589,-210,-420,70,,,,,,,0x03,
713,785,-187,589,-350,-350,0,,,,,,,0x03,
722,786,-187,589,-560,-350,-70,,,,,,,0x03,
732,784,-187,588,-700,-350,-140,,,,,,,0x03,
741,786,-187,589,-700,-280,-140,,,,,,,0x03,
751,785,-187,589,-700,-210,-140,,,,,,,0x03,
761,786,-186,591,-700,-140,-210,,,,,,,0x03,
770,785,-185,592,-630,-140,-70,,,,,,,0x03,
780,784,-185,592,-630,-140,-70,,,,,,,0x03,
790,784,-188,593,-630,-70,-70,,,,,,,0x03,
799,783,-189,594,-630,-140,-70,,,,,,,0x03,
809,781,-190,593,-560,-210,-140,,,,,,,0x03,
819,782,-190,592,-490,-140,-210,,,,,,,0x03,
828,783,-191,597,-490,-140,-140,,,,,,,0x03,
838,781,-191,597,-560,-280,-70,,,,,,,0x03,
847,782,-190,597,-420,-350,-140,,,,,,,0x03,
857,783,-189,598,-280,-490,-140,,,,,,,0x03,
867,783,-189,598,-280,-630,0,,,,,,,0x03,
876,784,-191,598,-210,-770,-70,,,,,,,0x03,
886,784,-193,597,-140,-840,-210,,,,,,,0x03,
896,783,-191,596,0,-980,-280,,,,,,,0x03,
905,782,-191,595,0,-1120,-210,,,,,,,0x03,
915,782,-188,594,70,-1050,-210,,,,,,,0x03,
924,782,-188,592,350,-1050,-210,,,,,,,0x03,
934,783,-188,591,280,-1050,0,,,,,,,0x03,
944,783,-188,592,140,-1050,0,,,,,,,0x03,
953,785,-187,593,-70,-1190,0,,,,,,,0x03,
963,787,-187,592,-140,-1260,-140,,,,,,,0x03,
973,787,-190,590,-140,-1190,-140,,,,,,,0x03,
982,786,-193,589,-140,-1120,-280,,,,,,,0x03,
992,785,-193,589,-70,-1050,-420,,,,,,,0x03,
1001,785,-192,588,140,-980,-560,,,,,,,0x03,
1011,783,-188,589,280,-910,-560,,,,,,,0x03,
1021,784,-186,592,280,-910,-560,,,,,,,0x03,
1030,783,-187,595,210,-980,-490,,,,,,,0x03,
1040,785,-187,595,70,-1120,-560,,,,,,,0x03,
1050,786,-188,596,0,-1190,-560,,,,,,,0x03,
1059,787,-192,597,-70,-1260,-630,,,,,,,0x03,
1069,787,-194,598,70,-1400,-840,,,,,,,0x03,
1079,787,-195,597,350,-1610,-1120,,,,,,,0x03,
1088,788,-194,595,560,-1680,-1330,,,,,,,0x03,
1098,787,-193,591,770,-1750,-1470,,,,,,,0x03,
1107,786,-192,587,770,-1680,-1470,,,,,,,0x03,
1117,786,-190,587,560,-1680,-1540,,,,,,,0x03,
1127,786,-188,587,420,-1750,-1540,,,,,,,0x03,
1136,788,-184,588,280,-1750,-1540,,,,,,,0x03,
1146,789,-181,589,70,-1820,-1470,,,,,,,0x03,
1156,791,-182,590,-140,-1750,-1400,,,,,,,0x03,
1165,790,-183,588,-280,-1750,-1400,,,,,,,0x03,
1175,789,-186,586,-210,-1610,-1330,,,,,,,0x03,
1184,789,-191,587,0,-1540,-1470,,,,,,,0x03,
1194,790,-189,586,420,-1540,-1680,,,,,,,0x03,
1204,789,-191,587,700,-1540,-1750,,,,,,,0x03,
1213,789,-191,586,910,-1540,-1960,,,,,,,0x03,
1223,789,-190,583,910,-1540,-2100,,,,,,,0x03,
1233,789,-190,583,910,-1400,-2170,,,,,,,0x03,
1242,787,-187,585,770,-1260,-2240,,,,,,,0x03,
1252,787,-186,585,630,-1190,-2380,,,,,,,0x03,
1261,785,-187,586,280,-1050,-2380,,,,,,,0x03,
1271,786,-178,588,70,-1050,-2380,,,,,,,0x03,
1281,785,-169,589,210,-980,-2100,,,,,,,0x03,
1290,785,-166,593,70,-980,-1610,,,,,,,0x03,
1300,786,-162,595,70,-1050,-1120,,,,,,,0x03,
1310,788,-163,594,210,-1120,-700,,,,,,,0x03,
1319,787,-165,593,280,-1190,-420,,,,,,,0x03,
1329,786,-169,592,280,-1120,-210,,,,,,,0x03,
1339,785,-173,592,210,-1190,-140,,,,,,,0x03,
1348,788,-176,590,210,-1190,-280,,,,,,,0x03,
1358,790,-177,590,350,-1260,-210,,,,,,,0x03,
1367,792,-179,586,210,-1260,-210,,,,,,,0x03,
1377,792,-180,583,70,-1190,-210,,,,,,,0x03,
1387,793,-180,582,0,-1120,-350,,,,,,,0x03,
1396,795,-181,581,-70,-1050,-420,,,,,,,0x03,
1406,793,-180,583,0,-980,-560,,,,,,,0x03,
1416,792,-179,585,0,-910,-560,,,,,,,0x03,
1425,791,-176,584,0,-840,-560,,,,,,,0x03,
1435,789,-173,585,0,-700,-490,,,,,,,0x03,
1444,788,-172,585,-70,-630,-280,,,,,,,0x03,
1454,788,-173,588,-70,-560,-70,,,,,,,0x03,
1464,788,-173,589,-140,-420,0,,,,,,,0x03,
1473,790,-174,590,-210,-420,70,,,,,,,0x03,
1483,788,-176,591,-280,-350,140,,,,,,,0x03,
1493,789,-177,593,-350,-420,210,,,,,,,0x03,
1502,791,-179,591,-280,-490,140,,,,,,,0x03,
1512,789,-179,590,-280,-560,140,,,,,,,0x03,
1521,789,-181,591,-350,-560,0,,,,,,,0x03,
1531,788,-184,591,-350,-700,-70,,,,,,,0x03,
1541,787,-185,590,-210,-770,-280,,,,,,,0x03,
1550,788,-183,588,-70,-840,-350,,,,,,,0x03,
1560,788,-181,587,70,-840,-350,,,,,,,0x03,
1570,790,-182,587,70,-770,-350,,,,,,,0x03,
1579,791,-183,587,-70,-770,-350,,,,,,,0x03,
1589,789,-183,589,-70,-770,-280,,,,,,,0x03,
1599,788,-183,589,-210,-840,-280,,,,,,,0x03,
1608,787,-183,590,-280,-910,-280,,,,,,,0x03,
1618,785,-185,591,-280,-910,-210,,,,,,,0x03,
1627,787,-184,591,-210,-980,-280,,,,,,,0x03,
1637,787,-182,589,-140,-910,-210,,,,,,,0x03,
1647,787,-181,589,-210,-980,-140,,,,,,,0x03,
1656,786,-182,591,-280,-1050,-70,,,,,,,0x03,
1666,787,-185,589,-280,-1050,-210,,,,,,,0x03,
1676,789,-182,587,0,-1050,-210,,,,,,,0x03,
1685,792,-182,586,70,-1050,-280,,,,,,,0x03,
1695,790,-182,585,0,-980,-210,,,,,,,0x03,
1704,789,-179,586,-140,-910,-210,,,,,,,0x03,
1714,789,-177,586,-210,-910,-210,,,,,,,0x03,
1724,790,-175,586,-350,-980,-210,,,,,,,0x03,
1733,790,-175,587,-350,-910,-210,,,,,,,0x03,
1743,791,-177,588,-420,-910,-140,,,,,,,0x03,
1753,791,-179,588,-420,-980,-140,,,,,,,0x03,
1762,792,-180,590,-350,-980,-280,,,,,,,0x03,
1772,791,-178,588,-280,-1050,-350,,,,,,,0x03,
1781,791,-177,586,-210,-980,-350,,,,,,,0x03,
1791,791,-178,586,-280,-910,-280,,,,,,,0x03,
1801,790,-180,587,-350,-840,-280,,,,,,,0x03,
1810,789,-178,587,-280,-840,-350,,,,,,,0x03,
1820,790,-176,587,-210,-910,-350,,,,,,,0x03,
1830,791,-177,586,-280,-840,-280,,,,,,,0x03,
1839,791,-178,585,-350,-840,-280,,,,,,,0x03,
1849,791,-179,586,-350,-840,-210,,,,,,,0x03,
1859,792,-179,588,-350,-840,-210,,,,,,,0x03,
1868,792,-180,585,-350,-840,-210,,,,,,,0x03,
1878,793,-180,584,-350,-840,-140,,,,,,,0x03,
1887,791,-182,584,-350,-770,-140,,,,,,,0x03,
1897,790,-182,584,-490,-700,-140,,,,,,,0x03,
1907,790,-180,584,-350,-700,-70,,,,,,,0x03,
1916,791,-182,584,-140,-630,0,,,,,,,0x03,
1926,790,-182,583,-70,-490,0,,,,,,,0x03,
1936,791,-180,581,0,-420,-70,,,,,,,0x03,
1945,793,-180,580,0,-210,70,,,,,,,0x03,
1955,793,-180,581,-70,-70,140,,,,,,,0x03,
1964,791,-179,581,-70,70,70,,,,,,,0x03,
1974,790,-178,584,-210,210,140,,,,,,,0x03,
1984,790,-179,586,-280,280,140,,,,,,,0x03,
1993,791,-178,587,-280,280,140,,,,,,,0x03,
2003,790,-181,589,-280,280,70,,,,,,,0x03,
2013,788,-181,588,-280,280,-70,,,,,,,0x03,
2022,789,-182,590,-140,280,-140,,,,,,,0x03,
2032,789,-183,590,70,280,-280,,,,,,,0x03,
2041,789,-184,589,210,280,-350,,,,,,,0x03,
2051,789,-185,589,280,280,-420,,,,,,,0x03,
2061,787,-185,590,420,280,-560,,,,,,,0x03,
2070,788,-183,589,490,210,-630,,,,,,,0x03,
2080,789,-181,589,630,210,-560,,,,,,,0x03,
2090,788,-179,590,420,210,-490,,,,,,,0x03,
2099,787,-179,591,350,140,-420,,,,,,,0x03,
2109,787,-178,591,280,0,-350,,,,,,,0x03,
2119,788,-176,593,280,-70,-280,,,,,,,0x03,
2128,789,-173,592,420,-140,-140,,,,,,,0x03,
2138,789,-178,590,350,-210,0,,,,,,,0x03,
2147,787,-183,589,140,-140,-70,,,,,,,0x03,
2157,788,-183,587,210,-140,-280,,,,,,,0x03,
2167,789,-180,589,420,-140,-280,,,,,,,0x03,
2176,787,-181,591,420,-210,-140,,,,,,,0x03,
2186,787,-182,592,140,-280,-140,,,,,,,0x03,
2196,787,-181,592,70,-350,-210,,,,,,,0x03,
2205,788,-181,589,140,-350,-350,,,,,,,0x03,
2215,788,-181,589,140,-210,-420,,,,,,,0x03,
2224,787,-180,590,70,-210,-420,,,,,,,0x03,
2234,787,-178,591,70,-280,-350,,,,,,,0x03,
2244,787,-177,593,0,-350,-350,,,,,,,0x03,
2253,789,-177,594,-140,-490,-350,,,,,,,0x03,
2263,790,-177,594,-210,-560,-350,,,,,,,0x03,
2273,791,-177,592,-70,-700,-210,,,,,,,0x03,
2282,790,-179,591,0,-770,-140,,,,,,,0x03,
2292,789,-181,588,140,-770,-140,,,,,,,0x03,
2301,788,-182,588,280,-700,-210,,,,,,,0x03,
2311,786,-181,586,420,-560,-280,,,,,,,0x03,
2321,784,-178,587,420,-420,-280,,,,,,,0x03,
2330,786,-179,590,210,-350,-210,,,,,,,0x03,
2340,788,-178,589,140,-280,-280,,,,,,,0x03,
2350,789,-179,588,70,-210,-280,,,,,,,0x03,
2359,787,-183,591,140,-140,-350,,,,,,,0x03,
2369,787,-180,592,280,-140,-490,,,,,,,0x03,
2379,788,-176,593,560,-210,-560,,,,,,,0x03,
2388,789,-176,594,490,-280,-560,,,,,,,0x03,
2398,788,-177,592,350,-280,-630,,,,,,,0x03,
2407,786,-179,593,280,-280,-700,,,,,,,0x03,
2417,785,-178,593,280,-280,-770,,,,,,,0x03,
2427,785,-176,592,490,-350,-770,,,,,,,0x03,
2436,785,-174,593,560,-350,-630,,,,,,,0x03,
2446,786,-173,593,490,-420,-490,,,,,,,0x03,
2456,788,-173,591,420,-490,-420,,,,,,,0x03,
2465,790,-174,590,350,-490,-350,,,,,,,0x03,
2475,789,-173,590,280,-560,-210,,,,,,,0x03,
2484,788,-174,590,210,-560,-70,,,,,,,0x03,
2494,786,-176,591,0,-560,-70,,,,,,,0x03,
2504,787,-177,591,-140,-490,-140,,,,,,,0x03,
2513,786,-176,591,-280,-490,-70,,,,,,,0x03,
2523,788,-178,592,-490,-420,-70,,,,,,,0x03,
2533,788,-178,592,-560,-490,-140,,,,,,,0x03,
2542,788,-176,592,-490,-490,-210,,,,,,,0x03,
2552,790,-175,591,-420,-490,-140,,,,,,,0x03,
2561,789,-173,589,-420,-420,-70,,,,,,,0x03,
2571,788,-172,589,-420,-420,0,,,,,,,0x03,
2581,787,-172,590,-560,-420,140,,,,,,,0x03,
2590,786,-172,593,-770,-420,280,,,,,,,0x03,
2600,785,-176,595,-980,-490,280,,,,,,,0x03,
2610,786,-177,595,-980,-560,280,,,,,,,0x03,
2619,786,-179,594,-910,-560,280,,,,,,,0x03,
2629,788,-180,592,-700,-560,280,,,,,,,0x03,
2639,788,-181,590,-350,-560,280,,,,,,,0x03,
2648,788,-179,590,-140,-560,280,,,,,,,0x03,
2658,786,-176,591,0,-560,350,,,,,,,0x03,
2667,787,-175,591,-210,-560,280,,,,,,,0x03,
2677,786,-175,592,-420,-490,280,,,,,,,0x03,
2687,785,-175,593,-560,-490,280,,,,,,,0x03,
2696,786,-176,594,-630,-490,280,,,,,,,0x03,
2706,785,-177,593,-700,-490,210,,,,,,,0x03,
2716,786,-177,594,-630,-490,210,,,,,,,0x03,
2725,787,-178,592,-420,-490,210,,,,,,,0x03,
2735,787,-179,591,-280,-490,280,,,,,,,0x03,
2744,787,-180,591,-210,-420,280,,,,,,,0x03,
2754,785,-180,590,-70,-350,210,,,,,,,0x03,
2764,784,-180,590,-70,-350,140,,,,,,,0x03,
2773,786,-181,592,-140,-280,210,,,,,,,0x03,
2783,786,-180,592,-280,-210,140,,,,,,,0x03,
2793,787,-180,591,-350,-210,140,,,,,,,0x03,
2802,786,-182,592,-490,-140,210,,,,,,,0x03,
2812,785,-183,594,-630,-210,140,,,,,,,0x03,
2821,786,-183,596,-560,-280,70,,,,,,,0x03,
2831,786,-181,597,-490,-490,140,,,,,,,0x03,
2841,785,-181,597,-420,-560,140,,,,,,,0x03,
2850,786,-182,593,-350,-700,140,,,,,,,0x03,
2860,787,-182,593,-140,-700,70,,,,,,,0x03,
2870,787,-183,589,-70,-770,70,,,,,,,0x03,
2879,788,-183,589,-70,-770,70,,,,,,,0x03,
2889,787,-182,587,-140,-630,0,,,,,,,0x03,
2899,785,-183,589,-210,-560,-70,,,,,,,0x03,
2908,785,-183,589,-350,-560,-70,,,,,,,0x03,
2918,787,-182,591,-350,-560,-70,,,,,,,0x03,
2927,787,-183,591,-350,-560,-70,,,,,,,0x03,
2937,785,-181,593,-350,-490,-70,,,,,,,0x03,
2947,787,-179,593,-350,-560,-70,,,,,,,0x03,
2956,787,-178,593,-350,-560,0,,,,,,,0x03,
2966,787,-175,593,-350,-560,140,,,,,,,0x03,
2976,785,-174,593,-350,-630,210,,,,,,,0x03,
2985,785,-174,596,-490,-630,210,,,,,,,0x03,
2995,785,-174,597,-700,-700,350,,,,,,,0x03,
3004,786,-176,597,-840,-840,280,,,,,,,0x03,
3014,785,-179,596,-910,-840,280,,,,,,,0x03,
3024,785,-182,593,-840,-840,140,,,,,,,0x03,
3033,785,-184,592,-630,-840,70,,,,,,,0x03,
3043,787,-184,589,-420,-770,0,,,,,,,0x03,
3053,785,-185,588,-210,-770,-70,,,,,,,0x03,
3062,786,-184,588,0,-770,-140,,,,,,,0x03,
3072,787,-183,589,0,-700,-140,,,,,,,0x03,
3081,787,-183,590,0,-630,-280,,,,,,,0x03,
3091,788,-183,590,-70,-560,-280,,,,,,,0x03,
3101,787,-182,588,-70,-420,-350,,,,,,,0x03,
3110,786,-183,588,0,-280,-420,,,,,,,0x03,
3120,785,-185,589,0,-140,-420,,,,,,,0x03,
3130,783,-183,591,0,-70,-490,,,,,,,0x03,
3139,784,-181,592,70,-70,-490,,,,,,,0x03,
3149,785,-179,593,140,-70,-420,,,,,,,0x03,
3159,787,-178,594,140,-140,-350,,,,,,,0x03,
3168,788,-178,596,0,-210,-210,,,,,,,0x03,
3178,787,-178,595,-70,-350,-70,,,,,,,0x03,
3187,786,-176,595,-70,-490,0,,,,,,,0x03,
3197,785,-174,594,0,-490,140,,,,,,,0x03,
3207,784,-173,593,-140,-560,280,,,,,,,0x03,
3216,784,-173,594,-350,-490,420,,,,,,,0x03,
3226,783,-175,593,-560,-490,560,,,,,,,0x03,
3236,783,-177,595,-630,-420,630,,,,,,,0x03,
3245,784,-178,597,-700,-420,630,,,,,,,0x03,
3255,785,-181,597,-630,-490,560,,,,,,,0x03,
3264,785,-182,597,-630,-560,490,,,,,,,0x03,
3274,786,-183,596,-490,-700,350,,,,,,,0x03,
3284,787,-182,595,-350,-770,210,,,,,,,0x03,
3293,786,-182,595,-280,-840,210,,,,,,,0x03,
3303,785,-182,594,-280,-840,140,,,,,,,0x03,
3313,787,-179,592,-140,-910,70,,,,,,,0x03,
3322,787,-178,589,-70,-840,210,,,,,,,0x03,
3332,786,-177,588,-140,-840,280,,,,,,,0x03,
3341,785,-180,589,-350,-770,350,,,,,,,0x03,
3351,784,-181,588,-490,-630,350,,,,,,,0x03,
3361,785,-184,591,-490,-560,350,,,,,,,0x03,
3370,785,-186,592,-420,-490,280,,,,,,,0x03,
3380,785,-188,592,-350,-490,280,,,,,,,0x03,
3390,785,-192,591,-280,-490,210,,,,,,,0x03,
3399,785,-196,592,-70,-420,70,,,,,,,0x03,
3409,786,-196,592,280,-420,-140,,,,,,,0x03,
3419,786,-191,592,560,-420,-210,,,,,,,0x03,
3428,784,-187,592,770,-420,-280,,,,,,,0x03,
3438,785,-183,593,770,-350,-280,,,,,,,0x03,
3447,783,-181,594,560,-420,-140,,,,,,,0x03,
3457,784,-180,595,420,-420,-210,,,,,,,0x03,
3467,785,-180,595,280,-420,-280,,,,,,,0x03,
3476,787,-181,594,210,-490,-280,,,,,,,0x03,
3486,787,-183,593,280,-490,-350,,,,,,,0x03,
3496,786,-185,592,420,-420,-420,,,,,,,0x03,
3505,784,-183,592,560,-420,-560,,,,,,,0x03,
3515,784,-178,593,630,-420,-560,,,,,,,0x03,
3524,784,-177,593,560,-420,-490,,,,,,,0x03,
3534,784,-175,595,280,-560,-490,,,,,,,0x03,
3544,783,-173,596,-70,-560,-420,,,,,,,0x03,
3553,784,-175,596,-280,-630,-280,,,,,,,0x03,
3563,784,-176,596,-350,-630,-280,,,,,,,0x03,
3573,783,-176,598,-560,-630,-210,,,,,,,0x03,
3582,782,-178,599,-700,-630,-210,,,,,,,0x03,
3592,782,-180,598,-630,-700,-210,,,,,,,0x03,
3601,782,-183,598,-490,-840,-210,,,,,,,0x03,
3611,781,-185,597,-420,-910,-210,,,,,,,0x03,
3621,782,-186,598,-280,-980,-280,,,,,,,0x03,
3630,784,-187,598,-140,-1050,-350,,,,,,,0x03,
3640,784,-187,597,0,-1190,-350,,,,,,,0x03,
3650,786,-188,595,210,-1330,-490,,,,,,,0x03,
3659,785,-187,594,350,-1400,-630,,,,,,,0x03,
3669,786,-187,594,280,-1400,-770,,,,,,,0x03,
3679,786,-187,593,70,-1400,-910,,,,,,,0x03,
3688,785,-187,590,-70,-1400,-1050,,,,,,,0x03,
3698,784,-185,591,0,-1190,-1120,,,,,,,0x03,
3707,785,-183,592,0,-1120,-1050,,,,,,,0x03,
3717,784,-180,593,140,-1120,-910,,,,,,,0x03,
3727,783,-176,594,350,-1050,-770,,,,,,,0x03,
3736,786,-171,595,490,-1190,-560,,,,,,,0x03,
3746,787,-170,594,420,-1260,-350,,,,,,,0x03,
3756,788,-171,593,280,-1330,-210,,,,,,,0x03,
3765,790,-172,592,140,-1400,-210,,,,,,,0x03,
3775,789,-173,592,70,-1330,-140,,,,,,,0x03,
3784,787,-175,592,-140,-1400,-140,,,,,,,0x03,
3794,786,-176,590,-280,-1260,-210,,,,,,,0x03,
3804,789,-177,588,-280,-1190,-280,,,,,,,0x03,
3813,787,-180,586,-350,-1050,-420,,,,,,,0x03,
3823,788,-182,585,-490,-910,-490,,,,,,,0x03,
3833,787,-181,586,-280,-770,-560,,,,,,,0x03,
3842,787,-179,586,-70,-630,-560,,,,,,,0x03,
3852,788,-178,587,0,-490,-490,,,,,,,0x03,
3861,787,-179,588,0,-420,-490,,,,,,,0x03,
3871,787,-179,593,-70,-420,-560,,,,,,,0x03,
3881,787,-178,594,0,-490,-490,,,,,,,0x03,
3890,787,-177,594,0,-630,-490,,,,,,,0x03,
3900,786,-178,594,-140,-630,-490,,,,,,,0x03,
3910,785,-179,594,-210,-560,-490,,,,,,,0x03,
3919,783,-181,594,-210,-560,-420,,,,,,,0x03,
3929,782,-182,593,-140,-560,-420,,,,,,,0x03,
3939,785,-182,588,70,-560,-490,,,,,,,0x03,
3948,783,-181,594,210,-490,-420,,,,,,,0x03,
3958,784,-177,593,140,-560,-280,,,,,,,0x03,
3967,786,-180,590,70,-560,-140,,,,,,,0x03,
3977,789,-180,593,70,-560,-210,,,,,,,0x03,
3987,790,-177,594,0,-630,-140,,,,,,,0x03,
3996,789,-179,595,70,-700,-140,,,,,,,0x03,
4006,788,-176,595,210,-770,-210,,,,,,,0x03,
4016,786,-176,596,70,-840,-210,,,,,,,0x03,
4025,785,-179,596,-210,-840,-350,,,,,,,0x03,
4035,784,-179,595,-280,-980,-490,,,,,,,0x03,
4044,786,-180,594,-140,-980,-630,,,,,,,0x03,
4054,785,-183,594,-70,-980,-700,,,,,,,0x03,
4064,783,-182,593,0,-910,-770,,,,,,,0x03,
4073,784,-181,592,140,-910,-840,,,,,,,0x03,
4083,786,-181,591,140,-910,-910,,,,,,,0x03,
4093,786,-177,592,70,-910,-840,,,,,,,0x03,
4102,788,-178,594,0,-840,-770,,,,,,,0x03,
4112,788,-179,596,-140,-1120,-770,,,,,,,0x03,
4121,789,-179,596,-140,-1260,-770,,,,,,,0x03,
4131,788,-178,594,-70,-1330,-770,,,,,,,0x03,
4141,788,-179,593,-70,-1330,-770,,,,,,,0x03,
4150,787,-180,591,-140,-1330,-770,,,,,,,0x03,
4160,785,-181,593,-70,-1400,-770,,,,,,,0x03,
4170,786,-180,594,0,-1400,-700,,,,,,,0x03,
4179,785,-179,593,70,-1470,-700,,,,,,,0x03,
4189,787,-180,592,140,-1330,-630,,,,,,,0x03,
4199,787,-180,592,210,-1330,-700,,,,,,,0x03,
4208,788,-180,591,420,-1190,-700,,,,,,,0x03,
4218,787,-178,589,700,-1120,-700,,,,,,,0x03,
4227,786,-175,587,770,-980,-700,,,,,,,0x03,
4237,786,-174,589,770,-910,-630,,,,,,,0x03,
4247,786,-175,590,700,-840,-560,,,,,,,0x03,
4256,787,-174,592,700,-910,-560,,,,,,,0x03,
4266,788,-175,594,770,-910,-630,,,,,,,0x03,
4276,789,-174,594,770,-980,-630,,,,,,,0x03,
4285,791,-173,594,910,-1050,-700,,,,,,,0x03,
4295,791,-173,592,980,-1120,-700,,,,,,,0x03,
4304,791,-170,591,1050,-1190,-700,,,,,,,0x03,
4314,789,-168,589,910,-1120,-630,,,,,,,0x03,
4324,789,-169,588,700,-1120,-560,,,,,,,0x03,
4333,787,-167,588,350,-1050,-490,,,,,,,0x03,
4343,788,-168,588,140,-980,-420,,,,,,,0x03,
4353,786,-170,590,-70,-980,-350,,,,,,,0x03,
4362,788,-171,591,-280,-980,-280,,,,,,,0x03,
4372,789,-171,592,-350,-980,-280,,,,,,,0x03,
4381,789,-173,592,-210,-980,-280,,,,,,,0x03,
4391,791,-175,591,-70,-1050,-280,,,,,,,0x03,
4401,792,-174,589,140,-1050,-280,,,,,,,0x03,
4410,791,-175,589,280,-1120,-350,,,,,,,0x03,
4420,790,-175,588,140,-1050,-350,,,,,,,0x03,
4430,790,-173,586,0,-1050,-350,,,,,,,0x03,
4439,790,-173,585,-70,-910,-350,,,,,,,0x03,
4449,789,-175,585,-210,-770,-210,,,,,,,0x03,
4459,788,-177,586,-350,-630,-210,,,,,,,0x03,
4468,789,-177,587,-420,-490,-210,,,,,,,0x03,
4478,789,-176,587,-210,-420,-210,,,,,,,0x03,
4487,789,-175,590,-140,-350,-140,,,,,,,0x03,
4497,788,-174,592,-70,-210,-70,,,,,,,0x03,
4507,787,-174,594,-70,-210,70,,,,,,,0x03,
4516,786,-173,595,-70,-280,0,,,,,,,0x03,
4526,785,-171,597,-70,-350,70,,,,,,,0x03,
4536,785,-173,597,0,-490,70,,,,,,,0x03,
4545,786,-174,595,70,-490,70,,,,,,,0x03,
4555,786,-177,594,70,-490,0,,,,,,,0x03,
4564,787,-178,594,140,-560,-70,,,,,,,0x03,
4574,789,-177,591,350,-630,-140,,,,,,,0x03,
4584,790,-178,590,490,-630,-280,,,,,,,0x03,
4593,790,-178,587,630,-630,-280,,,,,,,0x03,
4603,790,-177,589,560,-630,-280,,,,,,,0x03,
4613,790,-175,589,490,-560,-350,,,,,,,0x03,
4622,790,-174,590,560,-630,-420,,,,,,,0x03,
4632,790,-174,589,490,-700,-490,,,,,,,0x03,
4641,789,-167,592,420,-700,-420,,,,,,,0x03,
4651,790,-167,590,560,-770,-280,,,,,,,0x03,
4661,791,-174,588,140,-700,-210,,,,,,,0x03,
4670,791,-171,587,70,-700,-420,,,,,,,0x03,
4680,791,-167,587,280,-700,-350,,,,,,,0x03,
4690,791,-167,588,140,-700,-140,,,,,,,0x03,
4699,791,-171,589,-210,-770,0,,,,,,,0x03,
4709,791,-171,589,-490,-700,-70,,,,,,,0x03,
4719,788,-170,590,-630,-700,-140,,,,,,,0x03,
4728,789,-171,588,-770,-560,-140,,,,,,,0x03,
4738,787,-173,588,-770,-420,-140,,,,,,,0x03,
4747,787,-174,588,-700,-280,-70,,,,,,,0x03,
4757,787,-173,587,-560,-210,0,,,,,,,0x03,
4767,788,-171,588,-490,-70,140,,,,,,,0x03,
4776,788,-170,590,-490,-70,280,,,,,,,0x03,
4786,788,-169,592,-560,0,420,,,,,,,0x03,
4796,789,-168,592,-560,0,560,,,,,,,0x03,
4805,789,-173,592,-630,0,560,,,,,,,0x03,
4815,787,-173,593,-630,70,560,,,,,,,0x03,
4824,787,-176,593,-560,140,490,,,,,,,0x03,
4834,787,-175,592,-560,70,280,,,,,,,0x03,
4844,788,-175,592,-560,70,280,,,,,,,0x03,
4853,785,-177,591,-630,140,210,,,,,,,0x03,
4863,785,-178,592,-630,140,140,,,,,,,0x03,
4873,784,-177,595,-560,140,140,,,,,,,0x03,
4882,785,-177,597,-490,70,70,,,,,,,0x03,
4892,784,-177,597,-490,-70,140,,,,,,,0x03,
4901,785,-176,597,-420,-70,210,,,,,,,0x03,
4911,786,-174,597,-280,-210,280,,,,,,,0x03,
4921,785,-174,597,-210,-280,280,,,,,,,0x03,
4930,785,-175,597,-210,-420,350,,,,,,,0x03,
4940,786,-175,596,-280,-420,350,,,,,,,0x03,
4950,784,-176,595,-350,-420,350,,,,,,,0x03,
4959,784,-180,595,-420,-420,280,,,,,,,0x03,
4969,785,-181,597,-490,-490,210,,,,,,,0x03,
4979,787,-179,595,-280,-560,140,,,,,,,0x03,
4988,788,-179,593,-70,-700,140,,,,,,,0x03,
4998,790,-180,592,70,-770,70,,,,,,,0x03,
5007,790,-180,589,210,-840,0,,,,,,,0x03,
5017,790,-179,588,350,-840,0,,,,,,,0x03,
5027,789,-177,588,280,-840,-70,,,,,,,0x03,
5036,788,-174,588,210,-840,-70,,,,,,,0x03,
5046,787,-172,589,70,-770,0,,,,,,,0x03,
5056,787,-172,589,-140,-700,0,,,,,,,0x03,
5065,788,-173,592,-350,-560,70,,,,,,,0x03,
5075,785,-173,592,-420,-490,70,,,,,,,0x03,
5084,786,-173,592,-350,-350,210,,,,,,,0x03,
5094,786,-173,594,-280,-280,280,,,,,,,0x03,
5104,785,-174,594,-210,-280,350,,,,,,,0x03,
5113,786,-175,597,-210,-350,350,,,,,,,0x03,
5123,786,-174,596,-70,-490,210,,,,,,,0x03,
5133,787,-175,594,0,-560,210,,,,,,,0x03,
5142,790,-178,592,70,-560,70,,,,,,,0x03,
5152,789,-181,590,140,-490,0,,,,,,,0x03,
5161,788,-182,589,210,-420,-280,,,,,,,0x03,
5171,787,-180,587,280,-350,-490,,,,,,,0x03,
5181,787,-177,585,350,-280,-490,,,,,,,0x03,
5190,786,-173,585,280,-70,-420,,,,,,,0x03,
5200,786,-173,588,70,70,-280,,,,,,,0x03,
5210,786,-174,590,-210,140,-210,,,,,,,0x03,
5219,785,-175,594,-280,140,-140,,,,,,,0x03,
5229,785,-175,598,-490,140,0,,,,,,,0x03,
5239,784,-178,598,-490,70,70,,,,,,,0x03,
5248,784,-179,600,-490,70,70,,,,,,,0x03,
5258,784,-179,602,-350,-140,0,,,,,,,0x03,
5267,784,-179,601,-140,-280,-70,,,,,,,0x03,
5277,784,-175,598,0,-420,0,,,,,,,0x03,
5287,785,-175,595,0,-490,70,,,,,,,0x03,
5296,786,-174,591,-210,-420,70,,,,,,,0x03,
5306,786,-174,590,-420,-350,210,,,,,,,0x03,
5316,786,-174,591,-630,-350,210,,,,,,,0x03,
5325,786,-174,593,-910,-280,280,,,,,,,0x03,
5335,786,-175,594,-980,-280,280,,,,,,,0x03,
5344,786,-176,596,-980,-350,350,,,,,,,0x03,
5354,786,-178,596,-910,-350,280,,,,,,,0x03,
5364,786,-179,597,-630,-420,280,,,,,,,0x03,
5373,787,-177,596,-280,-560,210,,,,,,,0x03,
5383,787,-176,594,-70,-630,140,,,,,,,0x03,
5393,786,-176,596,-140,-700,70,,,,,,,0x03,
5402,785,-177,596,-280,-770,0,,,,,,,0x03,
5412,786,-176,597,-490,-840,-140,,,,,,,0x03,
5421,787,-175,596,-630,-910,-210,,,,,,,0x03,
5431,785,-177,593,-770,-910,-210,,,,,,,0x03,
5441,787,-178,590,-630,-840,-140,,,,,,,0x03,
5450,786,-179,587,-490,-700,-140,,,,,,,0x03,
5460,787,-178,585,-280,-490,-140,,,,,,,0x03,
5470,785,-177,584,-140,-350,-70,,,,,,,0x03,
5479,786,-176,583,-140,0,-70,,,,,,,0x03,
5489,785,-176,584,-140,280,140,,,,,,,0x03,
5499,785,-176,589,-350,420,280,,,,,,,0x03,
5508,786,-177,591,-560,560,350,,,,,,,0x03,
5518,784,-178,594,-630,630,350,,,,,,,0x03,
5527,785,-178,597,-630,630,280,,,,,,,0x03,
5537,787,-180,599,-490,560,350,,,,,,,0x03,
5547,785,-180,600,-280,490,350,,,,,,,0x03,
5556,785,-179,600,-140,420,280,,,,,,,0x03,
5566,785,-178,599,-70,280,210,,,,,,,0x03,
5576,784,-178,598,-70,210,210,,,,,,,0x03,
5585,782,-179,599,-210,140,140,,,,,,,0x03,
5595,779,-178,598,-350,70,70,,,,,,,0x03,
5604,780,-176,597,-490,0,70,,,,,,,0x03,
5614,780,-176,598,-630,-70,280,,,,,,,0x03,
5624,780,-178,600,-700,-70,350,,,,,,,0x03,
5633,782,-178,600,-770,-140,350,,,,,,,0x03,
5643,783,-179,602,-700,-280,420,,,,,,,0x03,
5653,783,-181,603,-630,-420,350,,,,,,,0x03,
5662,785,-182,603,-420,-560,280,,,,,,,0x03,
5672,785,-184,602,-350,-770,140,,,,,,,0x03,
5681,783,-185,600,-280,-910,0,,,,,,,0x03,
5691,783,-183,598,-210,-1050,-140,,,,,,,0x03,
5701,783,-183,597,-280,-1120,-210,,,,,,,0x03,
5710,784,-181,596,-280,-1120,-280,,,,,,,0x03,
5720,782,-182,594,-350,-1120,-350,,,,,,,0x03,
5730,783,-180,593,-350,-1050,-350,,,,,,,0x03,
5739,782,-181,592,-350,-910,-280,,,,,,,0x03,
5749,783,-180,593,-210,-770,-280,,,,,,,0x03,
5759,783,-180,592,0,-700,-280,,,,,,,0x03,
5768,783,-178,594,210,-560,-210,,,,,,,0x03,
5778,782,-176,594,280,-560,-70,,,,,,,0x03,
5787,785,-179,593,140,-420,70,,,,,,,0x03,
5797,785,-179,595,70,-420,-70,,,,,,,0x03,
5807,785,-176,596,70,-490,-70,,,,,,,0x03,
5816,787,-176,596,0,-490,0,,,,,,,0x03,
5826,786,-176,593,-70,-420,70,,,,,,,0x03,
5836,786,-176,592,-70,-350,70,,,,,,,0x03,
5845,785,-175,593,-140,-210,140,,,,,,,0x03,
5855,783,-174,594,-210,-210,210,,,,,,,0x03,
5864,783,-174,595,-280,-210,210,,,,,,,0x03,
5874,782,-174,596,-490,-210,280,,,,,,,0x03,
5884,783,-175,597,-560,-210,210,,,,,,,0x03,
5893,783,-177,595,-630,-140,280,,,,,,,0x03,
5903,783,-177,596,-630,-70,210,,,,,,,0x03,
5913,783,-178,597,-560,-140,210,,,,,,,0x03,
5922,783,-179,597,-490,-210,280,,,,,,,0x03,
5932,783,-178,598,-490,-210,280,,,,,,,0x03,
5941,784,-179,598,-490,-350,280,,,,,,,0x03,
5951,783,-181,599,-560,-420,350,,,,,,,0x03,
5961,785,-181,598,-490,-490,350,,,,,,,0x03,
5970,785,-180,595,-350,-560,350,,,,,,,0x03,
5980,786,-181,592,-280,-490,420,,,,,,,0x03,
5990,782,-182,594,-350,-490,420,,,,,,,0x03,
5999,781,-182,596,-420,-420,350,,,,,,,0x03,
6009,782,-182,597,-630,-280,350,,,,,,,0x03,
6019,782,-184,599,-770,-210,210,,,,,,,0x03,
6028,782,-184,599,-840,-210,140,,,,,,,0x03,
6038,781,-184,599,-630,-280,140,,,,,,,0x03,
6047,783,-183,598,-350,-350,70,,,,,,,0x03,
6057,782,-182,598,-140,-350,140,,,,,,,0x03,
6067,780,-183,599,-140,-420,70,,,,,,,0x03,
6076,780,-182,599,-140,-490,0,,,,,,,0x03,
6086,781,-181,599,-70,-490,-70,,,,,,,0x03,
6096,783,-182,598,0,-560,-70,,,,,,,0x03,
6105,782,-182,598,0,-490,-210,,,,,,,0x03,
6115,782,-182,596,-70,-560,-280,,,,,,,0x03,
6124,782,-180,594,-140,-350,-280,,,,,,,0x03,
6134,783,-182,594,-350,-350,-280,,,,,,,0x03,
6144,781,-181,595,-420,-350,-280,,,,,,,0x03,
6153,782,-180,597,-420,-350,-210,,,,,,,0x03,
6163,782,-178,596,-490,-420,-140,,,,,,,0x03,
6173,781,-178,596,-560,-280,-70,,,,,,,0x03,
6182,781,-181,598,-700,-210,0,,,,,,,0x03,
6192,781,-184,599,-700,-280,0,,,,,,,0x03,
6201,780,-184,599,-700,-280,-70,,,,,,,0x03,
6211,779,-183,599,-770,-210,-70,,,,,,,0x03,
6221,780,-182,600,-770,-280,0,,,,,,,0x03,
6230,779,-183,601,-770,-280,0,,,,,,,0x03,
6240,780,-182,601,-560,-350,70,,,,,,,0x03,
6250,780,-181,600,-280,-490,140,,,,,,,0x03,
6259,781,-180,599,-140,-560,210,,,,,,,0x03,
6269,782,-182,597,-70,-560,280,,,,,,,0x03,
6279,784,-184,597,-70,-560,210,,,,,,,0x03,
6288,783,-184,594,-70,-560,0,,,,,,,0x03,
6298,784,-185,594,0,-420,-140,,,,,,,0x03,
6307,783,-187,594,-70,-350,-210,,,,,,,0x03,
6317,780,-186,595,-140,-280,-280,,,,,,,0x03,
6327,780,-182,593,140,-280,-420,,,,,,,0x03,
6336,781,-167,605,490,-350,-280,,,,,,,0x03,
6346,782,-171,603,1260,-560,280,,,,,,,0x03,
6356,780,-185,599,70,-490,420,,,,,,,0x03,
6365,782,-177,594,420,-490,-70,,,,,,,0x03,
6375,782,-187,603,420,-350,0,,,,,,,0x03,
6384,783,-178,601,280,-630,-210,,,,,,,0x03,
6394,782,-177,603,280,-700,-140,,,,,,,0x03,
6404,782,-177,603,-70,-770,-140,,,,,,,0x03,
6413,779,-180,601,-420,-910,0,,,,,,,0x03,
6423,780,-183,598,-560,-840,0,,,,,,,0x03,
6433,781,-183,597,-420,-910,-140,,,,,,,0x03,
6442,782,-181,596,-210,-980,-70,,,,,,,0x03,
6452,785,-180,594,0,-980,70,,,,,,,0x03,
6461,785,-181,594,-70,-840,70,,,,,,,0x03,
6471,782,-182,593,-70,-700,210,,,,,,,0x03,
6481,782,-183,593,-280,-560,140,,,,,,,0x03,
6490,781,-185,595,-350,-490,70,,,,,,,0x03,
6500,781,-183,595,-490,-420,0,,,,,,,0x03,
6510,779,-181,596,-490,-420,0,,,,,,,0x03,
6519,781,-181,598,-560,-350,70,,,,,,,0x03,
6529,782,-184,601,-490,-350,70,,,,,,,0x03,
6539,782,-183,601,-350,-420,0,,,,,,,0x03,
6548,782,-183,600,-280,-420,-70,,,,,,,0x03,
6558,781,-183,599,-140,-420,-140,,,,,,,0x03,
6567,781,-184,599,-70,-420,-210,,,,,,,0x03,
6577,781,-185,599,-70,-490,-280,,,,,,,0x03,
6587,780,-183,598,0,-490,-350,,,,,,,0x03,
6596,781,-183,599,-70,-490,-420,,,,,,,0x03,
6606,780,-184,599,-210,-490,-420,,,,,,,0x03,
6616,780,-185,600,-210,-490,-420,,,,,,,0x03,
6625,780,-186,600,-70,-560,-420,,,,,,,0x03,
6635,781,-183,600,70,-560,-490,,,,,,,0x03,
6644,781,-181,598,210,-490,-420,,,,,,,0x03,
6654,779,-178,600,210,-560,-350,,,,,,,0x03,
6664,778,-178,601,70,-630,-210,,,,,,,0x03,
6673,779,-177,603,0,-630,-140,,,,,,,0x03,
6683,780,-178,602,-70,-700,-70,,,,,,,0x03,
6693,779,-180,601,-280,-700,0,,,,,,,0x03,
6702,780,-179,603,-350,-770,0,,,,,,,0x03,
6712,781,-179,602,-420,-840,0,,,,,,,0x03,
6721,782,-180,602,-420,-910,0,,,,,,,0x03,
6731,781,-181,602,-420,-980,-70,,,,,,,0x03,
6741,780,-182,602,-350,-1120,-140,,,,,,,0x03,
6750,781,-182,601,-350,-1190,-140,,,,,,,0x03,
6760,783,-181,598,-350,-1190,-140,,,,,,,0x03,
6770,782,-179,597,-420,-1190,-210,,,,,,,0x03,
6779,780,-179,598,-560,-1190,-70,,,,,,,0x03,
6789,780,-179,598,-560,-1260,-70,,,,,,,0x03,
6799,781,-179,597,-560,-1190,-70,,,,,,,0x03,
6808,780,-183,597,-560,-1190,-70,,,,,,,0x03,
6818,779,-185,599,-560,-1120,-140,,,,,,,0x03,
6827,780,-186,597,-350,-1120,-210,,,,,,,0x03,
6837,782,-186,597,-140,-1120,-280,,,,,,,0x03,
6847,782,-188,597,0,-1050,-420,,,,,,,0x03,
6856,782,-189,598,140,-1120,-490,,,,,,,0x03,
6866,785,-188,597,210,-1120,-700,,,,,,,0x03,
6876,785,-188,596,350,-1190,-770,,,,,,,0x03,
6885,786,-187,597,420,-1260,-910,,,,,,,0x03,
6895,785,-188,595,630,-1330,-1050,,,,,,,0x03,
6904,783,-187,592,770,-1330,-1120,,,,,,,0x03,
6914,784,-184,591,910,-1190,-1190,,,,,,,0x03,
6924,782,-183,593,980,-980,-1190,,,,,,,0x03,
6933,779,-181,593,980,-840,-1050,,,,,,,0x03,
6943,779,-180,594,910,-700,-980,,,,,,,0x03,
6953,780,-178,596,840,-630,-910,,,,,,,0x03,
6962,781,-175,598,770,-560,-770,,,,,,,0x03,
6972,782,-174,600,700,-560,-700,,,,,,,0x03,
6981,782,-174,602,630,-630,-560,,,,,,,0x03,
6991,783,-172,603,560,-770,-490,,,,,,,0x03,
7001,784,-173,601,490,-910,-490,,,,,,,0x03,
7010,784,-173,599,420,-910,-490,,,,,,,0x03,
7020,784,-172,598,420,-980,-560,,,,,,,0x03,
7030,783,-173,596,280,-980,-490,,,,,,,0x03,
7039,782,-175,592,140,-980,-560,,,,,,,0x03,
7049,782,-174,591,70,-910,-490,,,,,,,0x03,
7059,784,-173,592,-140,-770,-490,,,,,,,0x03,
7068,784,-172,593,-560,-700,-280,,,,,,,0x03,
7078,784,-174,595,-700,-630,-210,,,,,,,0x03,
7087,783,-175,597,-700,-560,-140,,,,,,,0x03,
7097,783,-175,599,-840,-560,70,,,,,,,0x03,
7107,783,-178,600,-840,-630,70,,,,,,,0x03,
7116,782,-178,601,-700,-700,70,,,,,,,0x03,
7126,782,-179,600,-700,-770,140,,,,,,,0x03,
7136,783,-179,598,-770,-770,140,,,,,,,0x03,
7145,781,-182,598,-840,-770,140,,,,,,,0x03,
7155,782,-181,598,-840,-840,70,,,,,,,0x03,
7164,782,-178,595,-770,-840,70,,,,,,,0x03,
7174,783,-176,595,-770,-840,210,,,,,,,0x03,
7184,783,-177,595,-910,-910,420,,,,,,,0x03,
7193,782,-178,596,-1050,-840,490,,,,,,,0x03,
7203,782,-179,596,-1120,-770,420,,,,,,,0x03,
7213,781,-180,596,-1120,-770,490,,,,,,,0x03,
7222,782,-181,599,-980,-840,490,,,,,,,0x03,
7232,782,-182,600,-980,-910,490,,,,,,,0x03,
7241,782,-181,602,-840,-980,350,,,,,,,0x03,
7251,783,-182,601,-700,-1120,280,,,,,,,0x03,
7261,784,-183,600,-560,-1260,280,,,,,,,0x03,
7270,781,-185,599,-350,-1330,140,,,,,,,0x03,
7280,783,-187,598,-280,-1330,0,,,,,,,0x03,
7290,782,-186,597,-210,-1330,-210,,,,,,,0x03,
7299,782,-185,596,-70,-1330,-350,,,,,,,0x03,
7309,780,-184,595,-70,-1330,-350,,,,,,,0x03,
7319,780,-184,596,-140,-1330,-420,,,,,,,0x03,
7328,781,-184,597,-140,-1330,-420,,,,,,,0x03,
7338,782,-185,598,-70,-1400,-420,,,,,,,0x03,
7347,783,-184,598,-70,-1470,-490,,,,,,,0x03,
7357,783,-186,599,-70,-1540,-490,,,,,,,0x03,
7367,783,-187,600,0,-1610,-560,,,,,,,0x03,
7376,782,-185,599,140,-1610,-630,,,,,,,0x03,
7386,782,-183,599,280,-1750,-700,,,,,,,0x03,
7396,783,-183,598,280,-1750,-630,,,,,,,0x03,
7405,782,-182,596,350,-1750,-630,,,,,,,0x03,
7415,783,-181,594,350,-1750,-630,,,,,,,0x03,
7424,784,-183,593,280,-1750,-700,,,,,,,0x03,
7434,786,-183,592,210,-1750,-770,,,,,,,0x03,
7444,785,-183,593,140,-1680,-840,,,,,,,0x03,
7453,785,-183,591,210,-1680,-910,,,,,,,0x03,
7463,785,-181,591,280,-1610,-840,,,,,,,0x03,
7473,785,-179,591,350,-1610,-840,,,,,,,0x03,
7482,785,-178,594,350,-1540,-770,,,,,,,0x03,
7492,785,-177,595,210,-1610,-770,,,,,,,0x03,
7501,787,-177,594,70,-1680,-770,,,,,,,0x03,
7511,787,-179,592,70,-1610,-910,,,,,,,0x03,
7521,788,-178,590,70,-1540,-980,,,,,,,0x03,
7530,788,-176,590,140,-1470,-980,,,,,,,0x03,
7540,787,-176,590,280,-1470,-840,,,,,,,0x03,
7550,787,-175,590,210,-1470,-840,,,,,,,0x03,
7559,787,-176,590,140,-1330,-700,,,,,,,0x03,
7569,788,-178,587,70,-1260,-770,,,,,,,0x03,
7579,789,-179,585,210,-1120,-840,,,,,,,0x03,
7588,790,-178,583,280,-910,-840,,,,,,,0x03,
7598,790,-177,582,350,-700,-840,,,,,,,0x03,
7607,790,-173,582,350,-490,-630,,,,,,,0x03,
7617,789,-169,584,210,-280,-420,,,,,,,0x03,
7627,789,-167,586,70,-70,-280,,,,,,,0x03,
7636,787,-169,588,-280,70,-70,,,,,,,0x03,
7646,787,-169,590,-420,210,0,,,,,,,0x03,
7656,788,-171,591,-420,280,0,,,,,,,0x03,
7665,787,-171,592,-350,280,70,,,,,,,0x03,
7675,788,-174,594,-280,350,140,,,,,,,0x03,
7684,788,-177,593,-280,420,0,,,,,,,0x03,
7694,787,-178,592,-70,420,-70,,,,,,,0x03,
7704,787,-179,591,0,420,-140,,,,,,,0x03,
7713,787,-177,592,0,420,-140,,,,,,,0x03,
7723,786,-175,593,-70,420,-70,,,,,,,0x03,
7733,786,-174,594,-280,350,-70,,,,,,,0x03,
7742,785,-173,595,-420,280,0,,,,,,,0x03,
7752,785,-174,595,-490,280,140,,,,,,,0x03,
7761,784,-176,596,-560,210,210,,,,,,,0x03,
7771,784,-179,598,-490,210,210,,,,,,,0x03,
7781,783,-180,598,-280,140,210,,,,,,,0x03,
7790,782,-181,599,-70,140,140,,,,,,,0x03,
7800,782,-182,598,70,210,70,,,,,,,0x03,
7810,782,-184,598,140,140,70,,,,,,,0x03,
7819,781,-183,597,280,140,-70,,,,,,,0x03,
7829,782,-181,588,350,140,-210,,,,,,,0x03,
7839,782,-180,593,490,420,-140,,,,,,,0x03,
7848,780,-179,596,280,420,-70,,,,,,,0x03,
7858,782,-178,596,140,420,0,,,,,,,0x03,
7867,783,-175,598,210,490,-140,,,,,,,0x03,
7877,782,-176,601,0,420,70,,,,,,,0x03,
7887,783,-180,603,-70,350,140,,,,,,,0x03,
7896,784,-179,602,70,210,0,,,,,,,0x03,
7906,784,-179,601,280,140,-70,,,,,,,0x03,
7916,782,-182,601,280,140,-140,,,,,,,0x03,
7925,782,-181,602,280,-70,-210,,,,,,,0x03,
7935,781,-181,601,210,-210,-280,,,,,,,0x03,
7944,781,-179,599,140,-280,-210,,,,,,,0x03,
7954,781,-178,598,-70,-280,-210,,,,,,,0x03,
7964,779,-177,598,-280,-280,-140,,,,,,,0x03,
7973,780,-175,598,-350,-350,-70,,,,,,,0x03,
7983,782,-174,599,-210,-420,-70,,,,,,,0x03,
7993,782,-175,600,-210,-490,70,,,,,,,0x03,
8002,781,-177,600,-280,-560,70,,,,,,,0x03,
8012,782,-177,598,-210,-630,70,,,,,,,0x03,
8021,784,-177,598,-140,-630,140,,,,,,,0x03,
8031,784,-174,596,-210,-700,140,,,,,,,0x03,
8041,785,-174,595,-420,-630,210,,,,,,,0x03,
8050,784,-174,596,-630,-700,210,,,,,,,0x03,
8060,783,-173,597,-840,-700,280,,,,,,,0x03,
8070,781,-173,598,-910,-700,350,,,,,,,0x03,
8079,782,-173,598,-910,-700,350,,,,,,,0x03,
8089,782,-174,598,-910,-840,420,,,,,,,0x03,
8099,783,-174,599,-910,-840,420,,,,,,,0x03,
8108,783,-177,599,-910,-910,490,,,,,,,0x03,
8118,782,-177,600,-980,-910,490,,,,,,,0x03,
8127,783,-176,599,-980,-980,420,,,,,,,0x03,
8137,782,-178,598,-980,-910,420,,,,,,,0x03,
8147,780,-179,598,-980,-910,490,,,,,,,0x03,
8156,780,-179,597,-910,-840,420,,,,,,,0x03,
8166,780,-180,596,-910,-770,420,,,,,,,0x03,
8176,781,-182,597,-910,-700,350,,,,,,,0x03,
8185,782,-185,595,-770,-700,350,,,,,,,0x03,
8195,784,-185,594,-630,-630,280,,,,,,,0x03,
8204,785,-186,594,-490,-560,210,,,,,,,0x03,
8214,784,-187,593,-420,-490,210,,,,,,,0x03,
8224,783,-188,594,-350,-350,140,,,,,,,0x03,
8233,783,-186,595,-280,-280,70,,,,,,,0x03,
8243,781,-184,596,-280,-280,0,,,,,,,0x03,
8253,782,-183,597,-280,-210,70,,,,,,,0x03,
8262,780,-184,598,-350,-210,0,,,,,,,0x03,
8272,780,-184,601,-280,-210,70,,,,,,,0x03,
8281,781,-181,601,-70,-280,70,,,,,,,0x03,
8291,782,-180,603,0,-350,70,,,,,,,0x03,
8301,782,-179,603,70,-490,0,,,,,,,0x03,
8310,783,-179,602,0,-700,0,,,,,,,0x03,
8320,783,-177,602,-70,-840,0,,,,,,,0x03,
8330,782,-177,600,-210,-980,70,,,,,,,0x03,
8339,782,-176,599,-280,-1120,70,,,,,,,0x03,
8349,782,-177,598,-350,-1190,0,,,,,,,0x03,
8359,781,-179,597,-560,-1190,70,,,,,,,0x03,
8368,783,-181,596,-630,-1190,0,,,,,,,0x03,
8378,784,-182,595,-630,-1190,-70,,,,,,,0x03,
8387,783,-183,595,-490,-1190,-70,,,,,,,0x03,
8397,783,-182,595,-420,-1190,-70,,,,,,,0x03,
8407,783,-182,596,-420,-1190,-140,,,,,,,0x03,
8416,784,-183,596,-490,-1190,-140,,,,,,,0x03,
8426,783,-183,597,-420,-1190,-210,,,,,,,0x03,
8436,782,-183,597,-420,-1190,-280,,,,,,,0x03,
8445,783,-182,595,-280,-1260,-280,,,,,,,0x03,
8455,782,-183,594,-140,-1120,-280,,,,,,,0x03,
8464,782,-185,595,-140,-1050,-210,,,,,,,0x03,
8474,780,-185,596,-140,-1050,-280,,,,,,,0x03,
8484,780,-183,597,0,-1120,-350,,,,,,,0x03,
8493,782,-182,597,70,-1120,-280,,,,,,,0x03,
8503,780,-182,599,0,-980,-280,,,,,,,0x03,
8513,781,-184,599,-70,-980,-280,,,,,,,0x03,
8522,781,-184,598,-70,-980,-350,,,,,,,0x03,
8532,784,-183,597,0,-980,-420,,,,,,,0x03,
8541,784,-182,595,140,-1050,-490,,,,,,,0x03,
8551,786,-182,594,140,-1050,-490,,,,,,,0x03,
8561,785,-183,593,210,-1050,-490,,,,,,,0x03,
8570,785,-183,593,210,-1050,-560,,,,,,,0x03,
8580,784,-182,594,140,-1050,-560,,,,,,,0x03,
8590,782,-182,593,210,-980,-630,,,,,,,0x03,
8599,785,-181,594,280,-910,-630,,,,,,,0x03,
8609,784,-181,595,280,-840,-560,,,,,,,0x03,
8619,783,-185,594,210,-840,-630,,,,,,,0x03,
8628,783,-184,595,420,-770,-770,,,,,,,0x03,
8638,784,-183,595,700,-700,-840,,,,,,,0x03,
8647,785,-179,595,840,-630,-840,,,,,,,0x03,
8657,784,-177,595,840,-560,-840,,,,,,,0x03,
8667,784,-173,595,840,-560,-700,,,,,,,0x03,
8676,785,-171,595,630,-490,-630,,,,,,,0x03,
8686,784,-172,594,350,-490,-560,,,,,,,0x03,
8696,784,-173,594,140,-490,-560,,,,,,,0x03,
8705,785,-172,595,0,-490,-560,,,,,,,0x03,
8715,785,-174,596,-70,-490,-350,,,,,,,0x03,
8724,785,-173,595,-140,-490,-280,,,,,,,0x03,
8734,784,-173,594,-70,-490,-140,,,,,,,0x03,
8744,786,-172,593,-70,-420,0,,,,,,,0x03,
8753,787,-172,591,-70,-420,70,,,,,,,0x03,
8763,785,-174,589,-70,-350,140,,,,,,,0x03,
8773,784,-177,590,-280,-210,210,,,,,,,0x03,
8782,784,-179,591,-560,-70,140,,,,,,,0x03,
8792,783,-179,593,-770,70,140,,,,,,,0x03,
8801,783,-178,593,-980,140,140,,,,,,,0x03,
8811,782,-178,595,-1050,210,210,,,,,,,0x03,
8821,783,-179,597,-1050,210,350,,,,,,,0x03,
8830,781,-180,599,-910,210,350,,,,,,,0x03,
8840,781,-180,600,-630,140,350,,,,,,,0x03,
8850,782,-180,601,-350,70,350,,,,,,,0x03,
8859,783,-182,599,-210,0,280,,,,,,,0x03,
8869,782,-182,600,-210,-140,280,,,,,,,0x03,
8879,781,-182,598,-210,-140,140,,,,,,,0x03,
8888,781,-183,599,-280,-210,140,,,,,,,0x03,
8898,780,-184,599,-280,-210,70,,,,,,,0x03,
8907,781,-185,598,-140,-280,-70,,,,,,,0x03,
8917,782,-184,599,-70,-350,-140,,,,,,,0x03,
8927,782,-185,598,70,-350,-210,,,,,,,0x03,
8936,783,-185,597,140,-350,-210,,,,,,,0x03,
8946,783,-183,598,280,-280,-280,,,,,,,0x03,
8956,781,-184,599,350,-280,-280,,,,,,,0x03,
8965,780,-182,600,420,-350,-350,,,,,,,0x03,
8975,779,-182,600,420,-420,-420,,,,,,,0x03,
8984,780,-182,601,350,-420,-420,,,,,,,0x03,
8994,779,-183,602,140,-490,-560,,,,,,,0x03,
9004,780,-181,602,140,-630,-630,,,,,,,0x03,
9013,782,-179,600,210,-700,-560,,,,,,,0x03,
9023,783,-177,599,280,-630,-490,,,,,,,0x03,
9033,781,-176,600,210,-700,-350,,,,,,,0x03,
9042,781,-175,600,210,-700,-350,,,,,,,0x03,
9052,781,-174,600,70,-840,-210,,,,,,,0x03,
9061,782,-175,599,0,-840,-140,,,,,,,0x03,
9071,781,-178,597,-280,-770,-70,,,,,,,0x03,
9081,781,-181,597,-490,-770,-140,,,,,,,0x03,
9090,783,-181,597,-490,-770,-280,,,,,,,0x03,
9100,782,-180,598,-280,-770,-280,,,,,,,0x03,
9110,783,-179,598,-210,-840,-280,,,,,,,0x03,
9119,783,-177,596,-70,-840,-210,,,,,,,0x03,
9129,784,-173,593,0,-770,-140,,,,,,,0x03,
9139,784,-173,593,-70,-700,0,,,,,,,0x03,
9148,783,-172,594,-210,-630,70,,,,,,,0x03,
9158,784,-173,595,-350,-560,70,,,,,,,0x03,
9167,783,-175,596,-560,-560,0,,,,,,,0x03,
9177,782,-176,595,-700,-490,0,,,,,,,0x03,
9187,782,-180,596,-840,-490,0,,,,,,,0x03,
9196,783,-180,596,-700,-420,0,,,,,,,0x03,
9206,782,-179,597,-560,-420,0,,,,,,,0x03,
9216,783,-178,598,-420,-420,140,,,,,,,0x03,
9225,782,-177,598,-350,-420,210,,,,,,,0x03,
9235,782,-175,599,-350,-490,210,,,,,,,0x03,
9244,782,-176,600,-350,-490,280,,,,,,,0x03,
9254,781,-178,599,-420,-490,350,,,,,,,0x03,
9264,781,-179,601,-490,-560,350,,,,,,,0x03,
9273,782,-180,599,-560,-560,350,,,,,,,0x03,
9283,781,-183,600,-630,-700,350,,,,,,,0x03,
9293,780,-186,601,-560,-770,210,,,,,,,0x03,
9302,781,-188,600,-350,-770,70,,,,,,,0x03,
9312,781,-190,598,-70,-770,-70,,,,,,,0x03,
9321,781,-190,597,140,-630,-280,,,,,,,0x03,
9331,780,-190,597,420,-630,-420,,,,,,,0x03,
9341,780,-189,596,560,-560,-490,,,,,,,0x03,
9350,778,-189,596,770,-490,-560,,,,,,,0x03,
9360,778,-185,598,840,-420,-700,,,,,,,0x03,
9370,779,-185,599,840,-350,-770,,,,,,,0x03,
9379,780,-183,599,910,-350,-770,,,,,,,0x03,
9389,782,-181,600,980,-350,-700,,,,,,,0x03,
9399,783,-181,601,1050,-420,-700,,,,,,,0x03,
9408,783,-179,600,1120,-490,-700,,,,,,,0x03,
9418,783,-178,599,1120,-630,-630,,,,,,,0x03,
9427,784,-181,597,980,-700,-560,,,,,,,0x03,
9437,785,-180,593,910,-770,-770,,,,,,,0x03,
9447,784,-179,594,980,-770,-700,,,,,,,0x03,
9456,786,-177,595,840,-700,-700,,,,,,,0x03,
9466,785,-175,596,630,-700,-630,,,,,,,0x03,
9476,785,-171,597,350,-630,-560,,,,,,,0x03,
9485,782,-168,597,140,-560,-490,,,,,,,0x03,
9495,782,-165,599,-210,-560,-350,,,,,,,0x03,
9504,782,-164,601,-420,-700,-210,,,,,,,0x03,
9514,784,-163,604,-560,-840,-70,,,,,,,0x03,
9524,783,-162,606,-700,-980,70,,,,,,,0x03,
9533,782,-164,605,-980,-1120,210,,,,,,,0x03,
9543,783,-168,603,-1120,-1120,210,,,,,,,0x03,
9553,782,-173,601,-1190,-1120,210,,,,,,,0x03,
9562,782,-176,598,-1050,-1190,70,,,,,,,0x03,
9572,782,-177,596,-980,-1190,0,,,,,,,0x03,
9581,783,-177,594,-1050,-1120,0,,,,,,,0x03,
9591,782,-180,592,-1120,-980,-70,,,,,,,0x03,
9601,782,-182,592,-1190,-840,-140,,,,,,,0x03,
9610,783,-185,592,-1050,-700,-210,,,,,,,0x03,
9620,784,-185,592,-840,-560,-210,,,,,,,0x03,
9630,783,-185,591,-630,-350,-210,,,,,,,0x03,
9639,782,-186,591,-420,-210,-210,,,,,,,0x03,
9649,782,-184,592,-210,-70,-210,,,,,,,0x03,
9659,780,-181,594,0,140,-210,,,,,,,0x03,
9668,779,-179,597,0,210,0,,,,,,,0x03,
9678,778,-179,600,-210,210,140,,,,,,,0x03,
9687,780,-179,604,-350,140,140,,,,,,,0x03,
9697,780,-179,604,-490,70,210,,,,,,,0x03,
9707,780,-180,606,-560,-70,140,,,,,,,0x03,
9716,781,-180,607,-490,-210,210,,,,,,,0x03,
9726,782,-180,605,-350,-350,280,,,,,,,0x03,
9736,781,-180,603,-210,-490,210,,,,,,,0x03,
9745,781,-178,600,-70,-630,210,,,,,,,0x03,
9755,781,-177,600,-70,-700,210,,,,,,,0x03,
9764,782,-177,600,-210,-770,140,,,,,,,0x03,
9774,781,-178,599,-350,-840,140,,,,,,,0x03,
9784,781,-179,599,-560,-910,70,,,,,,,0x03,
9793,780,-180,599,-700,-910,0,,,,,,,0x03,
9803,779,-182,600,-840,-910,-70,,,,,,,0x03,
9813,778,-183,598,-770,-910,-140,,,,,,,0x03,
9822,780,-184,597,-770,-840,-140,,,,,,,0x03,
9832,782,-184,595,-840,-770,-210,,,,,,,0x03,
9841,782,-184,597,-1050,-700,-210,,,,,,,0x03,
9851,781,-181,601,-1120,-770,-210,,,,,,,0x03,
9861,780,-178,604,-910,-910,-140,,,,,,,0x03,
9870,781,-170,603,-910,-980,0,,,,,,,0x03,
9880,780,-172,606,-1260,-1120,350,,,,,,,0x03,
9890,780,-178,606,-1470,-1260,420,,,,,,,0x03,
9899,781,-178,603,-1190,-1400,280,,,,,,,0x03,
9909,783,-178,601,-770,-1610,350,,,,,,,0x03,
9919,782,-184,598,-630,-1610,350,,,,,,,0x03,
9928,782,-191,594,-630,-1610,210,,,,,,,0x03,
9938,784,-192,591,-420,-1540,-140,,,,,,,0x03,
9947,784,-191,590,-140,-1400,-350,,,,,,,0x03,
9957,784,-189,588,140,-1190,-560,,,,,,,0x03,
9967,785,-186,587,210,-1120,-630,,,,,,,0x03,
9976,783,-184,587,140,-840,-700,,,,,,,0x03,
9986,781,-184,590,70,-630,-770,,,,,,,0x03,
9996,782,-182,594,140,-490,-910,,,,,,,0x03,
10005,781,-181,598,280,-420,-910,,,,,,,0x03,
10015,781,-181,601,490,-420,-910,,,,,,,0x03,
10024,781,-182,604,630,-490,-910,,,,,,,0x03,
10034,781,-181,606,840,-560,-980,,,,,,,0x03,
10044,782,-182,606,1190,-770,-1050,,,,,,,0x03,
10053,782,-181,605,1470,-980,-1050,,,,,,,0x03,
10063,782,-181,603,1610,-1190,-1050,,,,,,,0x03,
10073,782,-183,600,1680,-1260,-1050,,,,,,,0x03,
10082,782,-182,596,1540,-1260,-1190,,,,,,,0x03,
10092,783,-182,594,1330,-1260,-1260,,,,,,,0x03,
10101,782,-181,595,910,-1190,-1260,,,,,,,0x03,
10111,782,-180,595,630,-1120,-1190,,,,,,,0x03,
10121,781,-178,596,490,-1120,-1190,,,,,,,0x03,
10130,781,-178,597,490,-980,-1050,,,,,,,0x03,
10140,780,-178,598,630,-980,-980,,,,,,,0x03,
10150,781,-177,597,770,-980,-910,,,,,,,0x03,
10159,782,-174,595,1050,-980,-840,,,,,,,0x03,
10169,783,-156,604,1260,-1050,-630,,,,,,,0x03,
10179,781,-166,602,1400,-1120,-70,,,,,,,0x03,
10188,779,-180,598,210,-980,-140,,,,,,,0x03,
10198,781,-174,596,280,-1050,-630,,,,,,,0x03,
10207,786,-170,598,630,-1050,-490,,,,,,,0x03,
10217,789,-170,597,280,-1190,-280,,,,,,,0x03,
10227,788,-173,596,-140,-1260,-210,,,,,,,0x03,
10236,786,-172,595,-280,-1330,-280,,,,,,,0x03,
10246,785,-172,594,-280,-1330,-280,,,,,,,0x03,
10256,787,-172,593,-210,-1400,-280,,,,,,,0x03,
10265,787,-170,593,-210,-1330,-280,,,,,,,0x03,
10275,786,-171,593,-210,-1330,-210,,,,,,,0x03,
10284,784,-172,594,-350,-1260,-140,,,,,,,0x03,
10294,783,-172,594,-420,-1120,-140,,,,,,,0x03,
10304,784,-174,594,-420,-1050,-140,,,,,,,0x03,
10313,783,-174,595,-490,-980,-70,,,,,,,0x03,
10323,784,-175,598,-420,-910,-70,,,,,,,0x03,
10333,785,-177,598,-420,-910,-70,,,,,,,0x03,
10342,785,-177,598,-280,-980,-70,,,,,,,0x03,
10352,785,-178,597,-210,-980,-140,,,,,,,0x03,
10361,784,-179,594,-210,-910,-280,,,,,,,0x03,
10371,784,-179,592,-280,-840,-280,,,,,,,0x03,
10381,785,-179,592,-210,-840,-280,,,,,,,0x03,
10390,783,-178,593,-140,-700,-280,,,,,,,0x03,
10400,783,-177,594,-70,-700,-280,,,,,,,0x03,
10410,783,-176,595,-70,-700,-210,,,,,,,0x03,
10419,784,-175,597,-280,-700,-140,,,,,,,0x03,
10429,784,-175,598,-420,-700,-70,,,,,,,0x03,
10439,784,-175,600,-420,-770,-70,,,,,,,0x03,
10448,782,-176,600,-490,-840,0,,,,,,,0x03,
10458,781,-177,601,-490,-910,0,,,,,,,0x03,
10467,781,-175,600,-560,-980,0,,,,,,,0x03,
10477,782,-177,598,-560,-1050,70,,,,,,,0x03,
10487,783,-179,597,-490,-1050,0,,,,,,,0x03,
10496,783,-179,597,-350,-1050,0,,,,,,,0x03,
10506,784,-178,598,-280,-1190,-70,,,,,,,0x03,
10516,784,-177,596,-280,-1260,-140,,,,,,,0x03,
10525,785,-178,596,-280,-1260,-210,,,,,,,0x03,
10535,786,-177,593,-350,-1260,-350,,,,,,,0x03,
10544,786,-176,592,-350,-1190,-280,,,,,,,0x03,
10554,785,-176,593,-210,-1190,-210,,,,,,,0x03,
10564,787,-176,591,-210,-1120,-210,,,,,,,0x03,
10573,785,-176,592,-350,-1050,-140,,,,,,,0x03,
10583,784,-176,591,-420,-910,-140,,,,,,,0x03,
10593,785,-174,593,-560,-910,-140,,,,,,,0x03,
10602,785,-174,595,-630,-840,-70,,,,,,,0x03,
10612,785,-174,597,-700,-840,70,,,,,,,0x03,
10621,785,-175,599,-770,-910,140,,,,,,,0x03,
10631,784,-175,598,-700,-980,140,,,,,,,0x03,
10641,785,-172,597,-700,-1120,210,,,,,,,0x03,
10650,785,-174,597,-840,-1190,210,,,,,,,0x03,
10660,785,-176,598,-910,-1190,280,,,,,,,0x03,
10670,786,-175,598,-840,-1260,210,,,,,,,0x03,
10679,786,-175,594,-770,-1330,140,,,,,,,0x03,
10689,786,-179,593,-770,-1330,140,,,,,,,0x03,
10699,784,-180,592,-770,-1330,70,,,,,,,0x03,
10708,784,-180,591,-700,-1260,0,,,,,,,0x03,
10718,787,-177,589,-560,-1190,0,,,,,,,0x03,
10727,787,-176,589,-630,-1050,70,,,,,,,0x03,
10737,787,-176,590,-770,-980,140,,,,,,,0x03,
10747,787,-180,589,-840,-840,140,,,,,,,0x03,
10756,788,-180,589,-770,-700,140,,,,,,,0x03,
10766,788,-180,589,-560,-700,140,,,,,,,0x03,
10776,788,-182,589,-490,-560,70,,,,,,,0x03,
10785,787,-183,589,-350,-490,0,,,,,,,0x03,
10795,787,-183,590,-210,-420,-140,,,,,,,0x03,
10804,788,-184,588,0,-350,-280,,,,,,,0x03,
10814,789,-182,586,140,-210,-280,,,,,,,0x03,
10824,785,-180,589,210,-140,-280,,,,,,,0x03,
10833,786,-180,589,140,-70,-280,,,,,,,0x03,
10843,786,-180,591,70,70,-350,,,,,,,0x03,
10853,785,-179,593,0,70,-350,,,,,,,0x03,
10862,784,-177,596,-140,140,-280,,,,,,,0x03,
10872,785,-175,596,-140,140,-140,,,,,,,0x03,
10881,786,-175,597,-140,70,0,,,,,,,0x03,
10891,784,-176,598,-140,70,70,,,,,,,0x03,
10901,783,-174,599,-70,0,70,,,,,,,0x03,
10910,783,-173,599,-70,-140,140,,,,,,,0x03,
10920,782,-173,600,-210,-210,210,,,,,,,0x03,
10930,784,-174,599,-280,-350,280,,,,,,,0x03,
10939,783,-176,599,-420,-420,350,,,,,,,0x03,
10949,782,-177,599,-490,-490,420,,,,,,,0x03,
10959,784,-177,599,-560,-630,350,,,,,,,0x03,
10968,784,-178,595,-560,-700,350,,,,,,,0x03,
10978,782,-180,594,-560,-630,280,,,,,,,0x03,
10987,782,-181,594,-560,-630,280,,,,,,,0x03,
10997,782,-180,594,-490,-560,280,,,,,,,0x03,
11007,783,-179,592,-350,-490,280,,,,,,,0x03,
11016,781,-179,592,-350,-280,280,,,,,,,0x03,
11026,783,-179,593,-490,-280,420,,,,,,,0x03,
11036,784,-176,593,-490,-210,490,,,,,,,0x03,
11045,788,-175,592,-490,-280,560,,,,,,,0x03,
11055,789,-176,593,-420,-210,770,,,,,,,0x03,
11064,788,-177,595,-490,-210,910,,,,,,,0x03,
11074,787,-176,594,-490,-280,840,,,,,,,0x03,
11084,789,-177,592,-420,-280,770,,,,,,,0x03,
11093,786,-178,590,-420,-140,770,,,,,,,0x03,
11103,784,-179,591,-560,-70,700,,,,,,,0x03,
11113,782,-179,593,-700,0,770,,,,,,,0x03,
11122,781,-178,595,-700,70,700,,,,,,,0x03,
11132,782,-178,597,-770,140,700,,,,,,,0x03,
11141,783,-178,598,-840,140,770,,,,,,,0x03,
11151,784,-179,601,-840,70,700,,,,,,,0x03,
11161,783,-181,604,-840,-70,700,,,,,,,0x03,
11170,783,-183,605,-840,-280,560,,,,,,,0x03,
11180,784,-182,604,-770,-490,490,,,,,,,0x03,
11190,783,-182,603,-700,-630,420,,,,,,,0x03,
11199,781,-186,601,-700,-700,350,,,,,,,0x03,
11209,780,-187,599,-560,-840,210,,,,,,,0x03,
11219,781,-186,597,-280,-910,140,,,,,,,0x03,
11228,781,-185,596,-140,-980,210,,,,,,,0x03,
11238,781,-186,594,-210,-1050,210,,,,,,,0x03,
11247,781,-186,594,-350,-980,280,,,,,,,0x03,
11257,781,-186,594,-490,-910,350,,,,,,,0x03,
11267,781,-186,594,-630,-910,350,,,,,,,0x03,
11276,782,-186,596,-700,-910,350,,,,,,,0x03,
11286,782,-188,597,-770,-980,490,,,,,,,0x03,
11296,782,-187,596,-700,-980,420,,,,,,,0x03,
11305,782,-188,595,-630,-910,420,,,,,,,0x03,
11315,781,-184,596,-560,-980,420,,,,,,,0x03,
11324,782,-182,594,-490,-980,420,,,,,,,0x03,
11334,784,-183,592,-630,-910,490,,,,,,,0x03,
11344,783,-185,595,-770,-910,490,,,,,,,0x03,
11353,783,-184,597,-770,-980,420,,,,,,,0x03,
11363,784,-184,595,-700,-1050,350,,,,,,,0x03,
11373,785,-184,593,-630,-980,280,,,,,,,0x03,
11382,786,-188,593,-560,-910,280,,,,,,,0x03,
11392,787,-187,592,-350,-770,140,,,,,,,0x03,
11401,786,-185,590,-70,-770,70,,,,,,,0x03,
11411,785,-186,587,70,-630,70,,,,,,,0x03,
11421,785,-184,587,140,-420,0,,,,,,,0x03,
11430,784,-182,587,140,-280,0,,,,,,,0x03,
11440,785,-181,585,0,-140,0,,,,,,,0x03,
11450,785,-179,585,-140,70,70,,,,,,,0x03,
11459,783,-179,588,-350,350,210,,,,,,,0x03,
11469,782,-179,591,-490,420,280,,,,,,,0x03,
11479,784,-178,593,-490,560,350,,,,,,,0x03,
11488,785,-180,596,-490,560,490,,,,,,,0x03,
11498,783,-180,598,-630,630,560,,,,,,,0x03,
11507,781,-181,600,-700,560,560,,,,,,,0x03,
11517,782,-182,601,-630,420,560,,,,,,,0x03,
11527,781,-183,600,-700,280,560,,,,,,,0x03,
11536,780,-186,602,-770,140,560,,,,,,,0x03,
11546,780,-186,602,-700,70,490,,,,,,,0x03,
11556,780,-187,602,-560,-140,420,,,,,,,0x03,
11565,781,-189,599,-490,-210,350,,,,,,,0x03,
11575,781,-188,597,-280,-210,280,,,,,,,0x03,
11584,782,-188,596,-210,-280,350,,,,,,,0x03,
11594,781,-187,596,-280,-280,350,,,,,,,0x03,
11604,780,-187,595,-420,-210,350,,,,,,,0x03,
11613,780,-187,593,-490,-140,350,,,,,,,0x03,
11623,780,-187,594,-560,0,350,,,,,,,0x03,
11633,779,-186,598,-700,-70,420,,,,,,,0x03,
11642,779,-186,600,-770,-70,490,,,,,,,0x03,
11652,779,-185,601,-840,-140,490,,,,,,,0x03,
11661,780,-186,604,-770,-280,560,,,,,,,0x03,
11671,780,-186,604,-700,-420,560,,,,,,,0x03,
11681,780,-189,601,-560,-490,560,,,,,,,0x03,
11690,780,-191,601,-350,-560,490,,,,,,,0x03,
11700,781,-193,599,-280,-630,280,,,,,,,0x03,
11710,781,-193,597,-70,-630,210,,,,,,,0x03,
11719,782,-192,596,-70,-630,140,,,,,,,0x03,
11729,781,-191,595,-140,-630,70,,,,,,,0x03,
11739,781,-190,594,-210,-560,-70,,,,,,,0x03,
11748,781,-189,591,-210,-490,-70,,,,,,,0x03,
11758,781,-187,591,-140,-350,-70,,,,,,,0x03,
11767,781,-185,593,-210,-280,0,,,,,,,0x03,
11777,781,-183,593,-280,-210,70,,,,,,,0x03,
11787,782,-185,595,-420,-140,140,,,,,,,0x03,
11796,781,-186,597,-560,-70,210,,,,,,,0x03,
11806,780,-188,599,-560,-140,210,,,,,,,0x03,
11816,781,-190,600,-490,-210,210,,,,,,,0x03,
11825,779,-190,601,-420,-210,140,,,,,,,0x03,
11835,779,-191,600,-280,-280,70,,,,,,,0x03,
11844,778,-190,601,-210,-350,0,,,,,,,0x03,
11854,778,-190,601,-140,-350,-70,,,,,,,0x03,
11864,777,-189,600,-210,-420,-70,,,,,,,0x03,
11873,779,-189,600,-210,-490,-140,,,,,,,0x03,
11883,780,-189,600,-280,-630,-70,,,,,,,0x03,
11893,781,-189,601,-280,-700,-70,,,,,,,0x03,
11902,779,-189,602,-280,-840,-70,,,,,,,0x03,
11912,782,-192,602,-350,-980,-140,,,,,,,0x03,
11921,782,-190,597,-280,-1120,-210,,,,,,,0x03,
11931,782,-189,595,-210,-1120,-210,,,,,,,0x03,
11941,780,-189,594,-140,-1050,-140,,,,,,,0x03,
11950,779,-188,594,-70,-980,-140,,,,,,,0x03,
11960,778,-187,596,-70,-910,-70,,,,,,,0x03,
11970,779,-186,598,-140,-840,-70,,,,,,,0x03,
11979,779,-186,597,-280,-770,0,,,,,,,0x03,
11989,779,-186,600,-420,-700,0,,,,,,,0x03,
11999,777,-187,600,-420,-630,0,,,,,,,0x03,
12008,779,-186,601,-280,-630,-70,,,,,,,0x03,
12018,781,-186,599,-70,-700,-70,,,,,,,0x03,
12027,781,-187,599,140,-630,-70,,,,,,,0x03,
12037,781,-188,596,210,-630,-70,,,,,,,0x03,
12047,780,-188,596,280,-560,-140,,,,,,,0x03,
12056,779,-189,595,280,-490,-210,,,,,,,0x03,
12066,779,-187,596,210,-490,-210,,,,,,,0x03,
12076,780,-185,595,70,-490,-210,,,,,,,0x03,
12085,782,-185,596,-70,-420,-70,,,,,,,0x03,
12095,780,-186,598,-210,-420,-70,,,,,,,0x03,
12104,780,-186,599,-210,-420,0,,,,,,,0x03,
12114,780,-185,599,-280,-560,70,,,,,,,0x03,
12124,780,-187,599,-280,-560,0,,,,,,,0x03,
12133,779,-188,599,-350,-560,70,,,,,,,0x03,
12143,779,-189,599,-420,-630,0,,,,,,,0x03,
12153,780,-188,598,-280,-700,0,,,,,,,0x03,
12162,779,-189,597,-210,-630,70,,,,,,,0x03,
12172,780,-188,595,-140,-630,70,,,,,,,0x03,
12181,781,-189,595,-140,-560,70,,,,,,,0x03,
12191,781,-189,596,-210,-490,70,,,,,,,0x03,
12201,781,-189,597,-280,-560,70,,,,,,,0x03,
12210,782,-189,597,-280,-560,0,,,,,,,0x03,
12220,784,-188,597,-280,-560,0,,,,,,,0x03,
12230,781,-190,598,-350,-630,0,,,,,,,0x03,
12239,781,-190,597,-280,-560,0,,,,,,,0x03,
12249,780,-188,597,-280,-630,0,,,,,,,0x03,
12259,780,-188,597,-210,-630,-70,,,,,,,0x03,
12268,779,-186,597,-210,-700,70,,,,,,,0x03,
12278,779,-185,598,-350,-700,70,,,,,,,0x03,
12287,777,-186,599,-420,-700,140,,,,,,,0x03,
12297,780,-188,601,-490,-700,140,,,,,,,0x03,
12307,779,-190,599,-420,-700,70,,,,,,,0x03,
12316,779,-191,599,-350,-630,0,,,,,,,0x03,
12326,779,-191,599,-350,-630,-70,,,,,,,0x03,
12336,778,-193,599,-350,-630,-70,,,,,,,0x03,
12345,778,-191,598,-280,-630,-140,,,,,,,0x03,
12355,780,-189,597,-210,-700,-140,,,,,,,0x03,
12364,779,-187,598,-210,-700,-70,,,,,,,0x03,
12374,780,-189,598,-350,-700,-70,,,,,,,0x03,
12384,779,-190,598,-420,-630,0,,,,,,,0x03,
12393,780,-191,597,-420,-630,-140,,,,,,,0x03,
12403,779,-190,597,-350,-630,-70,,,,,,,0x03,
12413,778,-190,596,-280,-560,0,,,,,,,0x03,
12422,778,-189,596,-210,-490,0,,,,,,,0x03,
12432,779,-189,597,-140,-490,0,,,,,,,0x03,
12441,778,-190,598,-140,-420,0,,,,,,,0x03,
12451,779,-189,600,-280,-490,0,,,,,,,0x03,
12461,778,-190,602,-420,-560,0,,,,,,,0x03,
12470,780,-190,603,-420,-700,0,,,,,,,0x03,
12480,781,-191,602,-350,-840,-140,,,,,,,0x03,
12490,780,-192,601,-350,-980,-210,,,,,,,0x03,
12499,780,-191,601,-210,-1050,-280,,,,,,,0x03,
12509,780,-191,600,-70,-1120,-420,,,,,,,0x03,
12519,780,-189,597,70,-1120,-420,,,,,,,0x03,
12528,779,-189,597,-70,-1120,-420,,,,,,,0x03,
12538,778,-188,597,-210,-1190,-420,,,,,,,0x03,
12547,778,-188,597,-280,-1190,-350,,,,,,,0x03,
12557,779,-187,596,-280,-1120,-350,,,,,,,0x03,
12567,780,-188,597,-280,-1120,-280,,,,,,,0x03,
12576,780,-189,597,-280,-1050,-210,,,,,,,0x03,
12586,782,-191,598,-140,-1050,-280,,,,,,,0x03,
12596,781,-190,596,-70,-1050,-210,,,,,,,0x03,
12605,781,-189,595,-70,-980,-210,,,,,,,0x03,
12615,781,-190,596,0,-1050,-280,,,,,,,0x03,
12624,783,-190,595,0,-1050,-420,,,,,,,0x03,
12634,781,-192,595,-70,-980,-420,,,,,,,0x03,
12644,780,-190,595,0,-980,-490,,,,,,,0x03,
12653,780,-191,594,0,-980,-560,,,,,,,0x03,
12663,780,-192,595,70,-980,-630,,,,,,,0x03,
12673,779,-192,596,140,-840,-630,,,,,,,0x03,
12682,780,-193,596,350,-840,-700,,,,,,,0x03,
12692,779,-191,597,490,-840,-700,,,,,,,0x03,
12701,780,-189,597,560,-770,-700,,,,,,,0x03,
12711,780,-187,596,560,-700,-700,,,,,,,0x03,
12721,780,-187,597,420,-630,-700,,,,,,,0x03,
12730,780,-186,599,280,-630,-630,,,,,,,0x03,
12740,780,-184,599,140,-700,-560,,,,,,,0x03,
12750,782,-185,599,70,-840,-560,,,,,,,0x03,
12759,783,-185,599,-70,-980,-490,,,,,,,0x03,
12769,783,-187,599,-140,-1050,-490,,,,,,,0x03,
12779,782,-187,596,-210,-1120,-490,,,,,,,0x03,
12788,782,-186,596,-140,-1120,-490,,,,,,,0x03,
12798,782,-187,594,-140,-1190,-420,,,,,,,0x03,
12807,781,-189,594,-70,-1190,-420,,,,,,,0x03,
12817,779,-190,595,-70,-1120,-490,,,,,,,0x03,
12827,779,-189,597,-70,-1120,-560,,,,,,,0x03,
12836,782,-188,597,-70,-980,-490,,,,,,,0x03,
12846,780,-187,597,-70,-980,-490,,,,,,,0x03,
12856,778,-186,597,0,-980,-490,,,,,,,0x03,
12865,780,-186,599,140,-980,-560,,,,,,,0x03,
12875,781,-185,600,140,-980,-560,,,,,,,0x03,
12884,781,-186,600,70,-1050,-630,,,,,,,0x03,
12894,780,-188,601,70,-1190,-700,,,,,,,0x03,
12904,778,-188,602,140,-1260,-770,,,,,,,0x03,
12913,780,-188,602,210,-1400,-910,,,,,,,0x03,
12923,781,-189,601,280,-1540,-910,,,,,,,0x03,
12933,783,-188,598,420,-1610,-980,,,,,,,0x03,
12942,783,-188,595,560,-1610,-980,,,,,,,0x03,
12952,784,-189,593,700,-1610,-980,,,,,,,0x03,
12961,784,-189,588,700,-1540,-1050,,,,,,,0x03,
12971,782,-189,588,630,-1400,-1050,,,,,,,0x03,
12981,782,-190,589,350,-1190,-1050,,,,,,,0x03,
12990,782,-190,591,70,-1120,-1120,,,,,,,0x03,
13000,782,-188,594,-70,-1120,-1120,,,,,,,0x03,
13010,783,-186,595,-140,-1120,-1120,,,,,,,0x03,
13019,782,-185,595,-140,-1120,-1050,,,,,,,0x03,
13029,782,-187,597,-140,-1050,-980,,,,,,,0x03,
13039,783,-188,598,70,-1190,-980,,,,,,,0x03,
13048,783,-185,598,350,-1260,-1120,,,,,,,0x03,
13058,784,-183,597,630,-1330,-1120,,,,,,,0x03,
13067,784,-182,596,630,-1470,-1120,,,,,,,0x03,
13077,783,-183,594,490,-1470,-1050,,,,,,,0x03,
13087,784,-182,592,420,-1400,-1050,,,,,,,0x03,
13096,783,-182,590,420,-1330,-1050,,,,,,,0x03,
13106,784,-182,589,350,-1260,-1050,,,,,,,0x03,
13116,784,-181,589,280,-1120,-980,,,,,,,0x03,
13125,784,-180,589,210,-1050,-910,,,,,,,0x03,
13135,785,-181,592,140,-910,-910,,,,,,,0x03,
13144,784,-178,593,0,-840,-770,,,,,,,0x03,
13154,784,-178,594,70,-770,-700,,,,,,,0x03,
13164,785,-179,594,70,-770,-630,,,,,,,0x03,
13173,784,-178,594,140,-700,-560,,,,,,,0x03,
13183,785,-180,594,140,-700,-490,,,,,,,0x03,
13193,783,-180,595,70,-700,-490,,,,,,,0x03,
13202,784,-181,595,70,-700,-490,,,,,,,0x03,
13212,784,-182,596,0,-700,-560,,,,,,,0x03,
13221,783,-182,596,-70,-700,-560,,,,,,,0x03,
13231,782,-183,595,0,-700,-560,,,,,,,0x03,
13241,784,-182,595,70,-700,-560,,,,,,,0x03,
13250,785,-182,593,70,-700,-560,,,,,,,0x03,
13260,784,-183,595,70,-700,-420,,,,,,,0x03,
13270,782,-182,598,0,-770,-490,,,,,,,0x03,
13279,783,-182,599,-70,-840,-490,,,,,,,0x03,
13289,784,-182,595,-70,-910,-490,,,,,,,0x03,
13299,784,-182,595,0,-910,-490,,,,,,,0x03,
13308,783,-184,596,0,-910,-490,,,,,,,0x03,
13318,784,-185,596,-70,-980,-560,,,,,,,0x03,
13327,784,-183,594,140,-1050,-630,,,,,,,0x03,
13337,785,-183,594,210,-1050,-700,,,,,,,0x03,
13347,783,-185,595,140,-1050,-700,,,,,,,0x03,
13356,784,-184,595,70,-1120,-840,,,,,,,0x03,
13366,786,-183,593,210,-1120,-910,,,,,,,0x03,
13376,785,-182,591,350,-980,-840,,,,,,,0x03,
13385,783,-183,593,280,-980,-770,,,,,,,0x03,
13395,782,-183,594,280,-910,-770,,,,,,,0x03,
13404,784,-180,595,280,-910,-840,,,,,,,0x03,
13414,783,-181,594,280,-910,-770,,,,,,,0x03,
13424,785,-180,594,280,-910,-770,,,,,,,0x03,
13433,786,-180,596,350,-1050,-700,,,,,,,0x03,
13443,787,-179,593,350,-1050,-700,,,,,,,0x03,
13453,787,-178,592,210,-1050,-700,,,,,,,0x03,
13462,786,-177,594,140,-980,-770,,,,,,,0x03,
13472,786,-176,593,140,-980,-700,,,,,,,0x03,
13481,787,-175,590,210,-910,-630,,,,,,,0x03,
13491,786,-176,588,140,-770,-560,,,,,,,0x03,
13501,784,-176,591,0,-770,-420,,,,,,,0x03,
13510,784,-174,593,0,-770,-420,,,,,,,0x03,
13520,786,-173,593,-70,-840,-350,,,,,,,0x03,
13530,786,-174,594,-210,-700,-280,,,,,,,0x03,
13539,787,-177,594,-350,-700,-210,,,,,,,0x03,
13549,785,-179,594,-350,-630,-210,,,,,,,0x03,
13559,786,-179,593,-280,-630,-210,,,,,,,0x03,
13568,787,-179,592,-70,-630,-210,,,,,,,0x03,
13578,786,-179,591,-70,-560,-210,,,,,,,0x03,
13587,786,-179,592,-140,-490,-210,,,,,,,0x03,
13597,786,-178,592,-140,-490,-210,,,,,,,0x03,
13607,787,-179,593,-210,-560,-140,,,,,,,0x03,
13616,786,-178,592,-210,-560,-140,,,,,,,0x03,
13626,787,-179,593,-350,-630,-70,,,,,,,0x03,
13636,786,-180,593,-420,-560,-70,,,,,,,0x03,
13645,786,-180,594,-420,-560,-70,,,,,,,0x03,
13655,785,-181,594,-350,-560,-70,,,,,,,0x03,
13664,783,-180,594,-350,-490,-140,,,,,,,0x03,
13674,782,-180,596,-280,-490,-70,,,,,,,0x03,
13684,782,-178,597,-280,-420,0,,,,,,,0x03,
13693,783,-179,598,-280,-490,0,,,,,,,0x03,
13703,784,-178,599,-210,-560,0,,,,,,,0x03,
13713,784,-179,597,-210,-630,70,,,,,,,0x03,
13722,786,-181,596,-210,-700,0,,,,,,,0x03,
13732,785,-181,594,-70,-700,-70,,,,,,,0x03,
13741,784,-179,595,0,-700,-70,,,,,,,0x03,
13751,785,-180,593,70,-700,-140,,,,,,,0x03,
13761,784,-180,592,140,-770,-210,,,,,,,0x03,
13770,785,-181,592,70,-700,-280,,,,,,,0x03,
13780,784,-181,592,70,-630,-280,,,,,,,0x03,
13790,785,-181,593,0,-630,-420,,,,,,,0x03,
