#Format version: 1.0
time[ms],accX[mg],accY[mg],accZ[mg],gyroX[mdps],gyroY[mdps],gyroZ[mdps],magnX[mG],magnY[mG],magnZ[mG],press[hPa],temp[°C],hum[0,-992,-48,139,-630,-910,-1190,,,,,,,0x03,
10,-994,-48,136,-1190,-1050,-1540,,,,,,,0x03,
19,-995,-48,137,-1750,-1190,-1610,,,,,,,0x03,
29,-992,-57,137,-2520,-1190,-1750,,,,,,,0x03,
39,-990,-62,137,-2730,-1120,-1960,,,,,,,0x03,
48,-990,-66,137,-2170,-1120,-2030,,,,,,,0x03,
58,-986,-66,137,-1610,-1260,-1960,,,,,,,0x03,
67,-990,-69,138,-1330,-1190,-1750,,,,,,,0x03,
77,-990,-72,139,-1050,-1190,-1260,,,,,,,0x03,
87,-989,-73,139,-700,-1050,-980,,,,,,,0x03,
96,-988,-74,140,-70,-910,-700,,,,,,,0x03,
106,-987,-70,141,560,-770,-420,,,,,,,0x03,
116,-987,-68,140,700,-700,-70,,,,,,,0x03,
125,-988,-67,139,420,-630,210,,,,,,,0x03,
135,-990,-69,137,350,-630,420,,,,,,,0x03,
145,-990,-66,138,490,-700,490,,,,,,,0x03,
154,-989,-63,139,490,-770,700,,,,,,,0x03,
164,-991,-63,140,280,-840,770,,,,,,,0x03,
174,-990,-64,139,70,-980,840,,,,,,,0x03,
183,-987,-66,141,0,-1260,770,,,,,,,0x03,
193,-991,-62,137,420,-1330,700,,,,,,,0x03,
202,-994,-57,136,910,-1400,700,,,,,,,0x03,
212,-990,-56,142,560,-1610,630,,,,,,,0x03,
222,-991,-59,141,0,-1890,490,,,,,,,0x03,
231,-991,-64,136,70,-2030,350,,,,,,,0x03,
241,-989,-67,134,560,-2100,140,,,,,,,0x03,
251,-990,-68,141,1330,-2170,0,,,,,,,0x03,
260,-992,-63,139,2100,-2170,-70,,,,,,,0x03,
270,-990,-58,144,2380,-2240,0,,,,,,,0x03,
280,-989,-52,144,2030,-2240,140,,,,,,,0x03,
289,-993,-49,144,1680,-1890,210,,,,,,,0x03,
299,-992,-47,141,1190,-1750,0,,,,,,,0x03,
309,-993,-47,138,840,-1610,-350,,,,,,,0x03,
318,-994,-46,141,630,-1610,-770,,,,,,,0x03,
328,-993,-47,140,280,-1680,-1120,,,,,,,0x03,
337,-992,-46,139,140,-1680,-1470,,,,,,,0x03,
347,-992,-47,140,140,-1750,-1820,,,,,,,0x03,
357,-994,-46,138,210,-1820,-2170,,,,,,,0x03,
366,-995,-45,140,140,-2030,-2450,,,,,,,0x03,
376,-992,-45,145,-210,-2170,-2730,,,,,,,0x03,
386,-991,-47,143,-560,-2170,-3010,,,,,,,0x03,
395,-992,-51,142,-910,-2170,-3290,,,,,,,0x03,
405,-994,-55,140,-1190,-2310,-3430,,,,,,,0x03,
415,-989,-61,143,-1400,-2450,-3640,,,,,,,0x03,
424,-988,-69,145,-1400,-2520,-3850,,,,,,,0x03,
434,-989,-66,144,-770,-2450,-3990,,,,,,,0x03,
444,-991,-62,143,70,-2310,-3920,,,,,,,0x03,
453,-990,-63,146,70,-2240,-3710,,,,,,,0x03,
463,-989,-68,146,-560,-2380,-3570,,,,,,,0x03,
472,-986,-72,145,-770,-2310,-3430,,,,,,,0x03,
482,-985,-75,146,-560,-2170,-3360,,,,,,,0x03,
492,-987,-76,151,-210,-2030,-3220,,,,,,,0x03,
501,-986,-77,151,-280,-1960,-2870,,,,,,,0x03,
511,-986,-77,149,-560,-1820,-2450,,,,,,,0x03,
521,-988,-80,146,-490,-1540,-2100,,,,,,,0x03,
530,-986,-80,147,-140,-1470,-1890,,,,,,,0x03,
540,-987,-76,148,140,-1330,-1750,,,,,,,0x03,
550,-990,-71,148,350,-1190,-1400,,,,,,,0x03,
559,-987,-69,149,140,-1050,-1190,,,,,,,0x03,
569,-986,-70,150,-350,-980,-980,,,,,,,0x03,
578,-988,-71,149,-770,-910,-980,,,,,,,0x03,
588,-988,-71,146,-840,-770,-840,,,,,,,0x03,
598,-987,-70,145,-840,-770,-630,,,,,,,0x03,
607,-988,-70,150,-980,-840,-560,,,,,,,0x03,
617,-989,-72,150,-1470,-910,-490,,,,,,,0x03,
627,-989,-72,146,-1680,-770,-560,,,,,,,0x03,
636,-987,-71,145,-1190,-700,-630,,,,,,,0x03,
646,-986,-70,146,-770,-700,-700,,,,,,,0x03,
656,-989,-67,147,-630,-630,-560,,,,,,,0x03,
665,-991,-68,146,-700,-560,-560,,,,,,,0x03,
675,-991,-68,145,-630,-630,-770,,,,,,,0x03,
685,-988,-66,148,-490,-630,-980,,,,,,,0x03,
694,-988,-66,149,-630,-560,-980,,,,,,,0x03,
704,-990,-70,149,-1120,-560,-980,,,,,,,0x03,
713,-991,-71,145,-1470,-560,-1120,,,,,,,0x03,
723,-987,-74,146,-1260,-490,-1260,,,,,,,0x03,
733,-986,-78,146,-910,-420,-1400,,,,,,,0x03,
742,-990,-76,145,-280,-490,-1400,,,,,,,0x03,
752,-991,-73,144,280,-560,-1400,,,,,,,0x03,
762,-989,-73,145,420,-560,-1400,,,,,,,0x03,
771,-986,-75,148,280,-700,-1470,,,,,,,0x03,
781,-987,-76,147,-70,-700,-1400,,,,,,,0x03,
791,-990,-77,143,70,-630,-1400,,,,,,,0x03,
800,-988,-75,147,210,-770,-1470,,,,,,,0x03,
810,-989,-73,146,70,-770,-1400,,,,,,,0x03,
820,-987,-73,144,-280,-770,-1400,,,,,,,0x03,
829,-989,-75,144,-630,-840,-1330,,,,,,,0x03,
839,-990,-77,144,-630,-1050,-1400,,,,,,,0x03,
848,-986,-80,147,-630,-1050,-1190,,,,,,,0x03,
858,-990,-79,147,-840,-1120,-980,,,,,,,0x03,
868,-989,-79,146,-840,-1190,-840,,,,,,,0x03,
877,-989,-77,145,-700,-1120,-770,,,,,,,0x03,
887,-989,-75,147,-630,-1120,-770,,,,,,,0x03,
897,-986,-72,149,-840,-1260,-700,,,,,,,0x03,
906,-985,-73,146,-1330,-1330,-700,,,,,,,0x03,
916,-988,-76,145,-1680,-1330,-560,,,,,,,0x03,
926,-992,-79,144,-1540,-1400,-630,,,,,,,0x03,
935,-991,-76,146,-1120,-1540,-490,,,,,,,0x03,
945,-990,-73,148,-980,-1610,-490,,,,,,,0x03,
955,-988,-70,154,-1260,-1610,-420,,,,,,,0x03,
964,-987,-70,151,-2100,-1610,-560,,,,,,,0x03,
974,-990,-73,146,-2660,-1540,-490,,,,,,,0x03,
983,-990,-77,146,-2870,-1680,-560,,,,,,,0x03,
993,-986,-81,148,-2800,-1680,-420,,,,,,,0x03,
1003,-986,-83,147,-2450,-1610,-350,,,,,,,0x03,
1012,-987,-82,147,-1680,-1470,-350,,,,,,,0x03,
1022,-988,-78,150,-1120,-1400,-350,,,,,,,0x03,
1032,-989,-73,149,-980,-1260,-350,,,,,,,0x03,
1041,-989,-72,152,-1260,-1260,-350,,,,,,,0x03,
1051,-989,-71,148,-1610,-1120,-420,,,,,,,0x03,
1061,-988,-72,151,-1750,-980,-560,,,,,,,0x03,
1070,-986,-72,152,-2310,-1050,-840,,,,,,,0x03,
1080,-988,-72,151,-2870,-980,-980,,,,,,,0x03,
1089,-990,-71,149,-3150,-770,-1120,,,,,,,0x03,
1099,-990,-69,151,-3430,-700,-1260,,,,,,,0x03,
1109,-987,-71,155,-4130,-560,-1400,,,,,,,0x03,
1118,-986,-73,151,-4620,-210,-1610,,,,,,,0x03,
1128,-988,-75,152,-4900,140,-1610,,,,,,,0x03,
1138,-991,-74,147,-5320,560,-1610,,,,,,,0x03,
1147,-992,-75,143,-5110,910,-1400,,,,,,,0x03,
1157,-993,-80,144,-4900,840,-1260,,,,,,,0x03,
1167,-987,-84,145,-4690,770,-1050,,,,,,,0x03,
1176,-985,-95,143,-4200,770,-910,,,,,,,0x03,
1186,-986,-104,139,-3360,630,-770,,,,,,,0x03,
1196,-985,-104,141,-1890,490,-560,,,,,,,0x03,
1205,-988,-96,139,0,630,-70,,,,,,,0x03,
1215,-988,-91,141,1120,630,560,,,,,,,0x03,
1224,-990,-89,140,910,560,980,,,,,,,0x03,
1234,-989,-87,143,770,420,1050,,,,,,,0x03,
1244,-988,-86,146,910,210,980,,,,,,,0x03,
1253,-989,-80,148,700,-70,1050,,,,,,,0x03,
1263,-986,-79,146,0,-140,1190,,,,,,,0x03,
1273,-989,-81,145,-420,-70,1190,,,,,,,0x03,
1282,-989,-81,143,-490,0,1190,,,,,,,0x03,
1292,-991,-84,141,-560,0,1120,,,,,,,0x03,
1302,-988,-84,141,-630,-280,1190,,,,,,,0x03,
1311,-988,-88,142,-980,-630,1330,,,,,,,0x03,
1321,-988,-86,141,-910,-980,1330,,,,,,,0x03,
1331,-989,-84,144,-490,-1260,1190,,,,,,,0x03,
1340,-989,-82,148,-420,-1540,1050,,,,,,,0x03,
1350,-989,-77,143,-490,-1890,770,,,,,,,0x03,
1359,-989,-78,144,-560,-2170,630,,,,,,,0x03,
1369,-989,-81,145,-700,-2380,560,,,,,,,0x03,
1379,-987,-85,143,-630,-2590,560,,,,,,,0x03,
1388,-984,-91,144,-210,-2590,630,,,,,,,0x03,
1398,-983,-92,146,560,-2520,840,,,,,,,0x03,
1408,-983,-92,151,1400,-2590,910,,,,,,,0x03,
1417,-984,-86,151,2240,-2660,910,,,,,,,0x03,
1427,-987,-80,151,2870,-2450,1120,,,,,,,0x03,
1437,-986,-77,155,2730,-2240,1190,,,,,,,0x03,
1446,-988,-79,151,2170,-2170,1190,,,,,,,0x03,
1456,-990,-76,148,2030,-1960,1330,,,,,,,0x03,
1466,-993,-71,148,1960,-1960,1400,,,,,,,0x03,
1475,-993,-66,148,1750,-1820,1470,,,,,,,0x03,
1485,-993,-62,150,1050,-1820,1400,,,,,,,0x03,
1494,-990,-59,152,-70,-1890,1120,,,,,,,0x03,
1504,-988,-58,153,-1050,-2030,700,,,,,,,0x03,
1514,-991,-61,155,-2100,-2030,210,,,,,,,0x03,
1523,-991,-63,151,-2940,-1960,-140,,,,,,,0x03,
1533,-989,-66,151,-3150,-1960,-420,,,,,,,0x03,
1543,-990,-69,152,-3220,-1820,-770,,,,,,,0x03,
1552,-988,-70,153,-2800,-1610,-1260,,,,,,,0x03,
1562,-988,-71,153,-2380,-1400,-1540,,,,,,,0x03,
1572,-988,-72,151,-1890,-1190,-1820,,,,,,,0x03,
1581,-988,-77,152,-1400,-1050,-1960,,,,,,,0x03,
1591,-986,-80,149,-1120,-980,-2030,,,,,,,0x03,
1600,-984,-81,151,-420,-840,-2100,,,,,,,0x03,
1610,-989,-80,150,350,-700,-2240,,,,,,,0x03,
1620,-988,-76,151,910,-630,-2310,,,,,,,0x03,
1629,-987,-78,153,840,-560,-2380,,,,,,,0x03,
1639,-986,-82,152,490,-490,-2450,,,,,,,0x03,
1649,-984,-88,150,420,-560,-2520,,,,,,,0x03,
1658,-984,-91,149,490,-630,-2380,,,,,,,0x03,
1668,-985,-90,148,980,-770,-2310,,,,,,,0x03,
1678,-985,-87,150,1190,-910,-2170,,,,,,,0x03,
1687,-988,-87,149,980,-980,-1820,,,,,,,0x03,
1697,-987,-87,150,630,-980,-1470,,,,,,,0x03,
1707,-985,-92,153,280,-980,-1260,,,,,,,0x03,
1716,-985,-89,152,140,-1050,-1120,,,,,,,0x03,
1726,-985,-89,154,-70,-980,-840,,,,,,,0x03,
1735,-987,-88,153,-280,-980,-490,,,,,,,0x03,
1745,-986,-91,151,-280,-770,-210,,,,,,,0x03,
1755,-987,-95,150,-350,-770,210,,,,,,,0x03,
1764,-986,-94,149,0,-840,560,,,,,,,0x03,
1774,-986,-90,149,490,-840,910,,,,,,,0x03,
1784,-985,-87,151,840,-770,1190,,,,,,,0x03,
1793,-987,-84,154,700,-770,1400,,,,,,,0x03,
1803,-989,-79,151,420,-700,1610,,,,,,,0x03,
1813,-989,-79,151,210,-770,1680,,,,,,,0x03,
1822,-987,-75,154,-210,-770,1680,,,,,,,0x03,
1832,-988,-74,153,-350,-490,1540,,,,,,,0x03,
1842,-987,-74,153,-420,-350,1330,,,,,,,0x03,
1851,-990,-72,152,-630,-280,1120,,,,,,,0x03,
1861,-990,-71,151,-700,-280,910,,,,,,,0x03,
1870,-991,-73,149,-910,-280,700,,,,,,,0x03,
1880,-990,-74,150,-1190,-350,560,,,,,,,0x03,
1890,-991,-76,149,-1260,-350,280,,,,,,,0x03,
1899,-987,-75,148,-1120,-420,140,,,,,,,0x03,
1909,-988,-76,151,-910,-420,0,,,,,,,0x03,
1919,-987,-76,150,-910,-420,-140,,,,,,,0x03,
1928,-988,-82,148,-840,-350,-210,,,,,,,0x03,
1938,-988,-86,148,-560,-350,-350,,,,,,,0x03,
1948,-987,-87,148,0,-350,-280,,,,,,,0x03,
1957,-985,-86,150,560,-420,-210,,,,,,,0x03,
1967,-985,-85,150,910,-420,0,,,,,,,0x03,
1977,-988,-88,152,840,-420,210,,,,,,,0x03,
1986,-987,-89,149,840,-490,420,,,,,,,0x03,
1996,-986,-88,150,1120,-490,700,,,,,,,0x03,
2005,-982,-90,151,1190,-560,980,,,,,,,0x03,
2015,-982,-91,151,980,-560,1400,,,,,,,0x03,
2025,-986,-93,151,1190,-560,1750,,,,,,,0x03,
2034,-987,-93,149,1400,-560,2170,,,,,,,0x03,
2044,-986,-91,150,1470,-490,2800,,,,,,,0x03,
2054,-988,-88,149,1540,-420,3430,,,,,,,0x03,
2063,-987,-82,151,1680,-420,3850,,,,,,,0x03,
2073,-987,-78,152,1400,-350,4130,,,,,,,0x03,
2083,-989,-76,149,1050,-280,4270,,,,,,,0x03,
2092,-987,-74,150,840,-350,4270,,,,,,,0x03,
2102,-990,-71,149,280,-420,4340,,,,,,,0x03,
2111,-992,-66,147,140,-420,4340,,,,,,,0x03,
2121,-991,-66,148,-210,-420,4200,,,,,,,0x03,
2131,-992,-62,150,-420,-420,3920,,,,,,,0x03,
2140,-989,-59,149,-560,-490,3640,,,,,,,0x03,
2150,-990,-62,150,-910,-630,3290,,,,,,,0x03,
2160,-990,-65,148,-910,-630,2800,,,,,,,0x03,
2169,-990,-66,147,-140,-630,2310,,,,,,,0x03,
2179,-992,-60,146,560,-700,1820,,,,,,,0x03,
2189,-993,-54,146,700,-980,1610,,,,,,,0x03,
2198,-992,-53,147,560,-1190,1260,,,,,,,0x03,
2208,-992,-54,145,350,-1190,840,,,,,,,0x03,
2218,-994,-53,144,420,-1400,350,,,,,,,0x03,
2227,-994,-51,143,630,-1540,-140,,,,,,,0x03,
2237,-991,-52,145,630,-1820,-560,,,,,,,0x03,
2246,-991,-51,149,280,-1960,-1050,,,,,,,0x03,
2256,-985,-56,153,-140,-2100,-1610,,,,,,,0x03,
2266,-984,-64,153,-700,-2240,-2100,,,,,,,0x03,
2275,-988,-70,152,-560,-2170,-2310,,,,,,,0x03,
2285,-988,-76,150,210,-2030,-2450,,,,,,,0x03,
2295,-985,-74,151,1260,-1960,-2590,,,,,,,0x03,
2304,-986,-69,153,1960,-1820,-2450,,,,,,,0x03,
2314,-988,-68,156,1890,-1750,-2240,,,,,,,0x03,
2324,-989,-72,155,1330,-1470,-2030,,,,,,,0x03,
2333,-987,-76,156,1470,-1260,-2030,,,,,,,0x03,
2343,-983,-77,155,1610,-980,-1820,,,,,,,0x03,
2353,-985,-78,157,1680,-840,-1610,,,,,,,0x03,
2362,-986,-78,159,1470,-630,-1540,,,,,,,0x03,
2372,-987,-73,157,1050,-490,-1470,,,,,,,0x03,
2381,-987,-71,155,560,-140,-1120,,,,,,,0x03,
2391,-986,-74,154,-140,-140,-840,,,,,,,0x03,
2401,-985,-79,154,-560,0,-700,,,,,,,0x03,
2410,-986,-79,151,-560,70,-630,,,,,,,0x03,
2420,-988,-76,152,-350,70,-560,,,,,,,0x03,
2430,-991,-70,151,-280,70,-420,,,,,,,0x03,
2439,-989,-69,151,-560,70,-350,,,,,,,0x03,
2449,-989,-66,150,-1260,-70,-350,,,,,,,0x03,
2459,-988,-65,147,-1820,-280,-490,,,,,,,0x03,
2468,-990,-66,148,-2240,-560,-560,,,,,,,0x03,
2478,-990,-68,144,-2660,-770,-700,,,,,,,0x03,
2488,-993,-65,144,-2800,-1050,-770,,,,,,,0x03,
2497,-992,-62,146,-2590,-1330,-1050,,,,,,,0x03,
2507,-990,-58,146,-2660,-1610,-1400,,,,,,,0x03,
2516,-994,-61,145,-2800,-1820,-1820,,,,,,,0x03,
2526,-991,-65,148,-2940,-2100,-2310,,,,,,,0x03,
2536,-987,-69,151,-3010,-2310,-2870,,,,,,,0x03,
2545,-991,-72,151,-2450,-2240,-3360,,,,,,,0x03,
2555,-989,-72,151,-1470,-2240,-3710,,,,,,,0x03,
2565,-990,-74,151,-1050,-2240,-3990,,,,,,,0x03,
2574,-987,-76,149,-630,-2310,-4340,,,,,,,0x03,
2584,-989,-78,151,-210,-2310,-4410,,,,,,,0x03,
2594,-987,-81,152,210,-2310,-4550,,,,,,,0x03,
2603,-986,-86,156,350,-2240,-4620,,,,,,,0x03,
2613,-988,-83,155,770,-2240,-4690,,,,,,,0x03,
2623,-987,-78,156,1330,-2030,-4690,,,,,,,0x03,
2632,-985,-79,159,910,-1960,-4480,,,,,,,0x03,
2642,-987,-83,159,70,-1890,-4270,,,,,,,0x03,
2651,-984,-89,158,-490,-1750,-4130,,,,,,,0x03,
2661,-983,-96,158,-980,-1540,-3850,,,,,,,0x03,
2671,-986,-96,157,-980,-1330,-3430,,,,,,,0x03,
2680,-984,-92,158,-490,-1120,-3080,,,,,,,0x03,
2690,-986,-88,159,-560,-910,-2870,,,,,,,0x03,
2700,-984,-84,158,-1120,-840,-2520,,,,,,,0x03,
2709,-985,-88,156,-2030,-770,-2170,,,,,,,0x03,
2719,-988,-94,151,-2590,-700,-1890,,,,,,,0x03,
2729,-986,-97,151,-2450,-840,-1610,,,,,,,0x03,
2738,-982,-98,152,-2170,-980,-1330,,,,,,,0x03,
2748,-987,-93,148,-1890,-1120,-1050,,,,,,,0x03,
2757,-988,-87,150,-1610,-1400,-840,,,,,,,0x03,
2767,-985,-85,151,-2100,-1680,-770,,,,,,,0x03,
2777,-984,-89,153,-2590,-1820,-770,,,,,,,0x03,
2786,-983,-98,154,-2730,-1960,-840,,,,,,,0x03,
2796,-980,-101,155,-2240,-2100,-980,,,,,,,0x03,
2806,-984,-103,156,-1190,-2030,-910,,,,,,,0x03,
2815,-984,-98,156,-140,-1960,-910,,,,,,,0x03,
2825,-985,-96,159,490,-1890,-700,,,,,,,0x03,
2835,-983,-98,159,490,-1750,-490,,,,,,,0x03,
2844,-983,-100,160,840,-1470,-350,,,,,,,0x03,
2854,-986,-99,160,1680,-1260,-280,,,,,,,0x03,
2864,-985,-90,158,2450,-1120,-140,,,,,,,0x03,
2873,-986,-84,160,2520,-980,0,,,,,,,0x03,
2883,-987,-83,159,1960,-910,0,,,,,,,0x03,
2892,-986,-84,159,1260,-910,-70,,,,,,,0x03,
2902,-986,-84,159,560,-700,-210,,,,,,,0x03,
2912,-989,-83,162,-70,-560,-280,,,,,,,0x03,
2921,-988,-82,160,-840,-420,-420,,,,,,,0x03,
2931,-987,-82,160,-1470,-350,-490,,,,,,,0x03,
2941,-987,-85,159,-2310,-350,-560,,,,,,,0x03,
2950,-983,-89,157,-2730,-350,-630,,,,,,,0x03,
2960,-985,-96,156,-2870,-350,-490,,,,,,,0x03,
2970,-987,-98,156,-2380,-280,-490,,,,,,,0x03,
2979,-985,-97,155,-1610,-350,-350,,,,,,,0x03,
2989,-986,-95,156,-980,-280,-210,,,,,,,0x03,
2999,-986,-93,153,-630,-350,-140,,,,,,,0x03,
3008,-987,-92,154,-280,-420,-70,,,,,,,0x03,
3018,-987,-92,152,-140,-560,-70,,,,,,,0x03,
3027,-985,-92,153,-70,-700,0,,,,,,,0x03,
3037,-988,-91,153,70,-910,-70,,,,,,,0x03,
3047,-988,-87,152,210,-1050,-210,,,,,,,0x03,
3056,-986,-88,154,70,-1190,-140,,,,,,,0x03,
3066,-988,-88,155,-350,-1120,0,,,,,,,0x03,
3076,-985,-91,155,-280,-1190,-70,,,,,,,0x03,
3085,-986,-90,156,-210,-1120,0,,,,,,,0x03,
3095,-986,-91,156,-420,-1190,70,,,,,,,0x03,
3105,-985,-93,156,-700,-1260,210,,,,,,,0x03,
3114,-987,-97,157,-770,-1330,210,,,,,,,0x03,
3124,-986,-95,155,-560,-1330,210,,,,,,,0x03,
3134,-986,-94,157,-420,-1330,560,,,,,,,0x03,
3143,-983,-94,157,-210,-1330,630,,,,,,,0x03,
3153,-982,-92,158,-70,-1260,700,,,,,,,0x03,
3162,-986,-90,160,-210,-1190,840,,,,,,,0x03,
3172,-987,-89,159,-210,-1120,770,,,,,,,0x03,
3182,-983,-91,161,-420,-980,770,,,,,,,0x03,
3191,-985,-94,159,-630,-770,840,,,,,,,0x03,
3201,-986,-91,157,-350,-700,910,,,,,,,0x03,
3211,-986,-88,158,-210,-630,910,,,,,,,0x03,
3220,-986,-86,157,-70,-630,770,,,,,,,0x03,
3230,-986,-85,157,-140,-630,840,,,,,,,0x03,
3240,-988,-87,157,-420,-700,840,,,,,,,0x03,
3249,-984,-89,156,-420,-770,770,,,,,,,0x03,
3259,-984,-89,157,-280,-630,840,,,,,,,0x03,
3268,-987,-86,157,-70,-560,770,,,,,,,0x03,
3278,-987,-84,158,-70,-490,630,,,,,,,0x03,
3288,-986,-85,156,-280,-350,630,,,,,,,0x03,
3297,-984,-89,158,-560,-420,630,,,,,,,0x03,
3307,-984,-93,156,-630,-490,700,,,,,,,0x03,
3317,-984,-93,155,-140,-420,770,,,,,,,0x03,
3326,-987,-92,157,280,-420,910,,,,,,,0x03,
3336,-985,-90,156,560,-420,910,,,,,,,0x03,
3346,-986,-87,155,630,-490,980,,,,,,,0x03,
3355,-987,-84,154,630,-560,910,,,,,,,0x03,
3365,-988,-86,156,490,-700,980,,,,,,,0x03,
3375,-990,-85,155,210,-770,980,,,,,,,0x03,
3384,-986,-86,154,0,-840,980,,,,,,,0x03,
3394,-986,-85,156,-140,-980,910,,,,,,,0x03,
3403,-987,-82,156,-140,-980,840,,,,,,,0x03,
3413,-987,-81,156,-210,-980,840,,,,,,,0x03,
3423,-988,-82,156,-490,-910,840,,,,,,,0x03,
3432,-988,-86,157,-840,-1050,700,,,,,,,0x03,
3442,-986,-89,156,-980,-1050,630,,,,,,,0x03,
3452,-986,-89,156,-700,-1120,630,,,,,,,0x03,
3461,-986,-84,157,-420,-1050,630,,,,,,,0x03,
3471,-988,-83,155,-70,-1050,700,,,,,,,0x03,
3481,-987,-84,154,-280,-1260,630,,,,,,,0x03,
3490,-988,-84,156,-630,-1260,700,,,,,,,0x03,
3500,-987,-86,156,-630,-1400,630,,,,,,,0x03,
3510,-986,-82,156,-490,-1470,560,,,,,,,0x03,
3519,-987,-81,158,-560,-1400,630,,,,,,,0x03,
3529,-986,-83,158,-910,-1470,560,,,,,,,0x03,
3538,-986,-86,156,-980,-1540,490,,,,,,,0x03,
3548,-986,-87,159,-770,-1470,490,,,,,,,0x03,
3558,-986,-87,158,-560,-1400,420,,,,,,,0x03,
3567,-984,-87,158,-280,-1400,490,,,,,,,0x03,
3577,-985,-89,159,-70,-1260,560,,,,,,,0x03,
3587,-983,-90,159,210,-1260,700,,,,,,,0x03,
3596,-982,-94,160,210,-1190,840,,,,,,,0x03,
3606,-985,-92,159,560,-1050,1050,,,,,,,0x03,
3616,-985,-89,161,1050,-980,1260,,,,,,,0x03,
3625,-983,-85,160,1050,-980,1470,,,,,,,0x03,
3635,-985,-83,161,770,-840,1540,,,,,,,0x03,
3645,-984,-84,161,560,-840,1610,,,,,,,0x03,
3654,-983,-86,162,490,-700,1680,,,,,,,0x03,
3664,-985,-86,160,420,-560,1750,,,,,,,0x03,
3673,-987,-84,159,630,-490,1820,,,,,,,0x03,
3683,-987,-80,159,840,-420,1820,,,,,,,0x03,
3693,-984,-80,161,630,-280,1890,,,,,,,0x03,
3702,-987,-81,161,210,-280,1890,,,,,,,0x03,
3712,-985,-79,160,280,-210,1820,,,,,,,0x03,
3722,-985,-80,162,140,-140,1820,,,,,,,0x03,
3731,-988,-79,160,-350,-140,1890,,,,,,,0x03,
3741,-984,-77,157,-420,0,1890,,,,,,,0x03,
3751,-987,-77,157,-420,0,1820,,,,,,,0x03,
3760,-989,-74,156,0,-70,1610,,,,,,,0x03,
3770,-987,-73,157,210,-70,1540,,,,,,,0x03,
3779,-991,-73,157,0,-140,1400,,,,,,,0x03,
3789,-987,-73,157,-280,-210,1120,,,,,,,0x03,
3799,-987,-77,155,-210,-140,1050,,,,,,,0x03,
3808,-987,-78,154,0,-210,840,,,,,,,0x03,
3818,-986,-77,156,280,-210,630,,,,,,,0x03,
3828,-988,-74,156,770,-210,420,,,,,,,0x03,
3837,-989,-72,156,910,-280,280,,,,,,,0x03,
3847,-988,-70,154,840,-350,140,,,,,,,0x03,
3857,-989,-71,155,700,-490,0,,,,,,,0x03,
3866,-989,-69,155,630,-630,-140,,,,,,,0x03,
3876,-984,-69,159,350,-770,-420,,,,,,,0x03,
3886,-986,-71,158,-210,-700,-700,,,,,,,0x03,
3895,-988,-73,155,-350,-770,-980,,,,,,,0x03,
3905,-987,-73,157,-280,-770,-1120,,,,,,,0x03,
3914,-988,-77,158,-350,-770,-1260,,,,,,,0x03,
3924,-986,-77,156,-210,-770,-1400,,,,,,,0x03,
3934,-987,-78,157,70,-700,-1470,,,,,,,0x03,
3943,-987,-80,155,490,-700,-1470,,,,,,,0x03,
3953,-986,-80,156,840,-630,-1400,,,,,,,0x03,
3963,-986,-81,157,980,-700,-1330,,,,,,,0x03,
3972,-986,-84,157,1120,-630,-1260,,,,,,,0x03,
3982,-986,-84,157,1470,-560,-1190,,,,,,,0x03,
3992,-987,-84,158,1470,-560,-1050,,,,,,,0x03,
4001,-986,-80,158,1330,-560,-910,,,,,,,0x03,
4011,-987,-78,158,1050,-560,-700,,,,,,,0x03,
4021,-987,-78,159,560,-560,-700,,,,,,,0x03,
4030,-988,-78,158,210,-560,-630,,,,,,,0x03,
4040,-984,-78,159,-210,-490,-630,,,,,,,0x03,
4049,-987,-83,158,-630,-490,-560,,,,,,,0x03,
4059,-988,-84,156,-630,-490,-560,,,,,,,0x03,
4069,-984,-83,158,-280,-490,-560,,,,,,,0x03,
4078,-983,-82,158,-140,-490,-560,,,,,,,0x03,
4088,-987,-81,157,-210,-490,-490,,,,,,,0x03,
4098,-988,-81,155,-210,-490,-280,,,,,,,0x03,
4107,-986,-85,156,-420,-490,0,,,,,,,0x03,
4117,-984,-87,157,-280,-350,210,,,,,,,0x03,
4127,-986,-83,157,280,-210,280,,,,,,,0x03,
4136,-988,-78,156,630,-140,280,,,,,,,0x03,
4146,-987,-79,155,350,-210,350,,,,,,,0x03,
4156,-987,-82,156,0,-350,280,,,,,,,0x03,
4165,-985,-85,155,-210,-560,280,,,,,,,0x03,
4175,-985,-83,154,140,-630,280,,,,,,,0x03,
4184,-987,-84,155,560,-630,420,,,,,,,0x03,
4194,-988,-80,155,840,-630,490,,,,,,,0x03,
4204,-989,-75,156,1050,-630,560,,,,,,,0x03,
4213,-988,-73,157,840,-560,490,,,,,,,0x03,
4223,-987,-71,158,420,-490,280,,,,,,,0x03,
4233,-987,-75,157,-70,-490,140,,,,,,,0x03,
4242,-986,-77,156,-350,-560,0,,,,,,,0x03,
4252,-987,-78,155,-350,-490,-70,,,,,,,0x03,
4262,-987,-77,156,-350,-490,-210,,,,,,,0x03,
4271,-987,-76,157,-210,-420,-280,,,,,,,0x03,
4281,-988,-79,157,-280,-350,-350,,,,,,,0x03,
4290,-988,-80,156,-280,-420,-560,,,,,,,0x03,
4300,-989,-81,154,70,-420,-700,,,,,,,0x03,
4310,-988,-82,155,490,-420,-700,,,,,,,0x03,
4319,-986,-80,155,770,-420,-700,,,,,,,0x03,
4329,-990,-80,155,980,-350,-770,,,,,,,0x03,
4339,-990,-78,154,980,-420,-910,,,,,,,0x03,
4348,-986,-76,154,700,-560,-910,,,,,,,0x03,
4358,-988,-77,155,350,-630,-910,,,,,,,0x03,
4368,-985,-78,156,70,-700,-1050,,,,,,,0x03,
4377,-985,-81,157,0,-700,-1050,,,,,,,0x03,
4387,-986,-85,156,0,-700,-1050,,,,,,,0x03,
4397,-986,-87,153,70,-770,-980,,,,,,,0x03,
4406,-987,-88,153,280,-770,-700,,,,,,,0x03,
4416,-988,-84,155,560,-840,-420,,,,,,,0x03,
4425,-985,-80,158,560,-700,-350,,,,,,,0x03,
4435,-986,-78,155,210,-630,-210,,,,,,,0x03,
4445,-988,-78,155,-140,-700,-140,,,,,,,0x03,
4454,-988,-80,156,-350,-770,-140,,,,,,,0x03,
4464,-983,-80,155,-490,-770,-210,,,,,,,0x03,
4474,-988,-78,155,-350,-700,-350,,,,,,,0x03,
4483,-988,-75,156,-210,-770,-560,,,,,,,0x03,
4493,-987,-74,156,-560,-840,-630,,,,,,,0x03,
4503,-987,-80,156,-1120,-840,-840,,,,,,,0x03,
4512,-986,-82,155,-1120,-840,-980,,,,,,,0x03,
4522,-986,-82,156,-560,-770,-1050,,,,,,,0x03,
4532,-988,-83,154,-70,-700,-1120,,,,,,,0x03,
4541,-986,-79,156,420,-560,-1190,,,,,,,0x03,
4551,-987,-81,157,700,-490,-1330,,,,,,,0x03,
4560,-987,-81,156,770,-490,-1540,,,,,,,0x03,
4570,-985,-85,156,630,-420,-1610,,,,,,,0x03,
4580,-985,-88,156,490,-490,-1610,,,,,,,0x03,
4589,-987,-88,153,770,-420,-1540,,,,,,,0x03,
4599,-987,-87,154,1120,-420,-1400,,,,,,,0x03,
4609,-984,-84,157,980,-420,-1190,,,,,,,0x03,
4618,-984,-85,156,700,-350,-1120,,,,,,,0x03,
4628,-983,-89,155,420,-420,-1050,,,,,,,0x03,
4638,-987,-92,154,140,-420,-840,,,,,,,0x03,
4647,-985,-91,154,420,-420,-700,,,,,,,0x03,
4657,-986,-89,157,700,-350,-490,,,,,,,0x03,
4667,-987,-84,157,490,-350,-280,,,,,,,0x03,
4676,-986,-83,155,70,-420,-210,,,,,,,0x03,
4686,-988,-85,154,-350,-350,-140,,,,,,,0x03,
4695,-987,-86,154,-630,-420,0,,,,,,,0x03,
4705,-985,-89,154,-840,-420,210,,,,,,,0x03,
4715,-985,-91,155,-840,-350,350,,,,,,,0x03,
4724,-986,-90,155,-350,-350,350,,,,,,,0x03,
4734,-985,-87,154,140,-350,350,,,,,,,0x03,
4744,-986,-85,155,280,-280,490,,,,,,,0x03,
4753,-985,-87,154,210,-280,560,,,,,,,0x03,
4763,-984,-89,153,350,-210,560,,,,,,,0x03,
4773,-987,-90,153,770,-280,700,,,,,,,0x03,
4782,-986,-89,153,1330,-280,840,,,,,,,0x03,
4792,-986,-84,153,1750,-70,910,,,,,,,0x03,
4801,-986,-85,154,1680,-140,1050,,,,,,,0x03,
4811,-985,-85,153,1470,-280,1050,,,,,,,0x03,
4821,-987,-84,154,1400,-350,980,,,,,,,0x03,
4830,-989,-81,153,1260,-560,910,,,,,,,0x03,
4840,-990,-75,154,1260,-630,980,,,,,,,0x03,
4850,-988,-72,155,910,-560,980,,,,,,,0x03,
4859,-987,-73,156,350,-490,700,,,,,,,0x03,
4869,-989,-75,152,0,-490,420,,,,,,,0x03,
4879,-990,-79,152,-350,-490,280,,,,,,,0x03,
4888,-988,-79,154,-700,-630,210,,,,,,,0x03,
4898,-987,-81,155,-630,-560,140,,,,,,,0x03,
4908,-988,-82,154,-420,-490,70,,,,,,,0x03,
4917,-986,-81,152,-210,-630,0,,,,,,,0x03,
4927,-987,-81,151,-140,-630,70,,,,,,,0x03,
4936,-988,-82,153,-140,-700,140,,,,,,,0x03,
4946,-986,-80,154,70,-770,70,,,,,,,0x03,
4956,-987,-80,155,350,-700,-70,,,,,,,0x03,
4965,-988,-80,152,420,-630,-140,,,,,,,0x03,
4975,-986,-80,150,560,-700,-280,,,,,,,0x03,
4985,-985,-81,153,560,-700,-280,,,,,,,0x03,
4994,-989,-82,154,560,-700,-280,,,,,,,0x03,
5004,-988,-81,153,350,-910,-420,,,,,,,0x03,
5014,-986,-82,153,210,-910,-420,,,,,,,0x03,
5023,-985,-85,153,210,-980,-420,,,,,,,0x03,
5033,-986,-84,152,350,-980,-280,,,,,,,0x03,
5043,-987,-82,154,560,-910,-210,,,,,,,0x03,
5052,-986,-83,155,280,-910,-140,,,,,,,0x03,
5062,-986,-85,155,140,-840,-70,,,,,,,0x03,
5071,-985,-87,155,140,-770,0,,,,,,,0x03,
5081,-987,-85,153,420,-770,0,,,,,,,0x03,
5091,-986,-85,154,770,-770,140,,,,,,,0x03,
5100,-988,-81,155,770,-770,210,,,,,,,0x03,
5110,-987,-78,154,490,-770,210,,,,,,,0x03,
5120,-989,-78,155,70,-770,280,,,,,,,0x03,
5129,-987,-78,155,-140,-770,210,,,,,,,0x03,
5139,-987,-78,154,-280,-700,210,,,,,,,0x03,
5149,-989,-78,153,-280,-700,140,,,,,,,0x03,
5158,-987,-77,153,-210,-770,70,,,,,,,0x03,
5168,-988,-79,155,-420,-770,-70,,,,,,,0x03,
5178,-986,-82,156,-560,-770,-140,,,,,,,0x03,
5187,-987,-82,155,-280,-700,-350,,,,,,,0x03,
5197,-989,-78,154,420,-700,-490,,,,,,,0x03,
5206,-988,-74,154,490,-770,-560,,,,,,,0x03,
5216,-987,-74,156,70,-910,-770,,,,,,,0x03,
5226,-989,-73,156,-350,-910,-1190,,,,,,,0x03,
5235,-986,-74,153,-630,-980,-1540,,,,,,,0x03,
5245,-986,-78,154,-910,-980,-1750,,,,,,,0x03,
5255,-985,-83,153,-980,-840,-1890,,,,,,,0x03,
5264,-987,-83,151,-420,-840,-2030,,,,,,,0x03,
5274,-989,-81,151,280,-840,-2100,,,,,,,0x03,
5284,-986,-80,155,560,-840,-2170,,,,,,,0x03,
5293,-986,-82,155,280,-840,-2240,,,,,,,0x03,
5303,-987,-83,157,280,-700,-2520,,,,,,,0x03,
5312,-988,-80,152,770,-560,-2660,,,,,,,0x03,
5322,-984,-91,154,910,-560,-2800,,,,,,,0x03,
5332,-984,-91,150,700,-560,-2940,,,,,,,0x03,
5341,-993,-85,154,1470,-490,-2940,,,,,,,0x03,
5351,-987,-84,153,1610,-560,-2870,,,,,,,0x03,
5361,-988,-83,153,1050,-560,-2660,,,,,,,0x03,
5370,-987,-88,153,420,-630,-2520,,,,,,,0x03,
5380,-986,-90,154,140,-840,-2380,,,,,,,0x03,
5390,-984,-95,156,-140,-840,-2310,,,,,,,0x03,
5399,-983,-96,155,-140,-840,-2100,,,,,,,0x03,
5409,-984,-96,157,210,-700,-1960,,,,,,,0x03,
5419,-986,-92,155,490,-700,-1820,,,,,,,0x03,
5428,-987,-92,153,490,-700,-1610,,,,,,,0x03,
5438,-984,-93,154,140,-770,-1470,,,,,,,0x03,
5447,-986,-94,152,-70,-840,-1190,,,,,,,0x03,
5457,-986,-95,153,0,-910,-1050,,,,,,,0x03,
5467,-984,-94,156,70,-1050,-910,,,,,,,0x03,
5476,-984,-97,157,-280,-1120,-700,,,,,,,0x03,
5486,-984,-94,151,-70,-1050,-700,,,,,,,0x03,
5496,-985,-92,154,420,-910,-630,,,,,,,0x03,
5505,-988,-89,156,490,-980,-560,,,,,,,0x03,
5515,-986,-87,155,420,-980,-490,,,,,,,0x03,
5525,-987,-90,154,0,-910,-420,,,,,,,0x03,
5534,-987,-90,155,-140,-910,-420,,,,,,,0x03,
5544,-986,-92,157,140,-770,-350,,,,,,,0x03,
5554,-986,-94,154,350,-630,-350,,,,,,,0x03,
5563,-986,-95,155,560,-630,-210,,,,,,,0x03,
5573,-982,-98,157,560,-630,-70,,,,,,,0x03,
5582,-981,-102,158,560,-560,140,,,,,,,0x03,
5592,-987,-100,152,840,-420,280,,,,,,,0x03,
5602,-985,-94,155,1610,-490,630,,,,,,,0x03,
5611,-986,-91,154,910,-420,1050,,,,,,,0x03,
5621,-989,-91,153,630,-350,1400,,,,,,,0x03,
5631,-986,-92,158,210,-280,1400,,,,,,,0x03,
5640,-985,-85,156,-70,-280,1400,,,,,,,0x03,
5650,-986,-86,155,-280,-210,1470,,,,,,,0x03,
5660,-987,-86,153,-560,-210,1330,,,,,,,0x03,
5669,-986,-85,152,-700,-420,1120,,,,,,,0x03,
5679,-988,-88,153,-910,-490,980,,,,,,,0x03,
5689,-986,-92,152,-980,-490,910,,,,,,,0x03,
5698,-985,-94,153,-630,-490,840,,,,,,,0x03,
5708,-987,-90,153,-70,-560,840,,,,,,,0x03,
5717,-989,-87,153,210,-490,910,,,,,,,0x03,
5727,-987,-85,153,280,-560,980,,,,,,,0x03,
5737,-983,-88,155,0,-630,980,,,,,,,0x03,
5746,-985,-94,153,-140,-630,910,,,,,,,0x03,
5756,-984,-91,152,350,-630,770,,,,,,,0x03,
5766,-983,-94,154,770,-630,910,,,,,,,0x03,
5775,-988,-94,153,1050,-490,1050,,,,,,,0x03,
5785,-985,-92,154,1400,-420,1260,,,,,,,0x03,
5795,-986,-90,155,1400,-420,1330,,,,,,,0x03,
5804,-986,-86,154,1470,-350,1470,,,,,,,0x03,
5814,-987,-84,155,1260,-350,1540,,,,,,,0x03,
5823,-989,-81,155,840,-490,1470,,,,,,,0x03,
5833,-987,-81,155,140,-560,1400,,,,,,,0x03,
5843,-989,-82,154,-280,-560,1400,,,,,,,0x03,
5852,-988,-82,153,-420,-490,1190,,,,,,,0x03,
5862,-987,-81,154,-560,-420,1120,,,,,,,0x03,
5872,-986,-84,154,-770,-490,1050,,,,,,,0x03,
5881,-985,-88,152,-980,-490,1050,,,,,,,0x03,
5891,-988,-92,150,-700,-490,1050,,,,,,,0x03,
5901,-990,-89,148,70,-560,1190,,,,,,,0x03,
5910,-989,-83,149,700,-700,1400,,,,,,,0x03,
5920,-988,-80,153,560,-840,1540,,,,,,,0x03,
5930,-989,-77,151,140,-1050,1470,,,,,,,0x03,
5939,-988,-76,154,-210,-1190,1330,,,,,,,0x03,
5949,-987,-78,155,-630,-1190,1190,,,,,,,0x03,
5958,-986,-80,155,-910,-1190,1050,,,,,,,0x03,
5968,-986,-82,152,-840,-1120,910,,,,,,,0x03,
5978,-986,-82,152,-420,-1050,840,,,,,,,0x03,
5987,-986,-80,153,-70,-1120,770,,,,,,,0x03,
5997,-986,-79,154,-70,-1050,770,,,,,,,0x03,
6007,-990,-81,153,0,-980,700,,,,,,,0x03,
6016,-988,-81,155,140,-1050,630,,,,,,,0x03,
6026,-984,-81,156,140,-980,420,,,,,,,0x03,
6036,-988,-83,155,140,-840,420,,,,,,,0x03,
6045,-987,-82,154,420,-910,350,,,,,,,0x03,
6055,-989,-80,154,560,-840,280,,,,,,,0x03,
6065,-987,-78,154,630,-840,280,,,,,,,0x03,
6074,-988,-76,154,420,-840,210,,,,,,,0x03,
6084,-987,-77,156,70,-840,140,,,,,,,0x03,
6093,-985,-78,157,-140,-700,0,,,,,,,0x03,
6103,-987,-76,157,-280,-630,-210,,,,,,,0x03,
6113,-988,-77,156,-350,-560,-350,,,,,,,0x03,
6122,-988,-80,154,-490,-560,-420,,,,,,,0x03,
6132,-987,-84,154,-630,-490,-490,,,,,,,0x03,
6142,-985,-87,153,-280,-490,-560,,,,,,,0x03,
6151,-989,-84,153,280,-420,-560,,,,,,,0x03,
6161,-988,-80,153,630,-490,-490,,,,,,,0x03,
6171,-986,-79,154,350,-560,-490,,,,,,,0x03,
6180,-987,-81,152,0,-490,-490,,,,,,,0x03,
6190,-984,-81,155,0,-560,-420,,,,,,,0x03,
6200,-984,-82,154,0,-420,-420,,,,,,,0x03,
6209,-986,-85,154,70,-490,-420,,,,,,,0x03,
6219,-987,-85,151,70,-560,-350,,,,,,,0x03,
6228,-990,-83,153,280,-630,-350,,,,,,,0x03,
6238,-988,-81,155,350,-630,-420,,,,,,,0x03,
6248,-986,-76,156,420,-560,-420,,,,,,,0x03,
6257,-987,-80,155,70,-560,-490,,,,,,,0x03,
6267,-987,-81,152,-210,-560,-630,,,,,,,0x03,
6277,-988,-81,151,140,-490,-630,,,,,,,0x03,
6286,-989,-80,153,280,-490,-630,,,,,,,0x03,
6296,-987,-81,153,-70,-560,-630,,,,,,,0x03,
6306,-987,-82,153,-280,-490,-630,,,,,,,0x03,
6315,-987,-81,153,-140,-490,-840,,,,,,,0x03,
6325,-989,-78,152,0,-560,-840,,,,,,,0x03,
6334,-990,-79,153,-350,-630,-840,,,,,,,0x03,
6344,-987,-81,151,-770,-770,-770,,,,,,,0x03,
6354,-987,-84,152,-910,-840,-910,,,,,,,0x03,
6363,-986,-86,152,-840,-910,-980,,,,,,,0x03,
6373,-984,-86,153,-630,-910,-1050,,,,,,,0x03,
6383,-988,-82,152,-420,-980,-1120,,,,,,,0x03,
6392,-989,-80,152,-210,-1120,-1190,,,,,,,0x03,
6402,-985,-78,155,-490,-1120,-1330,,,,,,,0x03,
6412,-985,-82,155,-980,-1190,-1400,,,,,,,0x03,
6421,-987,-86,152,-1120,-1120,-1540,,,,,,,0x03,
6431,-988,-87,152,-770,-1050,-1610,,,,,,,0x03,
6441,-984,-89,154,-350,-980,-1540,,,,,,,0x03,
6450,-984,-91,155,0,-980,-1470,,,,,,,0x03,
6460,-984,-91,154,630,-840,-1470,,,,,,,0x03,
6469,-986,-91,156,1050,-700,-1330,,,,,,,0x03,
6479,-985,-93,155,1050,-700,-1260,,,,,,,0x03,
6489,-982,-94,156,1120,-630,-1120,,,,,,,0x03,
6498,-986,-90,155,1540,-420,-1050,,,,,,,0x03,
6508,-986,-87,159,1750,-280,-840,,,,,,,0x03,
6518,-985,-86,158,1400,-70,-700,,,,,,,0x03,
6527,-987,-88,156,1050,140,-630,,,,,,,0x03,
6537,-986,-86,157,700,210,-560,,,,,,,0x03,
6547,-985,-86,159,140,280,-630,,,,,,,0x03,
6556,-985,-82,157,-280,420,-700,,,,,,,0x03,
6566,-984,-83,157,-770,630,-700,,,,,,,0x03,
6576,-986,-88,155,-1050,770,-840,,,,,,,0x03,
6585,-988,-92,151,-1050,770,-910,,,,,,,0x03,
6595,-986,-92,151,-630,840,-840,,,,,,,0x03,
6604,-986,-92,152,-420,910,-770,,,,,,,0x03,
6614,-989,-91,150,-140,910,-700,,,,,,,0x03,
6624,-990,-90,147,280,840,-490,,,,,,,0x03,
6633,-988,-83,146,910,700,-420,,,,,,,0x03,
6643,-989,-87,146,420,490,-280,,,,,,,0x03,
6653,-987,-87,147,280,280,-350,,,,,,,0x03,
6662,-989,-88,147,350,70,-420,,,,,,,0x03,
6672,-989,-89,146,420,0,-420,,,,,,,0x03,
6682,-989,-87,147,560,-210,-420,,,,,,,0x03,
6691,-989,-90,146,420,-490,-350,,,,,,,0x03,
6701,-986,-91,147,210,-700,-350,,,,,,,0x03,
6711,-987,-93,147,70,-840,-280,,,,,,,0x03,
6720,-986,-94,146,0,-1120,0,,,,,,,0x03,
6730,-984,-95,151,-140,-1260,280,,,,,,,0x03,
6739,-989,-97,151,-420,-1330,490,,,,,,,0x03,
6749,-985,-95,150,-140,-1330,770,,,,,,,0x03,
6759,-986,-92,151,70,-1330,980,,,,,,,0x03,
6768,-988,-87,153,140,-1330,1050,,,,,,,0x03,
6778,-986,-86,152,-70,-1330,1120,,,,,,,0x03,
6788,-989,-83,151,-210,-1400,980,,,,,,,0x03,
6797,-990,-76,151,-210,-1330,840,,,,,,,0x03,
6807,-989,-70,151,-420,-1260,560,,,,,,,0x03,
6817,-989,-71,152,-1050,-1330,140,,,,,,,0x03,
6826,-989,-73,150,-1610,-1400,-490,,,,,,,0x03,
6836,-989,-79,152,-2030,-1400,-840,,,,,,,0x03,
6845,-989,-79,153,-2100,-1330,-1260,,,,,,,0x03,
6855,-988,-82,152,-2170,-1260,-1400,,,,,,,0x03,
6865,-988,-86,150,-2100,-1120,-1540,,,,,,,0x03,
6874,-989,-87,150,-1540,-1120,-1750,,,,,,,0x03,
6884,-987,-85,152,-700,-980,-2030,,,,,,,0x03,
6894,-985,-82,153,-420,-910,-2030,,,,,,,0x03,
6903,-986,-85,154,-840,-910,-2170,,,,,,,0x03,
6913,-988,-90,152,-1050,-910,-2380,,,,,,,0x03,
6923,-984,-92,151,-630,-840,-2520,,,,,,,0x03,
6932,-989,-89,152,-280,-770,-2590,,,,,,,0x03,
6942,-987,-87,152,-70,-770,-2800,,,,,,,0x03,
6952,-984,-88,152,-280,-770,-2730,,,,,,,0x03,
6961,-988,-93,151,-840,-770,-2590,,,,,,,0x03,
6971,-984,-98,148,-980,-910,-2590,,,,,,,0x03,
6980,-983,-104,151,-630,-840,-2450,,,,,,,0x03,
6990,-986,-103,151,-70,-840,-2240,,,,,,,0x03,
7000,-985,-101,152,350,-840,-1960,,,,,,,0x03,
7009,-982,-105,153,0,-770,-1680,,,,,,,0x03,
7019,-984,-110,151,0,-840,-1400,,,,,,,0x03,
7029,-984,-109,151,560,-840,-1050,,,,,,,0x03,
7038,-981,-108,152,1050,-770,-560,,,,,,,0x03,
7048,-981,-109,154,1190,-700,-140,,,,,,,0x03,
7058,-980,-110,155,1260,-700,210,,,,,,,0x03,
7067,-980,-112,155,1540,-630,560,,,,,,,0x03,
7077,-980,-109,157,2030,-420,770,,,,,,,0x03,
7087,-982,-101,155,2800,-70,1050,,,,,,,0x03,
7096,-984,-98,156,3010,140,1190,,,,,,,0x03,
7106,-990,-92,153,2940,280,1260,,,,,,,0x03,
7115,-986,-88,152,2660,350,1330,,,,,,,0x03,
7125,-984,-91,155,1890,420,1330,,,,,,,0x03,
7135,-988,-93,152,1540,490,1190,,,,,,,0x03,
7144,-990,-87,149,1960,490,1260,,,,,,,0x03,
7154,-991,-83,149,1890,490,1470,,,,,,,0x03,
7164,-989,-84,150,1050,420,1680,,,,,,,0x03,
7173,-991,-86,149,350,350,1680,,,,,,,0x03,
7183,-988,-86,149,70,210,1680,,,,,,,0x03,
7193,-987,-93,148,-420,0,1680,,,,,,,0x03,
7202,-985,-94,146,-420,-70,1680,,,,,,,0x03,
7212,-989,-92,148,70,-140,1680,,,,,,,0x03,
7222,-988,-87,149,560,-280,1680,,,,,,,0x03,
7231,-987,-85,149,490,-280,1750,,,,,,,0x03,
7241,-989,-85,148,140,-350,1680,,,,,,,0x03,
7250,-989,-86,147,0,-420,1610,,,,,,,0x03,
7260,-988,-85,148,70,-490,1540,,,,,,,0x03,
7270,-988,-87,148,70,-560,1540,,,,,,,0x03,
7279,-989,-87,147,210,-630,1540,,,,,,,0x03,
7289,-988,-87,146,560,-770,1610,,,,,,,0x03,
7299,-983,-89,147,700,-910,1610,,,,,,,0x03,
7308,-983,-95,148,630,-910,1750,,,,,,,0x03,
7318,-984,-98,147,980,-1050,1820,,,,,,,0x03,
7328,-985,-98,146,1610,-1260,1960,,,,,,,0x03,
7337,-987,-96,149,2170,-1330,2170,,,,,,,0x03,
7347,-989,-91,152,2170,-1540,2450,,,,,,,0x03,
7356,-987,-86,150,1890,-1540,2730,,,,,,,0x03,
7366,-987,-83,151,1470,-1470,2870,,,,,,,0x03,
7376,-985,-83,155,910,-1540,2800,,,,,,,0x03,
7385,-987,-84,155,420,-1540,2800,,,,,,,0x03,
7395,-989,-83,149,70,-1470,2940,,,,,,,0x03,
7405,-987,-80,150,140,-1400,3010,,,,,,,0x03,
7414,-988,-78,156,-140,-1330,2940,,,,,,,0x03,
7424,-986,-75,155,-490,-1330,2940,,,,,,,0x03,
7434,-989,-76,153,-840,-1120,2800,,,,,,,0x03,
7443,-991,-77,153,-1050,-980,2660,,,,,,,0x03,
7453,-986,-77,154,-1120,-910,2730,,,,,,,0x03,
7463,-984,-77,154,-1330,-770,2660,,,,,,,0x03,
7472,-985,-77,152,-1260,-700,2520,,,,,,,0x03,
7482,-986,-75,153,-980,-490,2310,,,,,,,0x03,
7491,-989,-73,152,-700,-420,2030,,,,,,,0x03,
7501,-988,-71,152,-490,-350,1820,,,,,,,0x03,
7511,-988,-70,154,-420,-210,1470,,,,,,,0x03,
7520,-989,-68,152,-140,-140,980,,,,,,,0x03,
7530,-988,-65,152,0,-140,560,,,,,,,0x03,
7540,-987,-72,151,-280,-140,210,,,,,,,0x03,
7549,-988,-79,148,-420,-210,-140,,,,,,,0x03,
7559,-988,-84,147,210,-210,-280,,,,,,,0x03,
7569,-987,-84,148,1120,-210,-280,,,,,,,0x03,
7578,-988,-81,150,1750,-210,-140,,,,,,,0x03,
7588,-989,-76,152,2100,-140,-140,,,,,,,0x03,
7598,-988,-74,150,1890,-280,-350,,,,,,,0x03,
7607,-986,-76,149,1470,-280,-210,,,,,,,0x03,
7617,-988,-82,149,1050,-280,0,,,,,,,0x03,
7626,-988,-84,149,980,-350,70,,,,,,,0x03,
7636,-989,-80,148,1190,-350,140,,,,,,,0x03,
7646,-987,-78,151,1120,-420,350,,,,,,,0x03,
7655,-987,-76,151,560,-420,560,,,,,,,0x03,
7665,-987,-79,151,-140,-490,770,,,,,,,0x03,
7675,-987,-81,150,-700,-700,910,,,,,,,0x03,
7684,-986,-82,150,-770,-700,1120,,,,,,,0x03,
7694,-987,-82,150,-910,-700,1330,,,,,,,0x03,
7704,-990,-78,150,-770,-700,1470,,,,,,,0x03,
7713,-991,-77,151,-840,-770,1540,,,,,,,0x03,
7723,-984,-78,148,-1120,-770,1680,,,,,,,0x03,
7733,-987,-80,150,-1190,-770,1890,,,,,,,0x03,
7742,-992,-76,149,-910,-910,1750,,,,,,,0x03,
7752,-988,-69,148,-350,-910,1610,,,,,,,0x03,
7761,-985,-69,150,-420,-840,1680,,,,,,,0x03,
7771,-991,-69,150,-770,-910,1680,,,,,,,0x03,
7781,-991,-68,149,-700,-980,1400,,,,,,,0x03,
7790,-991,-65,149,-420,-980,910,,,,,,,0x03,
7800,-989,-63,151,-350,-980,560,,,,,,,0x03,
7810,-993,-62,149,-700,-980,210,,,,,,,0x03,
7819,-989,-64,149,-770,-980,-140,,,,,,,0x03,
7829,-989,-67,151,-840,-980,-490,,,,,,,0x03,
7839,-986,-68,151,-840,-980,-770,,,,,,,0x03,
7848,-987,-71,151,-700,-980,-1050,,,,,,,0x03,
7858,-989,-74,150,-350,-980,-1120,,,,,,,0x03,
7868,-990,-75,150,70,-980,-1260,,,,,,,0x03,
7877,-987,-76,151,420,-840,-1190,,,,,,,0x03,
7887,-987,-80,152,420,-840,-1120,,,,,,,0x03,
7896,-987,-83,151,560,-700,-1050,,,,,,,0x03,
7906,-987,-82,149,1120,-630,-1050,,,,,,,0x03,
7916,-986,-80,151,1610,-560,-840,,,,,,,0x03,
7925,-988,-77,151,1680,-630,-700,,,,,,,0x03,
7935,-986,-76,151,1400,-560,-490,,,,,,,0x03,
7945,-989,-77,151,910,-560,-420,,,,,,,0x03,
7954,-988,-76,150,700,-630,-420,,,,,,,0x03,
7964,-985,-76,153,210,-630,-210,,,,,,,0x03,
7974,-989,-77,149,-210,-700,-140,,,,,,,0x03,
7983,-989,-75,150,-210,-700,-70,,,,,,,0x03,
7993,-988,-74,151,-630,-840,70,,,,,,,0x03,
8002,-987,-76,151,-1330,-840,140,,,,,,,0x03,
8012,-986,-79,150,-1610,-840,280,,,,,,,0x03,
8022,-988,-78,151,-1400,-840,350,,,,,,,0x03,
8031,-987,-76,151,-1190,-840,420,,,,,,,0x03,
8041,-989,-73,150,-1050,-770,420,,,,,,,0x03,
8051,-988,-71,150,-770,-770,280,,,,,,,0x03,
8060,-989,-72,149,-840,-840,210,,,,,,,0x03,
8070,-989,-70,147,-630,-910,0,,,,,,,0x03,
8080,-989,-70,149,-350,-910,-210,,,,,,,0x03,
8089,-989,-69,150,-350,-980,-490,,,,,,,0x03,
8099,-990,-70,147,-210,-980,-700,,,,,,,0x03,
8109,-990,-75,150,-210,-980,-770,,,,,,,0x03,
8118,-988,-77,151,-70,-1050,-910,,,,,,,0x03,
8128,-985,-79,150,420,-980,-1120,,,,,,,0x03,
8137,-986,-77,149,910,-980,-1050,,,,,,,0x03,
8147,-986,-75,152,1120,-1050,-1050,,,,,,,0x03,
8157,-990,-74,151,1050,-1050,-1050,,,,,,,0x03,
8166,-987,-73,151,840,-1120,-1120,,,,,,,0x03,
8176,-987,-77,151,490,-1120,-1050,,,,,,,0x03,
8186,-988,-80,151,140,-1120,-980,,,,,,,0x03,
8195,-988,-79,153,210,-1050,-980,,,,,,,0x03,
8205,-986,-75,154,140,-910,-980,,,,,,,0x03,
8215,-986,-74,154,-140,-770,-910,,,,,,,0x03,
8224,-988,-77,153,-420,-770,-910,,,,,,,0x03,
8234,-986,-79,151,-630,-630,-840,,,,,,,0x03,
8244,-987,-83,151,-700,-560,-770,,,,,,,0x03,
8253,-986,-84,152,-490,-560,-560,,,,,,,0x03,
8263,-984,-87,153,-350,-560,-420,,,,,,,0x03,
8272,-985,-86,153,-210,-420,-140,,,,,,,0x03,
8282,-987,-86,152,210,-280,70,,,,,,,0x03,
8292,-986,-84,154,420,-280,280,,,,,,,0x03,
8301,-985,-82,151,490,-140,490,,,,,,,0x03,
8311,-987,-82,151,700,0,700,,,,,,,0x03,
8321,-988,-82,149,700,-70,840,,,,,,,0x03,
8330,-989,-83,149,840,-70,980,,,,,,,0x03,
8340,-988,-80,149,910,-70,1050,,,,,,,0x03,
8350,-987,-77,151,1120,-70,1120,,,,,,,0x03,
8359,-988,-73,150,1190,-210,1050,,,,,,,0x03,
8369,-989,-72,149,910,-280,980,,,,,,,0x03,
8379,-989,-72,148,490,-350,840,,,,,,,0x03,
8388,-991,-73,149,140,-490,770,,,,,,,0x03,
8398,-989,-75,148,-140,-630,770,,,,,,,0x03,
8407,-989,-77,149,-210,-700,770,,,,,,,0x03,
8417,-989,-79,150,-70,-770,910,,,,,,,0x03,
8427,-988,-79,149,140,-910,980,,,,,,,0x03,
8436,-986,-78,150,280,-840,1120,,,,,,,0x03,
8446,-987,-75,150,420,-770,1190,,,,,,,0x03,
8456,-987,-74,151,630,-770,1120,,,,,,,0x03,
8465,-988,-70,149,840,-700,1050,,,,,,,0x03,
8475,-988,-71,150,910,-630,910,,,,,,,0x03,
8485,-990,-74,149,560,-840,770,,,,,,,0x03,
8494,-989,-72,146,490,-980,630,,,,,,,0x03,
8504,-989,-72,150,630,-910,560,,,,,,,0x03,
8513,-991,-69,151,560,-1050,490,,,,,,,0x03,
8523,-989,-67,150,210,-1120,490,,,,,,,0x03,
8533,-989,-67,150,-350,-1050,490,,,,,,,0x03,
8542,-990,-67,152,-490,-1120,280,,,,,,,0x03,
8552,-988,-65,153,-560,-1050,140,,,,,,,0x03,
8562,-987,-66,153,-840,-910,0,,,,,,,0x03,
8571,-990,-71,152,-1120,-840,-140,,,,,,,0x03,
8581,-987,-74,151,-980,-840,-420,,,,,,,0x03,
8591,-987,-76,151,-560,-770,-490,,,,,,,0x03,
8600,-989,-76,150,-210,-770,-490,,,,,,,0x03,
8610,-986,-74,151,70,-770,-490,,,,,,,0x03,
8620,-987,-73,151,280,-560,-490,,,,,,,0x03,
8629,-988,-72,150,490,-560,-630,,,,,,,0x03,
8639,-987,-72,152,280,-630,-700,,,,,,,0x03,
8648,-984,-76,152,-210,-700,-770,,,,,,,0x03,
8658,-990,-80,149,-280,-630,-630,,,,,,,0x03,
8668,-985,-82,149,0,-630,-350,,,,,,,0x03,
8677,-988,-82,150,140,-630,-70,,,,,,,0x03,
8687,-988,-80,151,490,-560,210,,,,,,,0x03,
8697,-985,-81,152,420,-630,490,,,,,,,0x03,
8706,-985,-81,152,350,-560,700,,,,,,,0x03,
8716,-987,-81,151,490,-490,840,,,,,,,0x03,
8726,-985,-78,151,700,-490,910,,,,,,,0x03,
8735,-987,-75,150,700,-490,980,,,,,,,0x03,
8745,-988,-71,150,700,-490,1120,,,,,,,0x03,
8755,-987,-72,152,140,-490,1120,,,,,,,0x03,
8764,-991,-69,149,-280,-420,1120,,,,,,,0x03,
8774,-992,-68,150,-420,-490,1260,,,,,,,0x03,
8783,-990,-71,150,-770,-560,1330,,,,,,,0x03,
8793,-990,-72,149,-1050,-630,1400,,,,,,,0x03,
8803,-987,-71,151,-980,-560,1330,,,,,,,0x03,
8812,-989,-70,151,-840,-560,1330,,,,,,,0x03,
8822,-990,-72,149,-770,-630,1260,,,,,,,0x03,
8832,-989,-71,150,-630,-630,1120,,,,,,,0x03,
8841,-988,-69,149,-560,-700,910,,,,,,,0x03,
8851,-989,-65,149,-420,-700,770,,,,,,,0x03,
8861,-989,-65,149,-490,-840,630,,,,,,,0x03,
8870,-991,-67,148,-630,-840,490,,,,,,,0x03,
8880,-990,-67,148,-560,-910,280,,,,,,,0x03,
8890,-986,-66,149,-350,-980,70,,,,,,,0x03,
8899,-985,-64,150,-280,-1050,-70,,,,,,,0x03,
8909,-988,-67,150,-280,-1190,-350,,,,,,,0x03,
8918,-993,-68,148,-350,-1260,-560,,,,,,,0x03,
8928,-988,-73,150,-350,-1330,-630,,,,,,,0x03,
8938,-985,-77,150,70,-1330,-840,,,,,,,0x03,
8947,-986,-76,151,840,-1190,-980,,,,,,,0x03,
8957,-988,-74,150,1400,-1120,-1050,,,,,,,0x03,
8967,-990,-72,149,1540,-1190,-910,,,,,,,0x03,
8976,-989,-71,150,1330,-1260,-770,,,,,,,0x03,
8986,-991,-70,152,1190,-1260,-630,,,,,,,0x03,
8996,-989,-66,154,1050,-1120,-560,,,,,,,0x03,
9005,-987,-65,156,490,-980,-490,,,,,,,0x03,
9015,-987,-67,156,-210,-770,-560,,,,,,,0x03,
9024,-987,-68,152,-770,-700,-630,,,,,,,0x03,
9034,-987,-70,153,-1260,-630,-630,,,,,,,0x03,
9044,-987,-75,155,-1610,-490,-490,,,,,,,0x03,
9053,-987,-78,153,-1680,-350,-420,,,,,,,0x03,
9063,-987,-78,152,-1330,-210,-350,,,,,,,0x03,
9073,-987,-77,153,-910,-70,-350,,,,,,,0x03,
9082,-987,-75,153,-770,-70,-140,,,,,,,0x03,
9092,-987,-78,149,-910,0,0,,,,,,,0x03,
9102,-986,-80,150,-770,0,140,,,,,,,0x03,
9111,-987,-81,149,-420,70,350,,,,,,,0x03,
9121,-989,-80,148,210,0,350,,,,,,,0x03,
9131,-986,-75,149,840,0,560,,,,,,,0x03,
9140,-988,-75,151,770,0,840,,,,,,,0x03,
9150,-988,-78,148,420,-70,980,,,,,,,0x03,
9159,-988,-80,146,700,-140,980,,,,,,,0x03,
9169,-989,-77,147,1190,-210,1190,,,,,,,0x03,
9179,-987,-74,149,1400,-420,1330,,,,,,,0x03,
9188,-987,-69,149,1260,-420,1330,,,,,,,0x03,
9198,-989,-68,149,980,-490,1400,,,,,,,0x03,
9208,-990,-66,148,350,-700,1260,,,,,,,0x03,
9217,-991,-63,148,0,-700,1190,,,,,,,0x03,
9227,-989,-62,151,-280,-770,1120,,,,,,,0x03,
9237,-993,-59,149,-770,-840,1050,,,,,,,0x03,
9246,-992,-58,150,-1400,-910,840,,,,,,,0x03,
9256,-988,-62,154,-2170,-840,560,,,,,,,0x03,
9266,-988,-68,149,-2380,-770,280,,,,,,,0x03,
9275,-987,-68,150,-1750,-700,0,,,,,,,0x03,
9285,-990,-68,150,-980,-630,-280,,,,,,,0x03,
9294,-988,-65,148,-140,-560,-490,,,,,,,0x03,
9304,-988,-69,148,210,-560,-700,,,,,,,0x03,
9314,-992,-69,148,490,-560,-910,,,,,,,0x03,
9323,-991,-68,147,1190,-560,-1050,,,,,,,0x03,
9333,-986,-68,149,1400,-630,-1120,,,,,,,0x03,
9343,-992,-65,149,1330,-630,-1050,,,,,,,0x03,
9352,-990,-71,150,840,-770,-1120,,,,,,,0x03,
9362,-989,-73,148,210,-770,-980,,,,,,,0x03,
9372,-987,-78,150,-70,-770,-840,,,,,,,0x03,
9381,-988,-75,150,140,-700,-700,,,,,,,0x03,
9391,-987,-72,151,350,-700,-490,,,,,,,0x03,
9401,-987,-72,151,0,-630,-350,,,,,,,0x03,
9410,-985,-73,150,-490,-700,-140,,,,,,,0x03,
9420,-987,-75,149,-840,-630,0,,,,,,,0x03,
9429,-987,-76,150,-700,-560,70,,,,,,,0x03,
9439,-989,-76,149,-350,-560,210,,,,,,,0x03,
9449,-988,-67,149,0,-490,140,,,,,,,0x03,
9458,-987,-66,150,-420,-560,210,,,,,,,0x03,
9468,-990,-68,149,-1260,-560,140,,,,,,,0x03,
9478,-989,-71,148,-1470,-630,70,,,,,,,0x03,
9487,-988,-73,148,-1400,-770,70,,,,,,,0x03,
9497,-988,-74,146,-1190,-770,140,,,,,,,0x03,
9507,-990,-77,148,-840,-770,210,,,,,,,0x03,
9516,-988,-75,149,-420,-910,210,,,,,,,0x03,
9526,-986,-74,148,140,-910,210,,,,,,,0x03,
9535,-990,-73,148,560,-840,140,,,,,,,0x03,
9545,-990,-69,148,1050,-910,140,,,,,,,0x03,
9555,-989,-68,149,1120,-910,70,,,,,,,0x03,
9564,-991,-67,149,910,-1050,0,,,,,,,0x03,
9574,-987,-65,149,630,-1120,-70,,,,,,,0x03,
9584,-988,-69,148,70,-1190,-70,,,,,,,0x03,
9593,-988,-70,149,-350,-1330,0,,,,,,,0x03,
9603,-988,-74,148,-770,-1400,140,,,,,,,0x03,
9613,-988,-75,150,-1120,-1470,280,,,,,,,0x03,
9622,-987,-73,152,-1120,-1400,350,,,,,,,0x03,
9632,-987,-74,152,-1190,-1400,420,,,,,,,0x03,
9642,-988,-71,150,-1050,-1260,560,,,,,,,0x03,
9651,-990,-73,152,-1050,-1190,700,,,,,,,0x03,
9661,-987,-73,149,-910,-1120,700,,,,,,,0x03,
9670,-988,-70,149,-560,-1120,770,,,,,,,0x03,
9680,-988,-69,148,-490,-1120,910,,,,,,,0x03,
9690,-990,-66,151,-560,-1190,910,,,,,,,0x03,
9699,-990,-63,152,-560,-1050,630,,,,,,,0x03,
9709,-989,-60,153,-630,-980,350,,,,,,,0x03,
9719,-990,-63,151,-1050,-1120,0,,,,,,,0x03,
9728,-991,-64,148,-1330,-1190,-280,,,,,,,0x03,
9738,-986,-63,152,-1260,-1190,-630,,,,,,,0x03,
9748,-987,-62,153,-1260,-1190,-1050,,,,,,,0x03,
9757,-989,-60,151,-1050,-1120,-1470,,,,,,,0x03,
9767,-992,-61,150,-980,-1050,-1890,,,,,,,0x03,
9777,-991,-59,150,-770,-1050,-2380,,,,,,,0x03,
9786,-988,-59,149,-560,-1050,-2730,,,,,,,0x03,
9796,-990,-61,150,-630,-1120,-2940,,,,,,,0x03,
9805,-990,-67,150,-980,-1260,-3150,,,,,,,0x03,
9815,-988,-75,150,-1190,-1260,-3360,,,,,,,0x03,
9825,-984,-84,152,-840,-1260,-3430,,,,,,,0x03,
9834,-985,-86,153,-140,-1120,-3430,,,,,,,0x03,
9844,-985,-85,152,770,-1050,-3220,,,,,,,0x03,
9854,-986,-86,154,1120,-910,-2800,,,,,,,0x03,
9863,-985,-86,153,1120,-770,-2520,,,,,,,0x03,
9873,-984,-87,151,1190,-630,-2240,,,,,,,0x03,
9883,-986,-87,153,1330,-630,-1820,,,,,,,0x03,
9892,-985,-85,153,1330,-560,-1400,,,,,,,0x03,
9902,-986,-85,154,980,-490,-840,,,,,,,0x03,
9912,-986,-85,151,560,-420,-350,,,,,,,0x03,
9921,-985,-85,152,70,-490,0,,,,,,,0x03,
9931,-986,-86,152,-210,-490,350,,,,,,,0x03,
9940,-985,-85,151,-420,-420,700,,,,,,,0x03,
9950,-988,-86,152,-700,-420,1120,,,,,,,0x03,
9960,-987,-84,150,-770,-420,1400,,,,,,,0x03,
9969,-986,-82,152,-840,-420,1610,,,,,,,0x03,
9979,-989,-78,149,-840,-490,1820,,,,,,,0x03,
9989,-990,-73,149,-910,-630,1960,,,,,,,0x03,
9998,-989,-71,149,-1260,-700,2030,,,,,,,0x03,
10008,-988,-69,150,-1400,-770,1890,,,,,,,0x03,
10018,-991,-67,148,-1120,-770,1680,,,,,,,0x03,
10027,-991,-62,149,-910,-910,1330,,,,,,,0x03,
10037,-988,-61,150,-980,-980,980,,,,,,,0x03,
10046,-990,-62,150,-1120,-1120,350,,,,,,,0x03,
10056,-990,-62,150,-840,-1190,-350,,,,,,,0x03,
10066,-990,-63,152,-420,-1190,-910,,,,,,,0x03,
10075,-987,-70,152,-490,-1260,-1400,,,,,,,0x03,
10085,-988,-73,152,-280,-1190,-1750,,,,,,,0x03,
10095,-987,-77,150,490,-1120,-1960,,,,,,,0x03,
10104,-985,-81,152,1120,-1050,-1960,,,,,,,0x03,
10114,-986,-83,152,1680,-910,-1820,,,,,,,0x03,
10124,-988,-81,152,2450,-770,-1610,,,,,,,0x03,
10133,-986,-82,153,3010,-700,-1330,,,,,,,0x03,
10143,-988,-79,151,2870,-770,-980,,,,,,,0x03,
10153,-989,-78,153,2590,-700,-630,,,,,,,0x03,
10162,-988,-76,155,2100,-630,-560,,,,,,,0x03,
10172,-987,-73,155,1540,-560,-420,,,,,,,0x03,
10181,-988,-72,155,630,-490,-280,,,,,,,0x03,
10191,-987,-71,153,-210,-420,-210,,,,,,,0x03,
10201,-985,-73,155,-980,-420,-210,,,,,,,0x03,
10210,-990,-77,154,-1890,-420,-210,,,,,,,0x03,
10220,-987,-80,150,-2100,-280,-70,,,,,,,0x03,
10230,-988,-80,150,-1820,-210,0,,,,,,,0x03,
10239,-986,-75,149,-1400,-350,70,,,,,,,0x03,
10249,-986,-73,147,-1470,-490,280,,,,,,,0x03,
10259,-990,-75,148,-1960,-630,350,,,,,,,0x03,
10268,-988,-78,148,-2030,-840,280,,,,,,,0x03,
10278,-985,-81,151,-1820,-910,420,,,,,,,0x03,
10288,-988,-82,148,-1330,-980,420,,,,,,,0x03,
10297,-985,-81,151,-490,-980,420,,,,,,,0x03,
10307,-987,-82,152,-70,-910,420,,,,,,,0x03,
10316,-989,-81,150,630,-840,350,,,,,,,0x03,
10326,-988,-77,149,1330,-700,420,,,,,,,0x03,
10336,-989,-73,151,1680,-700,280,,,,,,,0x03,
10345,-989,-71,151,1610,-840,70,,,,,,,0x03,
10355,-991,-69,151,1400,-910,-140,,,,,,,0x03,
10365,-990,-72,153,1050,-980,-210,,,,,,,0x03,
10374,-988,-74,152,560,-1050,-350,,,,,,,0x03,
10384,-985,-76,155,210,-980,-350,,,,,,,0x03,
10394,-988,-76,155,140,-910,-350,,,,,,,0x03,
10403,-988,-76,154,0,-840,-210,,,,,,,0x03,
10413,-986,-78,153,-490,-770,-70,,,,,,,0x03,
10423,-986,-81,152,-1050,-700,140,,,,,,,0x03,
10432,-986,-82,152,-1050,-630,350,,,,,,,0x03,
10442,-991,-80,151,-770,-630,560,,,,,,,0x03,
10451,-987,-74,152,-630,-630,700,,,,,,,0x03,
10461,-984,-75,154,-1050,-700,770,,,,,,,0x03,
10471,-990,-75,150,-1540,-770,770,,,,,,,0x03,
10480,-985,-76,151,-1400,-770,770,,,,,,,0x03,
10490,-990,-78,152,-1400,-770,840,,,,,,,0x03,
