#Format version: 1.0
time[ms],accX[mg],accY[mg],accZ[mg],gyroX[mdps],gyroY[mdps],gyroZ[mdps],magnX[mG],magnY[mG],magnZ[mG],press[hPa],temp[°C],hum[0,-70,92,-994,3290,280,1330,,,,,,,0x03,
10,-71,86,-989,3150,630,1470,,,,,,,0x03,
19,-72,76,-988,3220,770,1890,,,,,,,0x03,
29,-71,62,-991,3920,630,2170,,,,,,,0x03,
39,-69,57,-1002,5040,630,2170,,,,,,,0x03,
48,-73,46,-1008,5810,770,2100,,,,,,,0x03,
58,-71,50,-1003,6230,770,1820,,,,,,,0x03,
67,-71,54,-997,5950,630,1540,,,,,,,0x03,
77,-68,54,-1000,4900,210,1470,,,,,,,0x03,
87,-64,51,-1007,3920,-210,1400,,,,,,,0x03,
96,-64,53,-1011,3010,-490,1330,,,,,,,0x03,
106,-68,58,-1012,1960,-490,1260,,,,,,,0x03,
116,-68,57,-1013,1400,-280,1120,,,,,,,0x03,
125,-65,52,-1017,910,-70,840,,,,,,,0x03,
135,-63,57,-1011,630,70,700,,,,,,,0x03,
145,-63,62,-1001,630,140,700,,,,,,,0x03,
154,-63,67,-990,1050,-70,560,,,,,,,0x03,
164,-66,72,-981,910,-420,560,,,,,,,0x03,
174,-72,80,-984,420,-840,420,,,,,,,0x03,
183,-70,84,-992,-140,-1120,420,,,,,,,0x03,
193,-66,74,-997,-1400,-910,840,,,,,,,0x03,
202,-69,70,-998,-2100,-490,840,,,,,,,0x03,
212,-68,65,-1001,-1680,-210,910,,,,,,,0x03,
222,-64,59,-1008,-1400,280,980,,,,,,,0x03,
231,-69,65,-997,-1120,560,910,,,,,,,0x03,
241,-74,72,-991,-980,490,770,,,,,,,0x03,
251,-76,71,-996,-910,-70,770,,,,,,,0x03,
260,-77,68,-1005,-770,-560,840,,,,,,,0x03,
270,-81,68,-1011,-420,-840,840,,,,,,,0x03,
280,-82,72,-1018,-70,-840,910,,,,,,,0x03,
289,-80,61,-1035,280,-490,840,,,,,,,0x03,
299,-78,43,-1040,490,350,560,,,,,,,0x03,
308,-85,47,-1022,1190,910,210,,,,,,,0x03,
318,-89,54,-1001,2030,770,140,,,,,,,0x03,
328,-78,53,-1000,2380,280,-70,,,,,,,0x03,
337,-69,46,-1008,2520,-70,-210,,,,,,,0x03,
347,-67,52,-1017,2380,-70,-560,,,,,,,0x03,
357,-65,64,-1020,1400,210,-770,,,,,,,0x03,
366,-66,62,-1014,-630,490,-700,,,,,,,0x03,
376,-73,64,-1001,-2730,420,-770,,,,,,,0x03,
386,-75,64,-990,-3990,70,-700,,,,,,,0x03,
395,-70,60,-992,-4410,-490,-840,,,,,,,0x03,
405,-66,56,-1003,-3850,-840,-1120,,,,,,,0x03,
414,-64,61,-1012,-3220,-980,-1260,,,,,,,0x03,
424,-61,71,-1009,-3430,-840,-1400,,,,,,,0x03,
434,-67,75,-998,-4620,-560,-1330,,,,,,,0x03,
443,-72,72,-989,-5180,-420,-1400,,,,,,,0x03,
453,-68,72,-989,-4480,-630,-1470,,,,,,,0x03,
463,-68,78,-994,-3710,-910,-1260,,,,,,,0x03,
472,-67,87,-997,-3290,-1050,-1050,,,,,,,0x03,
482,-63,93,-1000,-3570,-980,-980,,,,,,,0x03,
492,-62,93,-995,-4130,-910,-840,,,,,,,0x03,
501,-63,91,-994,-3640,-840,-630,,,,,,,0x03,
511,-66,91,-1004,-1540,-980,-420,,,,,,,0x03,
521,-60,89,-1013,770,-1050,-140,,,,,,,0x03,
530,-65,91,-1013,1820,-840,350,,,,,,,0x03,
540,-71,89,-1003,2310,-770,490,,,,,,,0x03,
549,-70,89,-994,2380,-840,490,,,,,,,0x03,
559,-71,84,-993,2590,-1330,490,,,,,,,0x03,
569,-69,79,-1002,2940,-1680,630,,,,,,,0x03,
578,-70,79,-1006,3220,-1610,840,,,,,,,0x03,
588,-72,77,-1003,3010,-1330,1050,,,,,,,0x03,
598,-73,73,-995,2520,-1120,1190,,,,,,,0x03,
607,-70,63,-996,2170,-840,980,,,,,,,0x03,
617,-70,54,-989,1960,-420,840,,,,,,,0x03,
627,-76,54,-976,2240,-350,910,,,,,,,0x03,
636,-75,57,-980,3150,-700,980,,,,,,,0x03,
646,-68,55,-994,3990,-770,910,,,,,,,0x03,
655,-71,47,-1013,3570,-560,840,,,,,,,0x03,
665,-70,47,-1023,2800,-210,770,,,,,,,0x03,
675,-71,50,-1017,1820,210,840,,,,,,,0x03,
684,-73,47,-1000,1120,630,700,,,,,,,0x03,
694,-72,48,-988,1400,420,280,,,,,,,0x03,
704,-72,54,-997,2240,-280,0,,,,,,,0x03,
713,-71,62,-1013,2730,-840,0,,,,,,,0x03,
723,-70,72,-1020,1960,-840,70,,,,,,,0x03,
733,-73,75,-1012,350,-560,210,,,,,,,0x03,
742,-71,73,-1006,-980,-350,140,,,,,,,0x03,
752,-68,67,-1008,-1120,-420,0,,,,,,,0x03,
761,-70,57,-1008,-560,-490,70,,,,,,,0x03,
771,-74,53,-1005,770,-630,140,,,,,,,0x03,
781,-70,56,-1004,1820,-630,-70,,,,,,,0x03,
790,-69,60,-998,2170,-490,-70,,,,,,,0x03,
800,-67,65,-992,1820,-210,-210,,,,,,,0x03,
810,-66,69,-990,1540,-210,-210,,,,,,,0x03,
819,-63,70,-997,1260,-350,-70,,,,,,,0x03,
829,-64,76,-996,910,-350,70,,,,,,,0x03,
839,-71,73,-997,350,-560,350,,,,,,,0x03,
848,-71,73,-999,140,-700,420,,,,,,,0x03,
858,-68,71,-1000,140,-700,560,,,,,,,0x03,
868,-69,63,-999,420,-560,700,,,,,,,0x03,
877,-68,58,-1001,1680,-420,630,,,,,,,0x03,
887,-65,62,-1011,3150,-280,560,,,,,,,0x03,
896,-63,57,-1022,3780,-140,630,,,,,,,0x03,
906,-62,60,-1025,3430,-70,630,,,,,,,0x03,
916,-63,62,-1017,2520,-280,770,,,,,,,0x03,
925,-62,59,-1015,1680,-560,770,,,,,,,0x03,
935,-59,57,-1018,1120,-840,560,,,,,,,0x03,
945,-60,51,-1013,630,-770,350,,,,,,,0x03,
954,-60,54,-1002,910,-700,350,,,,,,,0x03,
964,-59,58,-997,1190,-840,420,,,,,,,0x03,
974,-63,60,-994,980,-840,420,,,,,,,0x03,
983,-63,56,-987,630,-770,560,,,,,,,0x03,
993,-66,53,-979,420,-770,700,,,,,,,0x03,
1002,-67,51,-982,1260,-700,700,,,,,,,0x03,
1012,-62,47,-994,1820,-560,630,,,,,,,0x03,
1022,-59,42,-1005,1750,-420,700,,,,,,,0x03,
1031,-62,44,-1008,1960,-420,770,,,,,,,0x03,
1041,-64,50,-1009,1960,-420,700,,,,,,,0x03,
1051,-63,50,-1011,1540,-490,560,,,,,,,0x03,
1060,-64,51,-1011,980,-560,280,,,,,,,0x03,
1070,-63,57,-1013,560,-700,0,,,,,,,0x03,
1080,-65,58,-1014,-210,-770,-70,,,,,,,0x03,
1089,-67,55,-1012,-980,-910,-70,,,,,,,0x03,
1099,-68,54,-1007,-1330,-770,-140,,,,,,,0x03,
1109,-68,59,-994,-1050,-630,-140,,,,,,,0x03,
1118,-64,65,-989,-490,-770,-140,,,,,,,0x03,
1128,-60,64,-994,-280,-910,-210,,,,,,,0x03,
1137,-63,61,-1002,-280,-1050,-140,,,,,,,0x03,
1147,-65,60,-1020,0,-1400,-70,,,,,,,0x03,
1157,-63,63,-1030,280,-1330,70,,,,,,,0x03,
1166,-67,60,-1027,-490,-910,140,,,,,,,0x03,
1176,-66,52,-1011,-1470,-280,-140,,,,,,,0x03,
1186,-67,49,-987,-1400,70,-490,,,,,,,0x03,
1195,-70,52,-978,-490,-350,-560,,,,,,,0x03,
1205,-66,61,-990,350,-1050,-630,,,,,,,0x03,
1215,-64,62,-1002,140,-1190,-420,,,,,,,0x03,
1224,-70,62,-1003,-1120,-980,-280,,,,,,,0x03,
1234,-72,66,-998,-2450,-770,-280,,,,,,,0x03,
1243,-73,67,-996,-3640,-700,-490,,,,,,,0x03,
1253,-73,58,-995,-4340,-560,-770,,,,,,,0x03,
1263,-76,52,-995,-3920,-420,-1050,,,,,,,0x03,
1272,-78,59,-999,-2520,-560,-1120,,,,,,,0x03,
1282,-77,73,-1010,-1330,-910,-1190,,,,,,,0x03,
1292,-74,79,-1018,-1960,-1050,-1050,,,,,,,0x03,
1301,-79,71,-1028,-3150,-1190,-980,,,,,,,0x03,
1311,-76,67,-1030,-4060,-1190,-980,,,,,,,0x03,
1321,-75,64,-1021,-4200,-1120,-1050,,,,,,,0x03,
1330,-75,57,-1012,-3640,-1190,-1050,,,,,,,0x03,
1340,-71,54,-1006,-2380,-1400,-1120,,,,,,,0x03,
1349,-66,63,-1003,-630,-1610,-980,,,,,,,0x03,
1359,-63,69,-997,420,-1750,-770,,,,,,,0x03,
1369,-65,72,-989,140,-1680,-630,,,,,,,0x03,
1378,-68,70,-984,-140,-1540,-490,,,,,,,0x03,
1388,-68,68,-982,-350,-1540,-350,,,,,,,0x03,
1398,-64,61,-984,-280,-1260,-280,,,,,,,0x03,
1407,-66,50,-988,280,-910,-210,,,,,,,0x03,
1417,-65,53,-995,1120,-630,-280,,,,,,,0x03,
1427,-63,63,-1000,1680,-560,-280,,,,,,,0x03,
1436,-66,64,-1002,980,-280,-280,,,,,,,0x03,
1446,-79,58,-997,210,-70,-420,,,,,,,0x03,
1456,-85,58,-991,350,0,-490,,,,,,,0x03,
1465,-84,62,-991,1120,-140,-350,,,,,,,0x03,
1475,-80,63,-998,1610,-350,-350,,,,,,,0x03,
1484,-78,69,-1003,1750,-420,-420,,,,,,,0x03,
1494,-78,71,-1006,1540,-350,-350,,,,,,,0x03,
1504,-73,76,-1012,840,-280,-490,,,,,,,0x03,
1513,-72,66,-1016,-280,-210,-350,,,,,,,0x03,
1523,-73,60,-1015,-630,-140,-420,,,,,,,0x03,
1533,-76,58,-1006,-420,-140,-420,,,,,,,0x03,
1542,-74,53,-997,70,-140,-420,,,,,,,0x03,
1552,-70,56,-990,1050,-280,-490,,,,,,,0x03,
1562,-70,70,-989,1610,-560,-560,,,,,,,0x03,
1571,-72,71,-993,1190,-770,-350,,,,,,,0x03,
1581,-66,73,-997,350,-630,-350,,,,,,,0x03,
1590,-70,71,-990,-770,-420,-70,,,,,,,0x03,
1600,-72,64,-987,-1120,-140,0,,,,,,,0x03,
1610,-65,63,-990,-420,0,140,,,,,,,0x03,
1619,-62,55,-1001,840,-140,350,,,,,,,0x03,
1629,-65,59,-1009,1890,-350,490,,,,,,,0x03,
1639,-71,63,-1014,2380,-490,700,,,,,,,0x03,
1648,-66,69,-1015,2310,-420,700,,,,,,,0x03,
1658,-62,65,-1010,2100,-420,700,,,,,,,0x03,
1668,-61,63,-1007,2170,-280,700,,,,,,,0x03,
1677,-64,61,-1005,2590,-350,700,,,,,,,0x03,
1687,-64,52,-1004,2800,-350,770,,,,,,,0x03,
1696,-64,51,-1001,3150,-280,700,,,,,,,0x03,
1706,-65,51,-1004,3640,-560,700,,,,,,,0x03,
1716,-67,57,-1007,3710,-840,630,,,,,,,0x03,
1725,-66,59,-1005,2870,-770,560,,,,,,,0x03,
1735,-69,53,-1005,2100,-770,560,,,,,,,0x03,
1745,-66,44,-1007,2170,-630,420,,,,,,,0x03,
1754,-68,38,-1008,3150,-560,350,,,,,,,0x03,
1764,-68,48,-1014,4690,-700,280,,,,,,,0x03,
1774,-63,49,-1022,5320,-770,420,,,,,,,0x03,
1783,-65,50,-1023,4830,-490,280,,,,,,,0x03,
1793,-65,55,-1015,4200,-280,140,,,,,,,0x03,
1803,-63,53,-1006,3290,-280,70,,,,,,,0x03,
1812,-64,45,-998,2520,-280,70,,,,,,,0x03,
1822,-64,41,-988,2520,-280,0,,,,,,,0x03,
1831,-66,47,-983,2940,-700,70,,,,,,,0x03,
1841,-67,48,-996,3220,-1260,210,,,,,,,0x03,
1851,-63,48,-1017,3080,-1260,140,,,,,,,0x03,
1860,-67,49,-1023,1680,-700,70,,,,,,,0x03,
1870,-68,45,-1015,70,-140,-140,,,,,,,0x03,
1880,-68,38,-990,-840,420,-420,,,,,,,0x03,
1889,-70,38,-976,-1190,140,-560,,,,,,,0x03,
1899,-70,42,-987,-280,-910,-560,,,,,,,0x03,
1909,-65,43,-1013,350,-1820,-350,,,,,,,0x03,
1918,-63,48,-1032,-840,-2100,-140,,,,,,,0x03,
1928,-64,60,-1028,-3010,-1680,-350,,,,,,,0x03,
1937,-63,66,-998,-5740,-980,-490,,,,,,,0x03,
1947,-69,55,-976,-7840,-770,-770,,,,,,,0x03,
1957,-69,45,-983,-7210,-1330,-840,,,,,,,0x03,
1966,-63,44,-1006,-5040,-1890,-560,,,,,,,0x03,
1976,-70,50,-1015,-3570,-2030,-70,,,,,,,0x03,
1986,-74,63,-1009,-3430,-1960,140,,,,,,,0x03,
1995,-69,69,-1000,-4480,-1400,-140,,,,,,,0x03,
2005,-69,60,-985,-5670,-700,-420,,,,,,,0x03,
2015,-73,48,-975,-4970,-490,-560,,,,,,,0x03,
2024,-70,46,-983,-2030,-840,-350,,,,,,,0x03,
2034,-69,54,-1003,700,-1120,0,,,,,,,0x03,
2043,-68,65,-1015,1330,-980,280,,,,,,,0x03,
2053,-72,69,-1011,0,-560,490,,,,,,,0x03,
2063,-75,63,-997,-1470,-70,420,,,,,,,0x03,
2072,-74,58,-986,-1680,210,210,,,,,,,0x03,
2082,-71,50,-981,-210,280,210,,,,,,,0x03,
2092,-72,45,-985,2380,0,350,,,,,,,0x03,
2101,-72,56,-1000,4900,-350,560,,,,,,,0x03,
2111,-68,67,-1014,5530,-210,840,,,,,,,0x03,
2121,-68,67,-1016,4130,210,840,,,,,,,0x03,
2130,-70,67,-1001,2380,840,490,,,,,,,0x03,
2140,-70,64,-987,1750,980,350,,,,,,,0x03,
2150,-69,54,-986,2800,560,490,,,,,,,0x03,
2159,-66,55,-1002,4690,-210,700,,,,,,,0x03,
2169,-64,59,-1023,6370,-700,1050,,,,,,,0x03,
2178,-62,64,-1038,6510,-840,1190,,,,,,,0x03,
2188,-65,63,-1039,5110,-770,1050,,,,,,,0x03,
2198,-68,56,-1029,3010,-560,840,,,,,,,0x03,
2207,-67,46,-1012,1750,-560,560,,,,,,,0x03,
2217,-60,39,-1001,1680,-980,420,,,,,,,0x03,
2227,-59,36,-1004,2450,-1680,280,,,,,,,0x03,
2236,-57,40,-1015,2590,-2100,140,,,,,,,0x03,
2246,-55,44,-1018,1050,-1820,70,,,,,,,0x03,
2256,-51,43,-1008,-1610,-1330,-70,,,,,,,0x03,
2265,-54,37,-991,-3920,-770,-350,,,,,,,0x03,
2275,-57,26,-979,-4690,-700,-560,,,,,,,0x03,
2284,-58,26,-980,-4200,-1050,-630,,,,,,,0x03,
2294,-57,27,-991,-3080,-1540,-420,,,,,,,0x03,
2304,-55,35,-1008,-2590,-1610,-420,,,,,,,0x03,
2313,-61,48,-1011,-3500,-1470,-350,,,,,,,0x03,
2323,-65,54,-1008,-5530,-1120,-630,,,,,,,0x03,
2333,-65,52,-1003,-7280,-770,-770,,,,,,,0x03,
2342,-67,41,-1001,-7980,-630,-840,,,,,,,0x03,
2352,-69,45,-996,-7000,-700,-980,,,,,,,0x03,
2362,-65,51,-997,-5600,-980,-840,,,,,,,0x03,
2371,-67,55,-1006,-5530,-1190,-770,,,,,,,0x03,
2381,-72,59,-1010,-5810,-1260,-840,,,,,,,0x03,
2391,-72,63,-1005,-6720,-1050,-700,,,,,,,0x03,
2400,-75,62,-994,-7700,-910,-840,,,,,,,0x03,
2410,-77,62,-982,-7630,-770,-1050,,,,,,,0x03,
2419,-76,64,-979,-7000,-770,-1120,,,,,,,0x03,
2429,-74,65,-981,-6160,-910,-910,,,,,,,0x03,
2439,-76,76,-989,-5740,-1120,-770,,,,,,,0x03,
2448,-78,88,-998,-6300,-1330,-770,,,,,,,0x03,
2458,-76,101,-1004,-7770,-1330,-770,,,,,,,0x03,
2468,-78,95,-1012,-9730,-1330,-700,,,,,,,0x03,
2477,-78,82,-1022,-10640,-1190,-630,,,,,,,0x03,
2487,-78,73,-1015,-10010,-770,-630,,,,,,,0x03,
2497,-78,69,-1006,-8400,-700,-280,,,,,,,0x03,
2506,-75,67,-1007,-5740,-980,-70,,,,,,,0x03,
2516,-71,70,-1010,-3080,-1260,0,,,,,,,0x03,
2525,-67,75,-1016,-1120,-1540,0,,,,,,,0x03,
2535,-63,82,-1023,-140,-1680,70,,,,,,,0x03,
2545,-62,84,-1022,-70,-1540,140,,,,,,,0x03,
2554,-66,74,-1012,-280,-1190,280,,,,,,,0x03,
2564,-71,68,-995,-280,-910,210,,,,,,,0x03,
2574,-77,64,-986,490,-1050,140,,,,,,,0x03,
2583,-78,62,-987,1400,-1260,70,,,,,,,0x03,
2593,-77,68,-982,1750,-1120,0,,,,,,,0x03,
2603,-83,78,-976,1050,-980,-140,,,,,,,0x03,
2612,-84,86,-979,-420,-980,-280,,,,,,,0x03,
2622,-79,83,-988,-2240,-840,-350,,,,,,,0x03,
2631,-78,71,-994,-3640,-420,-140,,,,,,,0x03,
2641,-79,67,-991,-4130,0,-210,,,,,,,0x03,
2651,-90,66,-981,-3920,210,-140,,,,,,,0x03,
2660,-92,73,-978,-3080,0,-350,,,,,,,0x03,
2670,-87,80,-990,-2030,-560,-490,,,,,,,0x03,
2680,-83,85,-1012,-1470,-840,-490,,,,,,,0x03,
2689,-81,92,-1021,-1820,-420,-490,,,,,,,0x03,
2699,-80,94,-1012,-2590,140,-350,,,,,,,0x03,
2709,-79,92,-1000,-3150,420,-350,,,,,,,0x03,
2718,-77,80,-1000,-2590,210,-350,,,,,,,0x03,
2728,-75,76,-1003,-1540,0,-280,,,,,,,0x03,
2738,-75,79,-1005,-350,-280,-350,,,,,,,0x03,
2747,-74,86,-1007,0,-490,-280,,,,,,,0x03,
2757,-73,89,-1010,-700,-490,-280,,,,,,,0x03,
2766,-70,87,-1011,-1680,-350,-420,,,,,,,0x03,
2776,-70,79,-1011,-2240,-210,-280,,,,,,,0x03,
2786,-72,72,-1003,-2310,70,-280,,,,,,,0x03,
2795,-73,70,-987,-2030,280,-280,,,,,,,0x03,
2805,-71,71,-980,-1330,280,-280,,,,,,,0x03,
2815,-71,74,-979,-350,0,-280,,,,,,,0x03,
2824,-72,85,-988,350,-280,-280,,,,,,,0x03,
2834,-68,92,-997,630,-140,-140,,,,,,,0x03,
2844,-69,88,-1002,70,350,70,,,,,,,0x03,
2853,-71,90,-997,-140,770,-140,,,,,,,0x03,
2863,-68,98,-989,420,980,-70,,,,,,,0x03,
2872,-68,93,-991,1190,840,140,,,,,,,0x03,
2882,-72,85,-1002,1750,700,70,,,,,,,0x03,
2892,-70,97,-1005,2100,630,70,,,,,,,0x03,
2901,-70,103,-1010,1750,350,420,,,,,,,0x03,
2911,-67,90,-1020,980,70,560,,,,,,,0x03,
2921,-66,81,-1025,1050,-140,630,,,,,,,0x03,
2930,-64,77,-1031,2100,-630,700,,,,,,,0x03,
2940,-57,77,-1035,3010,-770,770,,,,,,,0x03,
2950,-60,67,-1033,2940,-840,630,,,,,,,0x03,
2959,-63,68,-1026,2590,-840,210,,,,,,,0x03,
2969,-62,74,-1011,2030,-1050,0,,,,,,,0x03,
2978,-62,68,-1002,1190,-1260,70,,,,,,,0x03,
2988,-58,62,-998,700,-1400,70,,,,,,,0x03,
2998,-57,60,-996,490,-1470,70,,,,,,,0x03,
3007,-56,64,-992,420,-1610,0,,,,,,,0x03,
3017,-58,60,-993,-70,-1750,-70,,,,,,,0x03,
3027,-56,55,-998,-560,-1750,-280,,,,,,,0x03,
3036,-56,57,-1000,-1120,-1400,-630,,,,,,,0x03,
3046,-57,62,-993,-1330,-1050,-840,,,,,,,0x03,
3056,-62,67,-985,-1680,-1190,-910,,,,,,,0x03,
3065,-66,71,-989,-1820,-1680,-980,,,,,,,0x03,
3075,-62,78,-1005,-2030,-1960,-980,,,,,,,0x03,
3085,-63,77,-1012,-2660,-1750,-770,,,,,,,0x03,
3094,-68,79,-1003,-3360,-1260,-910,,,,,,,0x03,
3104,-73,83,-986,-3850,-980,-1120,,,,,,,0x03,
3113,-74,85,-985,-3780,-1190,-1190,,,,,,,0x03,
3123,-72,87,-989,-2940,-1400,-1050,,,,,,,0x03,
3133,-69,91,-997,-2100,-1680,-770,,,,,,,0x03,
3142,-69,94,-1002,-1120,-1750,-560,,,,,,,0x03,
3152,-70,102,-1003,-630,-1540,-490,,,,,,,0x03,
3162,-69,106,-996,-910,-1330,-420,,,,,,,0x03,
3171,-68,102,-994,-1120,-1190,-420,,,,,,,0x03,
3181,-67,94,-992,-700,-1120,-350,,,,,,,0x03,
3191,-68,96,-989,560,-1260,-140,,,,,,,0x03,
3200,-70,102,-988,1680,-1330,0,,,,,,,0x03,
3210,-73,102,-987,1960,-1330,210,,,,,,,0x03,
3219,-75,104,-988,1680,-1190,350,,,,,,,0x03,
3229,-75,100,-999,1190,-1260,560,,,,,,,0x03,
3239,-70,89,-1011,560,-910,840,,,,,,,0x03,
3248,-69,69,-1009,70,-420,1050,,,,,,,0x03,
3258,-69,60,-1000,350,70,840,,,,,,,0x03,
3268,-69,53,-995,1400,350,560,,,,,,,0x03,
3277,-63,45,-1005,3010,420,210,,,,,,,0x03,
3287,-60,45,-1021,3990,630,-140,,,,,,,0x03,
3297,-67,52,-1028,3500,840,-350,,,,,,,0x03,
3306,-72,57,-1022,1540,980,-560,,,,,,,0x03,
3316,-71,55,-1008,-1260,1120,-910,,,,,,,0x03,
3326,-72,50,-999,-3500,980,-1400,,,,,,,0x03,
3335,-72,49,-991,-4270,560,-1750,,,,,,,0x03,
3345,-72,61,-997,-4130,-140,-2030,,,,,,,0x03,
3354,-72,69,-1007,-4340,-770,-1960,,,,,,,0x03,
3364,-71,80,-1016,-5180,-840,-2100,,,,,,,0x03,
3374,-72,87,-1011,-6650,-490,-2170,,,,,,,0x03,
3383,-74,86,-993,-7700,70,-2380,,,,,,,0x03,
3393,-80,84,-979,-7000,70,-2590,,,,,,,0x03,
3403,-81,86,-979,-4760,-280,-2520,,,,,,,0x03,
3412,-75,98,-990,-2380,-630,-2170,,,,,,,0x03,
3422,-71,111,-1000,-630,-840,-1680,,,,,,,0x03,
3432,-69,123,-1009,-280,-910,-1400,,,,,,,0x03,
3441,-65,127,-1012,-840,-700,-1190,,,,,,,0x03,
3451,-64,126,-1006,-1960,-490,-980,,,,,,,0x03,
3460,-69,109,-998,-2100,-420,-560,,,,,,,0x03,
3470,-70,93,-1000,-420,-560,-420,,,,,,,0x03,
3480,-68,87,-1006,2100,-840,-140,,,,,,,0x03,
3489,-71,87,-1008,3710,-840,0,,,,,,,0x03,
3499,-73,90,-1004,4340,-700,0,,,,,,,0x03,
3509,-67,92,-995,3500,-490,-140,,,,,,,0x03,
3518,-68,87,-987,2660,-490,-280,,,,,,,0x03,
3528,-67,80,-992,2450,-700,-70,,,,,,,0x03,
3538,-65,75,-1004,2450,-980,70,,,,,,,0x03,
3547,-66,73,-1006,2170,-980,210,,,,,,,0x03,
3557,-76,72,-1000,1190,-840,210,,,,,,,0x03,
3566,-80,70,-995,420,-980,-140,,,,,,,0x03,
3576,-73,71,-996,420,-1120,-420,,,,,,,0x03,
3586,-75,69,-997,770,-1260,-490,,,,,,,0x03,
3595,-74,74,-1001,1820,-1680,-700,,,,,,,0x03,
3605,-66,92,-1007,2310,-2100,-630,,,,,,,0x03,
3615,-67,90,-1003,1680,-2240,-560,,,,,,,0x03,
3624,-72,87,-1003,840,-2590,-700,,,,,,,0x03,
3634,-72,85,-1006,910,-3080,-700,,,,,,,0x03,
3644,-72,81,-1018,2170,-3570,-630,,,,,,,0x03,
3653,-72,82,-1035,4130,-4130,-630,,,,,,,0x03,
3663,-70,92,-1048,5950,-4550,-560,,,,,,,0x03,
3673,-63,92,-1055,6160,-4480,-700,,,,,,,0x03,
3682,-55,91,-1041,5320,-4060,-910,,,,,,,0x03,
3692,-57,85,-1015,4550,-3920,-910,,,,,,,0x03,
3701,-52,76,-1003,4900,-4200,-1050,,,,,,,0x03,
3711,-45,71,-1002,6160,-4620,-910,,,,,,,0x03,
3721,-47,62,-1007,7140,-4970,-560,,,,,,,0x03,
3730,-51,64,-1010,7420,-4690,-420,,,,,,,0x03,
3740,-55,66,-994,6440,-3850,-490,,,,,,,0x03,
3750,-57,59,-977,4900,-2800,-840,,,,,,,0x03,
3759,-63,52,-964,4410,-2240,-1260,,,,,,,0x03,
3769,-66,53,-964,5460,-2380,-1260,,,,,,,0x03,
3779,-66,61,-976,6650,-2730,-980,,,,,,,0x03,
3788,-75,69,-983,6300,-2660,-770,,,,,,,0x03,
3798,-90,72,-980,4200,-2240,-630,,,,,,,0x03,
3807,-97,72,-977,2310,-1890,-770,,,,,,,0x03,
3817,-98,70,-986,1470,-1890,-910,,,,,,,0x03,
3827,-96,65,-1000,1400,-1890,-840,,,,,,,0x03,
3836,-96,70,-1007,1960,-1680,-840,,,,,,,0x03,
3846,-96,73,-1005,1750,-1540,-700,,,,,,,0x03,
3856,-95,78,-1001,1260,-1330,-700,,,,,,,0x03,
3865,-95,69,-1003,770,-1400,-700,,,,,,,0x03,
3875,-95,58,-1006,420,-1260,-840,,,,,,,0x03,
3885,-94,50,-1002,980,-770,-840,,,,,,,0x03,
3894,-98,54,-992,1680,-490,-910,,,,,,,0x03,
3904,-98,62,-984,1750,-560,-980,,,,,,,0x03,
3913,-95,61,-982,700,-560,-910,,,,,,,0x03,
3923,-99,54,-982,-700,-350,-910,,,,,,,0x03,
3933,-100,49,-983,-980,-70,-840,,,,,,,0x03,
3942,-94,48,-979,-1120,490,-840,,,,,,,0x03,
3952,-97,48,-968,-980,1120,-840,,,,,,,0x03,
3962,-98,57,-959,-840,1260,-980,,,,,,,0x03,
3971,-96,67,-973,-490,630,-980,,,,,,,0x03,
3981,-91,78,-998,-770,-140,-700,,,,,,,0x03,
3991,-92,87,-1016,-2450,-140,-490,,,,,,,0x03,
4000,-94,79,-1019,-4970,420,-490,,,,,,,0x03,
4010,-94,71,-1012,-6580,980,-630,,,,,,,0x03,
4020,-91,64,-1003,-6230,1120,-630,,,,,,,0x03,
4029,-88,58,-1000,-4690,1120,-630,,,,,,,0x03,
4039,-89,58,-992,-2730,1050,-560,,,,,,,0x03,
4048,-90,70,-994,-910,770,-560,,,,,,,0x03,
4058,-81,81,-1007,-140,350,-280,,,,,,,0x03,
4068,-74,78,-1021,-490,280,-140,,,,,,,0x03,
4077,-79,68,-1019,-840,630,70,,,,,,,0x03,
4087,-77,70,-1010,-420,980,0,,,,,,,0x03,
4097,-72,72,-1003,420,980,0,,,,,,,0x03,
4106,-69,68,-1010,1120,560,70,,,,,,,0x03,
4116,-67,68,-1015,1820,280,70,,,,,,,0x03,
4126,-66,63,-1015,1820,140,280,,,,,,,0x03,
4135,-66,63,-1011,1820,140,280,,,,,,,0x03,
4145,-63,64,-998,1610,280,280,,,,,,,0x03,
4154,-62,58,-985,1330,280,210,,,,,,,0x03,
4164,-61,55,-985,1680,-210,280,,,,,,,0x03,
4174,-59,56,-997,2870,-770,420,,,,,,,0x03,
4183,-57,57,-1014,3640,-1050,630,,,,,,,0x03,
4193,-60,55,-1025,3360,-980,630,,,,,,,0x03,
4203,-63,59,-1024,3010,-770,350,,,,,,,0x03,
4212,-66,61,-1018,2450,-420,210,,,,,,,0x03,
4222,-68,54,-1004,1960,-140,70,,,,,,,0x03,
4232,-69,54,-992,2170,-280,0,,,,,,,0x03,
4241,-70,63,-993,2800,-910,70,,,,,,,0x03,
4251,-67,71,-1004,3150,-1540,350,,,,,,,0x03,
4261,-65,72,-1012,2310,-1750,630,,,,,,,0x03,
4270,-69,70,-1015,770,-1750,700,,,,,,,0x03,
4280,-64,63,-1022,-420,-1540,560,,,,,,,0x03,
4289,-62,53,-1021,-630,-1120,350,,,,,,,0x03,
4299,-70,44,-1011,0,-910,280,,,,,,,0x03,
4309,-72,51,-998,980,-910,70,,,,,,,0x03,
4318,-69,52,-991,1540,-980,70,,,,,,,0x03,
4328,-69,47,-995,2170,-1260,70,,,,,,,0x03,
4338,-67,51,-1008,2870,-1330,70,,,,,,,0x03,
4347,-68,54,-1011,3080,-910,140,,,,,,,0x03,
4357,-73,57,-996,2240,-210,140,,,,,,,0x03,
4367,-79,56,-972,1890,490,-210,,,,,,,0x03,
4376,-79,55,-960,2450,700,-280,,,,,,,0x03,
4386,-80,52,-962,3990,490,-70,,,,,,,0x03,
4395,-79,55,-972,6160,210,210,,,,,,,0x03,
4405,-82,60,-987,7770,350,490,,,,,,,0x03,
4415,-83,56,-994,8750,1120,700,,,,,,,0x03,
4424,-84,61,-992,9940,2030,630,,,,,,,0x03,
4434,-86,67,-978,10570,2660,560,,,,,,,0x03,
4444,-87,69,-975,11270,2730,490,,,,,,,0x03,
4453,-81,68,-989,12040,2310,700,,,,,,,0x03,
4463,-78,75,-1012,12460,1680,980,,,,,,,0x03,
4473,-74,78,-1036,11900,1540,1330,,,,,,,0x03,
4482,-71,78,-1038,9730,1750,1260,,,,,,,0x03,
4492,-76,65,-1024,7000,2170,1120,,,,,,,0x03,
4501,-75,51,-1009,5460,2170,770,,,,,,,0x03,
4511,-73,37,-1006,5460,1680,560,,,,,,,0x03,
4521,-74,31,-1019,6510,420,630,,,,,,,0x03,
4530,-70,33,-1036,6650,-560,770,,,,,,,0x03,
4540,-69,34,-1040,4900,-980,840,,,,,,,0x03,
4550,-72,23,-1032,1330,-980,350,,,,,,,0x03,
4559,-70,18,-1021,-1470,-700,-420,,,,,,,0x03,
4569,-65,8,-1004,-2940,-560,-770,,,,,,,0x03,
4579,-68,0,-985,-3780,-420,-980,,,,,,,0x03,
4588,-69,1,-977,-3150,-770,-1260,,,,,,,0x03,
4598,-65,12,-981,-2730,-1260,-1190,,,,,,,0x03,
4608,-66,21,-990,-3360,-1470,-1120,,,,,,,0x03,
4617,-67,22,-1006,-4550,-1540,-1050,,,,,,,0x03,
4627,-64,27,-1009,-5600,-1120,-1190,,,,,,,0x03,
4636,-66,28,-998,-6440,-560,-1190,,,,,,,0x03,
4646,-71,28,-990,-6790,-630,-1470,,,,,,,0x03,
4656,-71,32,-997,-5950,-840,-1680,,,,,,,0x03,
4665,-65,35,-1010,-5530,-1050,-1610,,,,,,,0x03,
4675,-63,43,-1010,-5880,-840,-1470,,,,,,,0x03,
4685,-71,48,-999,-6440,-560,-1260,,,,,,,0x03,
4694,-73,52,-996,-6930,-630,-1330,,,,,,,0x03,
4704,-72,53,-999,-6510,-840,-1260,,,,,,,0x03,
4714,-68,45,-1014,-5110,-1050,-980,,,,,,,0x03,
4723,-68,43,-1026,-4060,-980,-770,,,,,,,0x03,
4733,-70,48,-1023,-3010,-560,-700,,,,,,,0x03,
4742,-72,54,-1014,-2590,-280,-630,,,,,,,0x03,
4752,-72,53,-1007,-2520,0,-560,,,,,,,0x03,
4762,-68,45,-997,-1960,280,-490,,,,,,,0x03,
4771,-71,49,-989,-980,210,-490,,,,,,,0x03,
4781,-74,58,-987,70,70,-210,,,,,,,0x03,
4791,-70,55,-990,210,0,-70,,,,,,,0x03,
4800,-64,53,-990,-140,420,-140,,,,,,,0x03,
4810,-67,52,-983,-140,700,-140,,,,,,,0x03,
4820,-68,52,-986,-280,490,-280,,,,,,,0x03,
4829,-66,54,-992,-140,420,-210,,,,,,,0x03,
4839,-68,50,-1005,-420,140,-70,,,,,,,0x03,
4848,-70,54,-1019,-770,-70,-70,,,,,,,0x03,
4858,-69,56,-1022,-1400,-140,-70,,,,,,,0x03,
4868,-70,58,-1024,-2310,-210,-280,,,,,,,0x03,
4877,-68,58,-1018,-3220,-280,-560,,,,,,,0x03,
4887,-68,59,-1014,-3780,-420,-840,,,,,,,0x03,
4897,-64,53,-1013,-3850,-700,-840,,,,,,,0x03,
4906,-66,48,-1013,-3570,-770,-840,,,,,,,0x03,
4916,-66,51,-1011,-2730,-840,-770,,,,,,,0x03,
4926,-64,54,-1008,-2520,-770,-770,,,,,,,0x03,
4935,-66,55,-1005,-2660,-700,-770,,,,,,,0x03,
4945,-67,50,-1003,-3150,-630,-840,,,,,,,0x03,
4955,-65,52,-994,-3500,-280,-1050,,,,,,,0x03,
4964,-68,50,-979,-3710,-70,-980,,,,,,,0x03,
4974,-70,52,-977,-3290,-210,-980,,,,,,,0x03,
4983,-68,53,-981,-2310,-350,-770,,,,,,,0x03,
4993,-66,56,-985,-1750,-350,-560,,,,,,,0x03,
5003,-67,67,-983,-1400,-280,-560,,,,,,,0x03,
5012,-68,75,-985,-1610,-280,-350,,,,,,,0x03,
5022,-66,72,-993,-1820,-140,-210,,,,,,,0x03,
5032,-69,65,-998,-1890,70,0,,,,,,,0x03,
5041,-74,63,-1001,-840,280,420,,,,,,,0x03,
5051,-73,65,-1007,980,140,910,,,,,,,0x03,
5061,-71,62,-1019,2450,-210,1190,,,,,,,0x03,
5070,-70,61,-1031,3080,-420,1190,,,,,,,0x03,
5080,-72,59,-1036,3220,-490,1050,,,,,,,0x03,
5089,-74,52,-1029,2800,-280,1050,,,,,,,0x03,
5099,-70,47,-1018,2730,-70,840,,,,,,,0x03,
5109,-69,41,-1015,3150,-280,700,,,,,,,0x03,
5118,-68,37,-1012,3360,-630,700,,,,,,,0x03,
5128,-72,30,-1010,3220,-910,630,,,,,,,0x03,
5138,-73,34,-1009,2800,-1120,560,,,,,,,0x03,
5147,-72,35,-1005,1750,-1050,420,,,,,,,0x03,
5157,-70,33,-998,420,-840,140,,,,,,,0x03,
5167,-71,28,-986,-420,-560,0,,,,,,,0x03,
5176,-74,31,-987,-210,-840,-70,,,,,,,0x03,
5186,-75,37,-999,210,-1400,70,,,,,,,0x03,
5195,-74,40,-1013,-70,-1680,140,,,,,,,0x03,
5205,-76,49,-1020,-910,-1750,0,,,,,,,0x03,
5215,-72,64,-1020,-2380,-1680,-140,,,,,,,0x03,
5224,-71,68,-1015,-4340,-1540,-280,,,,,,,0x03,
5234,-68,62,-1009,-5530,-1540,-490,,,,,,,0x03,
5244,-67,59,-998,-5810,-1470,-420,,,,,,,0x03,
5253,-72,53,-990,-5180,-1470,-210,,,,,,,0x03,
5263,-71,54,-995,-3640,-1610,-140,,,,,,,0x03,
5273,-70,55,-1002,-2310,-1540,140,,,,,,,0x03,
5282,-77,57,-1004,-1330,-1400,280,,,,,,,0x03,
5292,-77,65,-993,-1190,-910,280,,,,,,,0x03,
5302,-79,66,-976,-1890,-560,140,,,,,,,0x03,
5311,-81,61,-973,-2030,-630,70,,,,,,,0x03,
5321,-78,61,-981,-1050,-910,210,,,,,,,0x03,
5330,-75,67,-991,-210,-1050,490,,,,,,,0x03,
5340,-77,76,-993,-140,-980,700,,,,,,,0x03,
5350,-78,78,-999,-840,-840,840,,,,,,,0x03,
5359,-75,75,-1003,-1820,-630,700,,,,,,,0x03,
5369,-70,63,-1004,-2170,-420,700,,,,,,,0x03,
5379,-71,56,-1001,-1330,-350,770,,,,,,,0x03,
5388,-71,52,-1001,630,-280,910,,,,,,,0x03,
5398,-67,58,-999,2380,-350,980,,,,,,,0x03,
5408,-67,66,-1001,3290,-490,1190,,,,,,,0x03,
5417,-67,68,-1006,3010,-560,1260,,,,,,,0x03,
5427,-67,68,-1007,2030,-490,1260,,,,,,,0x03,
5436,-68,63,-1006,840,-210,1260,,,,,,,0x03,
5446,-63,53,-1004,490,70,1120,,,,,,,0x03,
5456,-63,46,-999,770,210,1050,,,,,,,0x03,
5465,-64,43,-999,1890,280,980,,,,,,,0x03,
5475,-63,48,-1000,2800,490,840,,,,,,,0x03,
5485,-64,54,-998,2730,630,840,,,,,,,0x03,
5494,-70,58,-997,2030,560,910,,,,,,,0x03,
5504,-67,66,-1000,910,420,770,,,,,,,0x03,
5514,-60,69,-1002,-560,420,700,,,,,,,0x03,
5523,-63,70,-997,-2100,560,770,,,,,,,0x03,
5533,-63,74,-995,-3010,280,770,,,,,,,0x03,
5543,-59,72,-1001,-3640,0,910,,,,,,,0x03,
5552,-57,64,-1004,-4060,0,980,,,,,,,0x03,
5562,-62,57,-1002,-4130,280,1120,,,,,,,0x03,
5571,-68,53,-1003,-3220,490,1050,,,,,,,0x03,
5581,-63,55,-1008,-2100,420,980,,,,,,,0x03,
5591,-64,52,-1008,-1260,490,1120,,,,,,,0x03,
5600,-69,36,-1008,-1050,700,1190,,,,,,,0x03,
5610,-70,37,-996,-560,1050,1120,,,,,,,0x03,
5620,-72,30,-987,-140,1190,1330,,,,,,,0x03,
5629,-71,24,-991,980,1120,1050,,,,,,,0x03,
5639,-65,27,-993,1820,1120,700,,,,,,,0x03,
5649,-66,40,-999,1820,840,420,,,,,,,0x03,
5658,-61,54,-1008,1190,490,210,,,,,,,0x03,
5668,-60,65,-1018,-420,280,70,,,,,,,0x03,
5677,-58,67,-1027,-2170,70,-210,,,,,,,0x03,
5687,-56,70,-1022,-3710,210,-490,,,,,,,0x03,
5697,-63,68,-1007,-4480,210,-770,,,,,,,0x03,
5706,-64,75,-1002,-3920,-350,-1050,,,,,,,0x03,
5716,-58,83,-1010,-3220,-980,-1050,,,,,,,0x03,
5726,-57,83,-1022,-2940,-1330,-910,,,,,,,0x03,
5735,-60,87,-1030,-2940,-1400,-910,,,,,,,0x03,
5745,-60,88,-1025,-3430,-1120,-770,,,,,,,0x03,
5755,-58,83,-1016,-3780,-910,-980,,,,,,,0x03,
5764,-57,75,-1006,-3430,-840,-980,,,,,,,0x03,
5774,-59,69,-996,-2520,-910,-1050,,,,,,,0x03,
5783,-62,69,-996,-1120,-1470,-980,,,,,,,0x03,
5793,-58,74,-1005,280,-1820,-770,,,,,,,0x03,
5803,-59,78,-1009,210,-1820,-630,,,,,,,0x03,
5812,-63,79,-1005,-560,-1540,-700,,,,,,,0x03,
5822,-64,83,-1001,-1680,-1190,-700,,,,,,,0x03,
5832,-65,70,-992,-2590,-700,-630,,,,,,,0x03,
5841,-69,63,-980,-2730,-350,-560,,,,,,,0x03,
5851,-73,60,-976,-1820,-420,-350,,,,,,,0x03,
5861,-73,61,-976,-980,-420,-70,,,,,,,0x03,
5870,-69,67,-985,0,-490,210,,,,,,,0x03,
5880,-63,79,-1000,280,-560,350,,,,,,,0x03,
5890,-62,84,-1008,-490,-350,630,,,,,,,0x03,
5899,-64,78,-1008,-1610,0,910,,,,,,,0x03,
5909,-63,73,-1006,-2030,140,1050,,,,,,,0x03,
5918,-64,58,-1002,-1610,70,1260,,,,,,,0x03,
5928,-69,46,-1006,-350,-140,1400,,,,,,,0x03,
5938,-68,35,-1010,840,-70,1540,,,,,,,0x03,
5947,-74,22,-1001,1330,630,1400,,,,,,,0x03,
5957,-74,21,-983,2100,1120,770,,,,,,,0x03,
5967,-71,28,-968,2660,1610,350,,,,,,,0x03,
5976,-64,31,-968,2730,1610,140,,,,,,,0x03,
5986,-59,35,-980,2730,1470,140,,,,,,,0x03,
5996,-61,39,-998,2100,1470,210,,,,,,,0x03,
6005,-60,48,-1010,1190,1610,140,,,,,,,0x03,
6015,-63,57,-1006,-420,1820,-70,,,,,,,0x03,
6024,-72,59,-1004,-2030,1680,-490,,,,,,,0x03,
6034,-67,65,-1013,-2100,1190,-910,,,,,,,0x03,
6044,-63,74,-1022,-1610,700,-1050,,,,,,,0x03,
6053,-64,84,-1023,-1750,350,-1120,,,,,,,0x03,
6063,-63,92,-1026,-2380,0,-1120,,,,,,,0x03,
6073,-61,97,-1024,-3220,-210,-980,,,,,,,0x03,
6082,-62,95,-1016,-4130,-420,-770,,,,,,,0x03,
6092,-58,87,-1014,-4060,-840,-630,,,,,,,0x03,
6102,-52,86,-1021,-2940,-1260,-560,,,,,,,0x03,
6111,-51,86,-1027,-1820,-1470,-350,,,,,,,0x03,
6121,-52,82,-1020,-1260,-1400,-280,,,,,,,0x03,
6130,-56,80,-1005,-980,-1190,-350,,,,,,,0x03,
6140,-60,76,-994,-840,-1120,-350,,,,,,,0x03,
6150,-61,71,-984,-350,-1050,-210,,,,,,,0x03,
6159,-65,67,-979,280,-1330,140,,,,,,,0x03,
6169,-66,68,-988,1120,-1820,280,,,,,,,0x03,
6179,-64,76,-1002,1120,-2100,280,,,,,,,0x03,
6188,-67,72,-1008,-280,-2170,350,,,,,,,0x03,
6198,-69,63,-1010,-2170,-1750,-70,,,,,,,0x03,
6208,-72,65,-1001,-3570,-1540,-490,,,,,,,0x03,
6217,-74,66,-997,-3850,-1680,-700,,,,,,,0x03,
6227,-68,73,-1004,-3780,-2100,-770,,,,,,,0x03,
6237,-64,76,-1020,-3570,-2520,-420,,,,,,,0x03,
6246,-56,81,-1029,-4130,-2450,-280,,,,,,,0x03,
6256,-52,84,-1023,-5040,-2170,-70,,,,,,,0x03,
6265,-48,72,-1012,-6020,-1750,140,,,,,,,0x03,
6275,-45,54,-998,-5950,-1330,70,,,,,,,0x03,
6285,-50,40,-985,-4060,-1190,350,,,,,,,0x03,
6294,-55,40,-979,-1050,-1470,630,,,,,,,0x03,
6304,-56,47,-984,1330,-1680,910,,,,,,,0x03,
6314,-60,50,-994,2170,-1680,1050,,,,,,,0x03,
6323,-68,54,-997,1120,-1190,910,,,,,,,0x03,
6333,-71,57,-983,-840,-420,770,,,,,,,0x03,
6343,-72,52,-964,-2170,210,560,,,,,,,0x03,
6352,-75,52,-958,-2240,350,280,,,,,,,0x03,
6362,-73,55,-974,-840,140,350,,,,,,,0x03,
6371,-67,71,-991,490,-70,490,,,,,,,0x03,
6381,-68,86,-1003,350,70,560,,,,,,,0x03,
6391,-68,91,-1011,-700,350,560,,,,,,,0x03,
6400,-65,89,-1014,-1610,770,350,,,,,,,0x03,
6410,-65,85,-1011,-1400,1050,140,,,,,,,0x03,
6420,-68,84,-1011,560,840,140,,,,,,,0x03,
6429,-65,93,-1021,3150,140,140,,,,,,,0x03,
6439,-60,108,-1034,4200,-490,350,,,,,,,0x03,
6449,-57,117,-1042,3150,-770,350,,,,,,,0x03,
6458,-52,114,-1033,770,-700,210,,,,,,,0x03,
6468,-55,104,-1011,-1330,-630,140,,,,,,,0x03,
6478,-51,84,-997,-1890,-770,140,,,,,,,0x03,
6487,-52,71,-996,-210,-1120,70,,,,,,,0x03,
6497,-52,66,-997,2030,-1260,210,,,,,,,0x03,
6506,-57,73,-996,2940,-1260,280,,,,,,,0x03,
6516,-56,85,-993,2240,-1330,210,,,,,,,0x03,
6526,-55,84,-988,-140,-980,70,,,,,,,0x03,
6535,-59,69,-986,-2520,-910,0,,,,,,,0x03,
6545,-60,54,-991,-2660,-910,0,,,,,,,0x03,
6555,-59,49,-997,-1330,-980,70,,,,,,,0x03,
6564,-62,57,-1001,-70,-1050,0,,,,,,,0x03,
6574,-65,65,-1002,210,-910,-280,,,,,,,0x03,
6584,-65,73,-1003,-840,-560,-630,,,,,,,0x03,
6593,-65,72,-1000,-1820,-210,-840,,,,,,,0x03,
6603,-67,76,-995,-1960,-70,-980,,,,,,,0x03,
6612,-68,82,-988,-1890,-70,-700,,,,,,,0x03,
6622,-66,78,-995,-1400,-490,-490,,,,,,,0x03,
6632,-65,80,-1010,-910,-840,-280,,,,,,,0x03,
6641,-63,83,-1013,-770,-770,-70,,,,,,,0x03,
6651,-63,84,-1007,-980,-560,-140,,,,,,,0x03,
6661,-63,79,-1009,-980,-560,-280,,,,,,,0x03,
6670,-61,71,-1011,-350,-280,-350,,,,,,,0x03,
6680,-63,64,-1003,630,0,-210,,,,,,,0x03,
6690,-69,66,-990,1610,140,-140,,,,,,,0x03,
6699,-68,69,-985,2310,0,-70,,,,,,,0x03,
6709,-59,73,-991,2730,-70,-70,,,,,,,0x03,
6718,-60,75,-1002,2800,0,-70,,,,,,,0x03,
6728,-57,70,-1017,2660,490,-210,,,,,,,0x03,
6738,-52,64,-1023,2660,1330,-280,,,,,,,0x03,
6747,-55,58,-1010,3010,2240,-420,,,,,,,0x03,
6757,-62,54,-984,3500,2590,-560,,,,,,,0x03,
6767,-60,61,-975,4970,2030,-630,,,,,,,0x03,
6776,-48,70,-989,6230,1120,-630,,,,,,,0x03,
6786,-44,79,-1006,6230,700,-560,,,,,,,0x03,
6796,-47,86,-1013,5320,630,-630,,,,,,,0x03,
6805,-54,87,-1002,3640,1050,-560,,,,,,,0x03,
6815,-59,77,-989,2310,1330,-490,,,,,,,0x03,
6825,-65,71,-988,2940,980,-630,,,,,,,0x03,
6834,-65,78,-1004,4760,-70,-630,,,,,,,0x03,
6844,-60,89,-1033,5110,-770,-280,,,,,,,0x03,
6853,-59,89,-1044,3430,-980,-280,,,,,,,0x03,
6863,-61,85,-1037,1050,-630,-420,,,,,,,0x03,
6873,-60,76,-1020,-420,-420,-700,,,,,,,0x03,
6882,-62,55,-1006,-70,-700,-840,,,,,,,0x03,
6892,-65,45,-1004,2030,-1260,-840,,,,,,,0x03,
6902,-64,52,-1006,4550,-1610,-770,,,,,,,0x03,
6911,-66,63,-1007,5530,-1960,-630,,,,,,,0x03,
6921,-70,69,-1010,4200,-1960,-770,,,,,,,0x03,
6931,-70,67,-1009,2240,-1540,-1120,,,,,,,0x03,
6940,-68,58,-998,350,-1120,-1330,,,,,,,0x03,
6950,-77,49,-985,70,-1050,-1400,,,,,,,0x03,
6959,-79,51,-983,1470,-1610,-1400,,,,,,,0x03,
6969,-73,61,-998,2940,-2520,-1190,,,,,,,0x03,
6979,-68,66,-1018,2940,-3080,-910,,,,,,,0x03,
6988,-65,70,-1033,1820,-3290,-910,,,,,,,0x03,
6998,-56,70,-1030,210,-2800,-910,,,,,,,0x03,
7008,-55,58,-1009,-1260,-2030,-910,,,,,,,0x03,
7017,-62,48,-988,-1260,-1820,-1050,,,,,,,0x03,
7027,-64,41,-977,-140,-2170,-910,,,,,,,0x03,
7037,-65,37,-980,1470,-2730,-630,,,,,,,0x03,
7046,-61,48,-996,2590,-3220,-630,,,,,,,0x03,
7056,-61,61,-1003,1470,-3010,-490,,,,,,,0x03,
7065,-66,63,-996,-1260,-2310,-630,,,,,,,0x03,
7075,-67,60,-976,-3640,-1540,-770,,,,,,,0x03,
7085,-70,51,-955,-3990,-1050,-770,,,,,,,0x03,
7094,-70,47,-951,-1960,-1330,-560,,,,,,,0x03,
7104,-67,54,-968,910,-1540,-210,,,,,,,0x03,
7114,-63,65,-987,3080,-1330,140,,,,,,,0x03,
7123,-60,68,-999,3780,-560,350,,,,,,,0x03,
7133,-62,75,-999,3640,280,280,,,,,,,0x03,
7143,-58,75,-995,3640,1050,210,,,,,,,0x03,
7152,-56,76,-991,4620,1260,350,,,,,,,0x03,
7162,-55,62,-1007,6440,1050,630,,,,,,,0x03,
7172,-50,55,-1028,8610,840,700,,,,,,,0x03,
7181,-47,60,-1035,10360,840,980,,,,,,,0x03,
7191,-46,61,-1033,11130,770,1050,,,,,,,0x03,
7200,-47,67,-1027,10990,630,770,,,,,,,0x03,
7210,-48,59,-1030,10430,280,630,,,,,,,0x03,
7220,-54,53,-1038,9940,-140,490,,,,,,,0x03,
7229,-54,44,-1030,9380,-210,630,,,,,,,0x03,
7239,-59,35,-1016,9170,-350,840,,,,,,,0x03,
7249,-58,32,-1012,9380,-910,700,,,,,,,0x03,
7258,-56,27,-1017,9100,-1330,630,,,,,,,0x03,
7268,-59,18,-1023,7840,-1470,490,,,,,,,0x03,
7278,-64,16,-1014,6510,-1330,70,,,,,,,0x03,
7287,-67,16,-1001,4480,-1190,-210,,,,,,,0x03,
7297,-67,8,-994,2660,-1120,-560,,,,,,,0x03,
7306,-62,4,-990,1820,-1190,-910,,,,,,,0x03,
7316,-61,7,-991,1400,-1400,-1050,,,,,,,0x03,
7326,-58,20,-992,630,-1750,-1120,,,,,,,0x03,
7335,-60,36,-995,-1540,-2100,-1190,,,,,,,0x03,
7345,-58,42,-1002,-4200,-2380,-1330,,,,,,,0x03,
7355,-59,40,-1012,-6440,-2450,-1330,,,,,,,0x03,
7364,-64,29,-1019,-7700,-2590,-1190,,,,,,,0x03,
7374,-65,29,-1018,-7420,-2590,-980,,,,,,,0x03,
7384,-61,35,-1012,-6090,-2660,-840,,,,,,,0x03,
7393,-56,41,-1004,-5740,-2520,-770,,,,,,,0x03,
7403,-55,41,-991,-5530,-1960,-840,,,,,,,0x03,
7413,-55,40,-975,-5250,-1260,-910,,,,,,,0x03,
7422,-61,44,-960,-4550,-700,-770,,,,,,,0x03,
7432,-66,38,-956,-3360,0,-280,,,,,,,0x03,
7441,-63,30,-952,-1190,910,140,,,,,,,0x03,
7451,-66,32,-943,910,1820,490,,,,,,,0x03,
7461,-73,39,-946,2660,2380,700,,,,,,,0x03,
7470,-71,47,-963,4830,2660,630,,,,,,,0x03,
7480,-76,54,-985,6090,2940,910,,,,,,,0x03,
7490,-83,60,-1004,6720,3150,1120,,,,,,,0x03,
7499,-82,69,-1014,7210,3430,1470,,,,,,,0x03,
7509,-79,61,-1019,7560,3780,1890,,,,,,,0x03,
7519,-73,53,-1022,8610,3850,2100,,,,,,,0x03,
7528,-67,50,-1024,10430,3500,2380,,,,,,,0x03,
7538,-63,45,-1026,12180,2800,2520,,,,,,,0x03,
7547,-62,41,-1042,13580,1680,2590,,,,,,,0x03,
7557,-57,39,-1060,14630,700,2660,,,,,,,0x03,
7567,-54,34,-1066,14490,350,2590,,,,,,,0x03,
7576,-55,20,-1056,13230,420,2310,,,,,,,0x03,
7586,-57,18,-1034,12110,350,1750,,,,,,,0x03,
7596,-56,20,-1019,11060,-210,1400,,,,,,,0x03,
7605,-50,22,-1017,8960,-980,1120,,,,,,,0x03,
7615,-45,16,-1023,6230,-1750,840,,,,,,,0x03,
7625,-45,5,-1027,2660,-2170,700,,,,,,,0x03,
7634,-45,2,-1022,-910,-2380,280,,,,,,,0x03,
7644,-43,0,-1010,-3920,-2520,-70,,,,,,,0x03,
7653,-43,-11,-999,-6300,-2660,-420,,,,,,,0x03,
7663,-48,-17,-994,-7280,-2940,-840,,,,,,,0x03,
7673,-49,-17,-993,-7070,-3150,-980,,,,,,,0x03,
7682,-51,-10,-990,-7000,-3010,-1120,,,,,,,0x03,
7692,-52,4,-988,-7350,-3010,-1260,,,,,,,0x03,
7702,-52,20,-991,-8470,-3010,-1470,,,,,,,0x03,
7711,-53,23,-1000,-10290,-3010,-1400,,,,,,,0x03,
7721,-52,20,-1004,-11690,-2800,-1260,,,,,,,0x03,
7731,-53,26,-999,-11760,-2450,-1330,,,,,,,0x03,
7740,-53,31,-995,-11060,-2240,-1260,,,,,,,0x03,
7750,-53,31,-994,-10150,-2030,-1330,,,,,,,0x03,
7760,-57,35,-994,-8750,-1750,-1540,,,,,,,0x03,
7769,-60,44,-995,-7070,-1680,-1470,,,,,,,0x03,
7779,-66,54,-1002,-5810,-1890,-1120,,,,,,,0x03,
7788,-69,55,-1011,-5040,-2030,-700,,,,,,,0x03,
7798,-63,60,-1016,-4480,-1820,-630,,,,,,,0x03,
7808,-60,60,-1011,-4340,-1400,-490,,,,,,,0x03,
7817,-60,57,-1000,-4060,-1190,-560,,,,,,,0x03,
7827,-61,61,-992,-3220,-1190,-630,,,,,,,0x03,
7837,-62,58,-993,-2310,-1400,-350,,,,,,,0x03,
7846,-70,57,-998,-1400,-1680,-210,,,,,,,0x03,
7856,-71,63,-1011,-630,-1960,-70,,,,,,,0x03,
7866,-69,65,-1015,-840,-1680,70,,,,,,,0x03,
7875,-72,60,-1001,-1890,-1120,70,,,,,,,0x03,
7885,-69,59,-983,-2800,-840,-140,,,,,,,0x03,
7894,-66,49,-980,-2800,-1120,-210,,,,,,,0x03,
7904,-63,35,-991,-1890,-1400,-70,,,,,,,0x03,
7914,-63,32,-1006,-280,-1400,-70,,,,,,,0x03,
7923,-65,35,-1014,490,-1260,0,,,,,,,0x03,
7933,-65,41,-1017,70,-910,-280,,,,,,,0x03,
7943,-67,45,-1007,-1470,-490,-490,,,,,,,0x03,
7952,-67,36,-993,-3290,-280,-840,,,,,,,0x03,
7962,-65,30,-991,-3780,-560,-1190,,,,,,,0x03,
7972,-61,32,-1004,-3080,-1120,-1050,,,,,,,0x03,
7981,-57,36,-1017,-2660,-1470,-980,,,,,,,0x03,
7991,-61,40,-1018,-3640,-1190,-1050,,,,,,,0x03,
8000,-70,42,-1009,-5320,-840,-1260,,,,,,,0x03,
8010,-70,43,-998,-6510,-840,-1470,,,,,,,0x03,
8020,-69,45,-995,-6440,-1120,-1820,,,,,,,0x03,
8029,-69,46,-1000,-5740,-1330,-1820,,,,,,,0x03,
8039,-70,50,-1009,-4690,-1680,-1750,,,,,,,0x03,
8049,-69,65,-1015,-4200,-1820,-1540,,,,,,,0x03,
8058,-64,72,-1012,-5110,-1540,-1470,,,,,,,0x03,
8068,-66,70,-995,-6440,-1050,-1610,,,,,,,0x03,
8078,-67,54,-983,-6510,-630,-1610,,,,,,,0x03,
8087,-64,49,-982,-4270,-560,-1540,,,,,,,0x03,
8097,-59,54,-989,-1050,-700,-1120,,,,,,,0x03,
8107,-59,59,-997,1960,-700,-630,,,,,,,0x03,
8116,-61,64,-1000,3220,-350,-350,,,,,,,0x03,
8126,-68,65,-989,3220,140,-350,,,,,,,0x03,
8135,-73,62,-983,2940,350,-420,,,,,,,0x03,
8145,-65,51,-999,3710,140,-350,,,,,,,0x03,
8155,-58,44,-1019,5110,-70,-70,,,,,,,0x03,
8164,-64,51,-1022,5880,-140,140,,,,,,,0x03,
8174,-66,63,-1019,5110,-350,140,,,,,,,0x03,
8184,-60,60,-1021,3150,-490,-70,,,,,,,0x03,
8193,-60,45,-1023,1330,-420,-350,,,,,,,0x03,
8203,-60,33,-1021,630,-420,-560,,,,,,,0x03,
8213,-57,32,-1013,1050,-490,-560,,,,,,,0x03,
8222,-59,33,-1004,1610,-770,-420,,,,,,,0x03,
8232,-60,32,-1006,1400,-1120,-490,,,,,,,0x03,
8241,-59,35,-1011,700,-1260,-630,,,,,,,0x03,
8251,-64,34,-1004,-1050,-1120,-700,,,,,,,0x03,
8261,-67,34,-992,-2730,-770,-910,,,,,,,0x03,
8270,-66,36,-988,-3710,-770,-1190,,,,,,,0x03,
8280,-66,38,-987,-4340,-980,-1400,,,,,,,0x03,
8290,-72,40,-990,-4410,-1260,-1400,,,,,,,0x03,
8299,-74,51,-1000,-4270,-1400,-1400,,,,,,,0x03,
8309,-75,59,-1012,-4620,-1400,-1330,,,,,,,0x03,
8319,-73,55,-1014,-5390,-980,-1330,,,,,,,0x03,
8328,-72,53,-1005,-5880,-490,-1470,,,,,,,0x03,
8338,-71,51,-990,-5390,-210,-1610,,,,,,,0x03,
8347,-74,56,-986,-3430,-630,-1540,,,,,,,0x03,
8357,-76,61,-996,-1890,-1190,-1260,,,,,,,0x03,
8367,-81,58,-1014,-840,-1470,-1050,,,,,,,0x03,
8376,-78,62,-1026,-70,-1120,-1120,,,,,,,0x03,
8386,-80,65,-1026,-280,-630,-1120,,,,,,,0x03,
8396,-83,56,-1012,-350,0,-1190,,,,,,,0x03,
8405,-80,48,-991,490,490,-1470,,,,,,,0x03,
8415,-78,53,-978,2520,490,-1750,,,,,,,0x03,
8425,-70,56,-980,4550,280,-1470,,,,,,,0x03,
8434,-65,68,-988,6230,140,-1260,,,,,,,0x03,
8444,-63,75,-993,6720,210,-840,,,,,,,0x03,
8454,-63,83,-995,5530,490,-560,,,,,,,0x03,
8463,-61,73,-988,4130,1050,-420,,,,,,,0x03,
8473,-61,65,-986,3850,1260,-560,,,,,,,0x03,
8482,-61,65,-983,4340,1190,-420,,,,,,,0x03,
8492,-63,62,-986,5040,840,-280,,,,,,,0x03,
8502,-61,65,-995,5530,350,-140,,,,,,,0x03,
8511,-56,72,-1007,5320,140,350,,,,,,,0x03,
8521,-55,61,-1017,4690,140,630,,,,,,,0x03,
8531,-51,51,-1023,4060,280,490,,,,,,,0x03,
8540,-52,44,-1021,3990,490,630,,,,,,,0x03,
8550,-49,32,-1019,4690,560,630,,,,,,,0x03,
8560,-43,27,-1009,5180,490,700,,,,,,,0x03,
8569,-49,28,-1005,5180,280,770,,,,,,,0x03,
8579,-47,24,-1011,5390,-490,560,,,,,,,0x03,
8588,-39,27,-1029,4830,-980,560,,,,,,,0x03,
8598,-41,25,-1036,3080,-1120,630,,,,,,,0x03,
8608,-50,22,-1026,630,-1120,350,,,,,,,0x03,
8617,-51,21,-1012,-1750,-1050,70,,,,,,,0x03,
8627,-51,3,-1007,-3360,-1120,-210,,,,,,,0x03,
8637,-53,-9,-1011,-3500,-1260,-630,,,,,,,0x03,
8646,-54,-2,-1014,-2520,-1260,-630,,,,,,,0x03,
8656,-58,0,-1011,-2520,-980,-560,,,,,,,0x03,
8666,-62,9,-1001,-3220,-630,-840,,,,,,,0x03,
8675,-68,18,-989,-4200,-280,-1120,,,,,,,0x03,
8685,-67,23,-981,-4830,-210,-1400,,,,,,,0x03,
8695,-65,30,-978,-4830,-140,-1330,,,,,,,0x03,
8704,-72,34,-976,-4620,-70,-1120,,,,,,,0x03,
8714,-73,45,-987,-3920,-210,-1190,,,,,,,0x03,
8723,-70,58,-996,-3920,-210,-910,,,,,,,0x03,
8733,-76,61,-992,-4900,70,-700,,,,,,,0x03,
8743,-81,66,-997,-5180,-210,-840,,,,,,,0x03,
8752,-74,73,-1009,-4620,-420,-630,,,,,,,0x03,
8762,-73,73,-1017,-3920,-420,-280,,,,,,,0x03,
8772,-74,71,-1017,-3360,-350,0,,,,,,,0x03,
8781,-70,73,-1011,-2240,-70,210,,,,,,,0x03,
8791,-65,70,-998,-1260,0,490,,,,,,,0x03,
8801,-64,71,-989,-210,70,630,,,,,,,0x03,
8810,-60,65,-991,1050,-280,840,,,,,,,0x03,
8820,-58,62,-1002,1890,-700,1190,,,,,,,0x03,
8829,-61,55,-1017,2170,-910,1540,,,,,,,0x03,
8839,-60,46,-1024,2170,-770,1680,,,,,,,0x03,
8849,-58,37,-1020,1750,-350,1470,,,,,,,0x03,
8858,-55,28,-1012,1260,70,1050,,,,,,,0x03,
8868,-52,25,-1000,1330,350,630,,,,,,,0x03,
8878,-47,32,-995,1820,-70,420,,,,,,,0x03,
8887,-42,39,-999,1400,-560,350,,,,,,,0x03,
8897,-44,40,-1009,-70,-840,140,,,,,,,0x03,
8907,-49,39,-1026,-1330,-1190,70,,,,,,,0x03,
8916,-50,47,-1031,-2590,-1050,0,,,,,,,0x03,
8926,-55,41,-1020,-3920,-700,-210,,,,,,,0x03,
8935,-61,37,-1004,-4550,-560,-630,,,,,,,0x03,
8945,-70,37,-1001,-3850,-980,-910,,,,,,,0x03,
8955,-71,37,-1008,-2380,-1470,-840,,,,,,,0x03,
8964,-73,51,-1013,-1260,-1820,-770,,,,,,,0x03,
8974,-78,62,-1016,-1120,-2100,-630,,,,,,,0x03,
8984,-76,71,-1014,-1680,-2100,-840,,,,,,,0x03,
8993,-70,70,-999,-3010,-1750,-840,,,,,,,0x03,
9003,-65,59,-982,-3920,-1330,-910,,,,,,,0x03,
9013,-56,53,-971,-2940,-1260,-910,,,,,,,0x03,
9022,-50,55,-976,-840,-1540,-700,,,,,,,0x03,
9032,-47,63,-991,980,-1680,-420,,,,,,,0x03,
9042,-45,68,-1000,1120,-1260,-70,,,,,,,0x03,
9051,-52,76,-990,-280,-630,-70,,,,,,,0x03,
9061,-60,75,-982,-1680,-560,-140,,,,,,,0x03,
9070,-54,65,-988,-2170,-630,-210,,,,,,,0x03,
9080,-54,53,-1001,-1540,-770,-140,,,,,,,0x03,
9090,-58,48,-1014,-70,-980,70,,,,,,,0x03,
9099,-66,51,-1023,980,-980,210,,,,,,,0x03,
9109,-68,55,-1021,770,-840,140,,,,,,,0x03,
9119,-69,54,-1017,-350,-770,-210,,,,,,,0x03,
9128,-69,46,-1016,-1330,-700,-420,,,,,,,0x03,
9138,-63,39,-1009,-1610,-490,-490,,,,,,,0x03,
9148,-62,34,-998,-1610,-350,-490,,,,,,,0x03,
9157,-59,40,-992,-1120,-560,-490,,,,,,,0x03,
9167,-55,45,-992,-1330,-840,-490,,,,,,,0x03,
9176,-60,49,-997,-2660,-1050,-630,,,,,,,0x03,
9186,-69,46,-1002,-4340,-980,-630,,,,,,,0x03,
9196,-73,45,-1000,-5670,-700,-770,,,,,,,0x03,
9205,-74,42,-994,-6370,-490,-840,,,,,,,0x03,
9215,-73,42,-993,-6160,-420,-1050,,,,,,,0x03,
9225,-73,41,-1002,-4970,-630,-1190,,,,,,,0x03,
9234,-66,52,-1017,-3290,-840,-1330,,,,,,,0x03,
9244,-58,63,-1025,-3010,-700,-1400,,,,,,,0x03,
9254,-64,74,-1019,-3430,-280,-1540,,,,,,,0x03,
9263,-66,75,-1014,-4340,-140,-1610,,,,,,,0x03,
9273,-65,74,-1006,-5040,-140,-1750,,,,,,,0x03,
9282,-70,80,-998,-4690,-420,-1610,,,,,,,0x03,
9292,-71,84,-1007,-3990,-1190,-1400,,,,,,,0x03,
9302,-66,94,-1021,-3570,-1680,-1190,,,,,,,0x03,
9311,-65,97,-1022,-4410,-1750,-840,,,,,,,0x03,
9321,-62,91,-1013,-6090,-1470,-840,,,,,,,0x03,
9331,-57,71,-998,-6650,-840,-1050,,,,,,,0x03,
9340,-56,55,-979,-4900,-350,-1120,,,,,,,0x03,
9350,-59,57,-964,-1820,-280,-1050,,,,,,,0x03,
9360,-67,61,-971,1750,-700,-980,,,,,,,0x03,
9369,-73,68,-993,3920,-1050,-700,,,,,,,0x03,
9379,-75,83,-1011,4410,-1190,-350,,,,,,,0x03,
9389,-74,82,-1019,2870,-700,0,,,,,,,0x03,
9398,-68,70,-1009,770,140,-70,,,,,,,0x03,
9408,-70,50,-990,770,700,-140,,,,,,,0x03,
9417,-70,37,-981,2730,630,-70,,,,,,,0x03,
9427,-64,38,-984,6230,280,0,,,,,,,0x03,
9437,-58,47,-994,8890,0,420,,,,,,,0x03,
9446,-60,65,-999,9170,-70,630,,,,,,,0x03,
9456,-60,78,-998,7140,0,560,,,,,,,0x03,
9466,-57,77,-1001,4200,0,490,,,,,,,0x03,
9475,-52,61,-1013,1820,70,560,,,,,,,0x03,
9485,-51,37,-1017,770,280,560,,,,,,,0x03,
9495,-59,32,-1007,1050,420,490,,,,,,,0x03,
9504,-62,34,-998,1750,210,350,,,,,,,0x03,
9514,-59,41,-1003,2170,-280,70,,,,,,,0x03,
9523,-58,47,-1013,1610,-630,-140,,,,,,,0x03,
9533,-60,51,-1018,280,-630,-280,,,,,,,0x03,
9543,-65,59,-1011,-1680,-490,-350,,,,,,,0x03,
9552,-67,56,-998,-3780,-350,-420,,,,,,,0x03,
9562,-61,50,-991,-5180,-490,-630,,,,,,,0x03,
9572,-58,50,-989,-5950,-840,-700,,,,,,,0x03,
9581,-61,52,-994,-6160,-1260,-700,,,,,,,0x03,
9591,-59,61,-1006,-6230,-1540,-630,,,,,,,0x03,
9601,-56,68,-1007,-7000,-1330,-560,,,,,,,0x03,
9610,-59,69,-1001,-7770,-1120,-630,,,,,,,0x03,
9620,-60,76,-998,-7700,-1400,-630,,,,,,,0x03,
9630,-59,72,-1002,-7630,-1820,-350,,,,,,,0x03,
9639,-57,67,-1014,-6790,-2170,-350,,,,,,,0x03,
9649,-55,71,-1022,-5600,-2380,-280,,,,,,,0x03,
9658,-59,75,-1021,-5390,-2240,-210,,,,,,,0x03,
9668,-66,73,-1015,-5390,-2100,-350,,,,,,,0x03,
9678,-59,81,-1010,-5530,-2030,-630,,,,,,,0x03,
9687,-57,86,-1001,-5530,-1890,-840,,,,,,,0x03,
9697,-65,90,-993,-5600,-2030,-910,,,,,,,0x03,
9707,-70,98,-991,-5460,-2380,-840,,,,,,,0x03,
9716,-69,104,-992,-5880,-2730,-700,,,,,,,0x03,
9726,-70,103,-995,-6720,-2940,-490,,,,,,,0x03,
9736,-74,99,-998,-7350,-3080,-490,,,,,,,0x03,
9745,-72,93,-1001,-7560,-3080,-280,,,,,,,0x03,
9755,-64,84,-1012,-7000,-3220,-210,,,,,,,0x03,
9764,-54,83,-1023,-5600,-3150,-210,,,,,,,0x03,
9774,-46,84,-1023,-4550,-2800,-70,,,,,,,0x03,
9784,-47,73,-1014,-4060,-2310,140,,,,,,,0x03,
9793,-53,66,-1003,-3080,-1820,0,,,,,,,0x03,
9803,-60,64,-992,-1750,-1610,140,,,,,,,0x03,
9813,-59,60,-985,-630,-1400,350,,,,,,,0x03,
9822,-65,54,-974,-350,-1050,420,,,,,,,0x03,
9832,-73,52,-965,0,-700,420,,,,,,,0x03,
9842,-73,53,-964,350,-420,350,,,,,,,0x03,
9851,-68,59,-972,840,-70,280,,,,,,,0x03,
9861,-70,63,-977,840,350,280,,,,,,,0x03,
9870,-75,65,-975,280,1050,210,,,,,,,0x03,
9880,-78,69,-973,420,1470,210,,,,,,,0x03,
9890,-78,69,-982,1260,1400,420,,,,,,,0x03,
9899,-82,74,-998,2380,1120,420,,,,,,,0x03,
9909,-82,79,-1015,3150,910,420,,,,,,,0x03,
9919,-79,84,-1029,2800,1050,280,,,,,,,0x03,
9928,-81,90,-1027,1960,1190,0,,,,,,,0x03,
9938,-82,102,-1016,1190,910,-350,,,,,,,0x03,
9948,-74,112,-1015,630,280,-560,,,,,,,0x03,
9957,-70,112,-1018,-140,-420,-630,,,,,,,0x03,
9967,-71,115,-1024,-770,-1120,-560,,,,,,,0x03,
9977,-69,115,-1028,-1470,-1820,-210,,,,,,,0x03,
9986,-71,107,-1027,-2450,-1960,-70,,,,,,,0x03,
9996,-71,93,-1023,-3080,-2030,-280,,,,,,,0x03,
10005,-65,86,-1018,-2730,-2030,-560,,,,,,,0x03,
10015,-63,85,-1005,-2100,-1820,-630,,,,,,,0x03,
10025,-60,86,-987,-2170,-1610,-630,,,,,,,0x03,
10034,-58,82,-977,-2590,-1610,-700,,,,,,,0x03,
10044,-56,77,-974,-2310,-1750,-490,,,,,,,0x03,
10054,-58,68,-981,-2450,-1750,-140,,,,,,,0x03,
10063,-61,63,-991,-2520,-1610,-210,,,,,,,0x03,
10073,-62,72,-992,-2870,-1330,-420,,,,,,,0x03,
10083,-67,68,-988,-4130,-980,-350,,,,,,,0x03,
10092,-72,57,-996,-4270,-980,-350,,,,,,,0x03,
10102,-64,64,-1011,-2520,-1050,-490,,,,,,,0x03,
10111,-62,73,-1015,-840,-770,-350,,,,,,,0x03,
10121,-68,78,-1003,-280,-350,-210,,,,,,,0x03,
10131,-71,86,-988,280,0,-210,,,,,,,0x03,
10140,-74,85,-978,1260,280,0,,,,,,,0x03,
10150,-75,78,-984,2730,210,140,,,,,,,0x03,
10160,-77,83,-998,4900,140,350,,,,,,,0x03,
10169,-81,90,-1007,6090,210,560,,,,,,,0x03,
10179,-82,99,-1010,5740,350,490,,,,,,,0x03,
10189,-79,101,-1002,4060,700,420,,,,,,,0x03,
10198,-76,89,-982,2240,1190,140,,,,,,,0x03,
10208,-78,87,-969,2380,770,-70,,,,,,,0x03,
10217,-67,96,-988,4340,-420,70,,,,,,,0x03,
10227,-58,98,-1022,5180,-1190,420,,,,,,,0x03,
10237,-59,96,-1039,4410,-1190,630,,,,,,,0x03,
10246,-66,96,-1036,2590,-770,630,,,,,,,0x03,
10256,-63,83,-1026,700,-420,280,,,,,,,0x03,
10266,-61,59,-1015,140,-210,-210,,,,,,,0x03,
10275,-62,56,-1007,1890,-490,-630,,,,,,,0x03,
10285,-65,67,-1008,3710,-1120,-560,,,,,,,0x03,
10295,-63,81,-1011,3920,-1540,-490,,,,,,,0x03,
10304,-61,87,-1012,2100,-1540,-490,,,,,,,0x03,
10314,-62,86,-1007,-490,-1400,-630,,,,,,,0x03,
10324,-61,82,-996,-2520,-1190,-840,,,,,,,0x03,
10333,-60,69,-986,-3430,-1050,-910,,,,,,,0x03,
10343,-58,64,-981,-3080,-1120,-1050,,,,,,,0x03,
10352,-50,66,-981,-1750,-1190,-980,,,,,,,0x03,
10362,-51,70,-990,-420,-1470,-700,,,,,,,0x03,
10372,-54,73,-1005,490,-1540,-420,,,,,,,0x03,
10381,-50,83,-1011,700,-1260,-420,,,,,,,0x03,
10391,-51,86,-1009,210,-840,-420,,,,,,,0x03,
10401,-57,82,-1002,-280,-700,-420,,,,,,,0x03,
10410,-66,74,-1002,-140,-770,-490,,,,,,,0x03,
10420,-68,68,-1003,700,-910,-350,,,,,,,0x03,
10430,-70,68,-1003,1400,-980,-140,,,,,,,0x03,
10439,-75,72,-1005,2100,-1190,70,,,,,,,0x03,
10449,-73,77,-1013,2380,-1470,-70,,,,,,,0x03,
10458,-72,75,-1018,1680,-1400,-210,,,,,,,0x03,
10468,-78,76,-1007,560,-1120,-350,,,,,,,0x03,
10478,-78,76,-991,-280,-1190,-280,,,,,,,0x03,
10487,-72,76,-995,-210,-1610,-280,,,,,,,0x03,
10497,-71,75,-1008,140,-2100,-210,,,,,,,0x03,
10507,-74,71,-1016,-140,-2100,-70,,,,,,,0x03,
10516,-72,75,-1013,-490,-1750,-140,,,,,,,0x03,
10526,-72,76,-997,-1330,-1400,-140,,,,,,,0x03,
10536,-74,69,-982,-2030,-1050,-420,,,,,,,0x03,
10545,-73,61,-977,-1470,-840,-560,,,,,,,0x03,
10555,-71,59,-982,70,-700,-490,,,,,,,0x03,
10565,-71,72,-986,1890,-770,-350,,,,,,,0x03,
10574,-70,91,-989,2170,-770,-210,,,,,,,0x03,
10584,-71,96,-998,420,-840,-210,,,,,,,0x03,
10593,-65,92,-1009,-1540,-630,-420,,,,,,,0x03,
10603,-65,81,-1002,-2940,-140,-490,,,,,,,0x03,
10613,-72,71,-989,-2660,0,-490,,,,,,,0x03,
10622,-72,72,-993,-840,-350,-490,,,,,,,0x03,
10632,-65,75,-1005,1120,-560,-350,,,,,,,0x03,
10642,-65,83,-1007,1610,-280,-280,,,,,,,0x03,
10651,-70,89,-998,910,0,-280,,,,,,,0x03,
10661,-71,87,-986,-210,350,-210,,,,,,,0x03,
10671,-73,78,-975,-770,560,-210,,,,,,,0x03,
10680,-74,70,-971,-70,490,-140,,,,,,,0x03,
10690,-78,68,-979,1050,210,-70,,,,,,,0x03,
10699,-75,74,-992,2590,-210,0,,,,,,,0x03,
10709,-68,89,-1007,2520,-420,210,,,,,,,0x03,
10719,-70,88,-1013,490,-140,70,,,,,,,0x03,
10728,-68,76,-1011,-1610,280,-210,,,,,,,0x03,
10738,-63,62,-999,-2450,630,-490,,,,,,,0x03,
10748,-58,44,-996,-1330,560,-560,,,,,,,0x03,
10757,-51,42,-1009,1610,0,-770,,,,,,,0x03,
10767,-43,62,-1028,3990,-630,-980,,,,,,,0x03,
10777,-44,78,-1046,3430,-1050,-1120,,,,,,,0x03,
10786,-46,98,-1051,910,-1190,-1540,,,,,,,0x03,
10796,-47,103,-1043,-3080,-1330,-2030,,,,,,,0x03,
10805,-51,96,-1039,-6160,-1610,-2380,,,,,,,0x03,
10815,-53,86,-1036,-7070,-1960,-2520,,,,,,,0x03,
10825,-56,83,-1028,-6160,-2170,-2380,,,,,,,0x03,
10834,-61,86,-1013,-4620,-2240,-2100,,,,,,,0x03,
10844,-65,92,-995,-3290,-2310,-1890,,,,,,,0x03,
10854,-65,98,-983,-2660,-2310,-1890,,,,,,,0x03,
10863,-67,96,-972,-2310,-2170,-1680,,,,,,,0x03,
10873,-75,88,-968,-1820,-1750,-1260,,,,,,,0x03,
10883,-78,78,-968,-490,-1120,-840,,,,,,,0x03,
10892,-80,78,-962,1190,-490,-350,,,,,,,0x03,
10902,-86,77,-954,1890,-140,210,,,,,,,0x03,
10912,-84,74,-954,1820,70,280,,,,,,,0x03,
10921,-79,75,-966,1610,-70,280,,,,,,,0x03,
10931,-82,72,-986,1330,-280,420,,,,,,,0x03,
10940,-84,69,-1006,1260,-280,560,,,,,,,0x03,
10950,-78,67,-1017,1260,280,700,,,,,,,0x03,
10960,-75,63,-1014,1120,770,840,,,,,,,0x03,
10969,-77,52,-1011,1680,770,840,,,,,,,0x03,
10979,-76,47,-1016,2940,350,770,,,,,,,0x03,
10989,-75,43,-1021,3920,0,770,,,,,,,0x03,
10998,-71,48,-1022,4340,140,420,,,,,,,0x03,
11008,-67,57,-1010,3990,490,140,,,,,,,0x03,
11018,-70,61,-985,3080,910,0,,,,,,,0x03,
11027,-71,57,-969,2590,980,-140,,,,,,,0x03,
11037,-64,54,-970,3080,1050,-210,,,,,,,0x03,
11046,-64,55,-986,4690,700,-70,,,,,,,0x03,
11056,-63,68,-1010,6300,420,70,,,,,,,0x03,
11066,-66,89,-1019,5880,490,140,,,,,,,0x03,
11075,-78,100,-1010,3220,700,-70,,,,,,,0x03,
11085,-81,102,-1009,840,490,-420,,,,,,,0x03,
11095,-72,98,-1013,140,140,-490,,,,,,,0x03,
11104,-72,92,-1017,840,-210,-140,,,,,,,0x03,
11114,-71,94,-1025,2310,-770,280,,,,,,,0x03,
11124,-66,99,-1029,2940,-910,560,,,,,,,0x03,
11133,-66,93,-1018,2520,-770,770,,,,,,,0x03,
11143,-73,83,-1008,1470,-910,700,,,,,,,0x03,
11152,-73,70,-1002,1470,-1050,420,,,,,,,0x03,
11162,-68,60,-1001,2240,-1120,420,,,,,,,0x03,
11172,-65,57,-998,2940,-1330,490,,,,,,,0x03,
11181,-62,57,-996,3570,-1540,420,,,,,,,0x03,
11191,-56,60,-1001,3290,-1680,280,,,,,,,0x03,
11201,-53,61,-1005,2100,-1610,70,,,,,,,0x03,
11210,-52,63,-1004,280,-1540,-280,,,,,,,0x03,
11220,-51,64,-1001,-1610,-1540,-560,,,,,,,0x03,
11230,-53,61,-1000,-3080,-1400,-770,,,,,,,0x03,
11239,-51,58,-997,-3850,-1260,-1050,,,,,,,0x03,
11249,-50,66,-999,-3640,-1540,-1260,,,,,,,0x03,
11259,-48,71,-1010,-3780,-2030,-1260,,,,,,,0x03,
11268,-49,77,-1022,-4200,-2240,-1330,,,,,,,0x03,
11278,-52,80,-1027,-5180,-2030,-1330,,,,,,,0x03,
11287,-54,79,-1019,-6300,-1540,-1330,,,,,,,0x03,
11297,-58,71,-996,-6650,-980,-1330,,,,,,,0x03,
11307,-68,65,-973,-5600,-630,-1400,,,,,,,0x03,
11316,-72,74,-963,-3290,-840,-1400,,,,,,,0x03,
11326,-74,85,-970,-1260,-1400,-1050,,,,,,,0x03,
11336,-77,90,-991,-490,-1750,-560,,,,,,,0x03,
11345,-76,96,-1008,-840,-1680,-350,,,,,,,0x03,
11355,-71,99,-1007,-1960,-840,-280,,,,,,,0x03,
11365,-72,91,-987,-3220,0,-420,,,,,,,0x03,
11374,-73,80,-969,-2940,350,-630,,,,,,,0x03,
11384,-72,77,-969,-490,-70,-490,,,,,,,0x03,
11393,-68,78,-991,2450,-770,0,,,,,,,0x03,
11403,-68,88,-1015,4200,-1190,560,,,,,,,0x03,
11413,-69,95,-1028,4060,-1120,770,,,,,,,0x03,
11422,-69,88,-1026,2100,-560,630,,,,,,,0x03,
11432,-70,72,-1010,140,70,280,,,,,,,0x03,
11442,-68,55,-987,-420,420,-70,,,,,,,0x03,
11451,-71,47,-984,1120,0,-280,,,,,,,0x03,
11461,-66,51,-1013,3710,-1120,0,,,,,,,0x03,
11471,-62,61,-1037,4480,-1330,350,,,,,,,0x03,
11480,-66,73,-1031,2310,-1120,420,,,,,,,0x03,
11490,-70,72,-1004,-2310,-630,70,,,,,,,0x03,
11499,-74,48,-986,-6090,-490,-560,,,,,,,0x03,
11509,-62,29,-988,-6580,-770,-1120,,,,,,,0x03,
11519,-54,30,-1001,-4690,-1260,-1330,,,,,,,0x03,
11528,-56,45,-1010,-2940,-1470,-1050,,,,,,,0x03,
11538,-59,75,-1006,-3290,-1540,-1120,,,,,,,0x03,
11548,-63,90,-1000,-6300,-1470,-1260,,,,,,,0x03,
11557,-63,79,-993,-10010,-1190,-1470,,,,,,,0x03,
11567,-63,68,-989,-11270,-1190,-1680,,,,,,,0x03,
11577,-62,62,-999,-9590,-1470,-1680,,,,,,,0x03,
11586,-65,66,-1010,-7140,-1610,-1540,,,,,,,0x03,
11596,-69,78,-1018,-5040,-1750,-1400,,,,,,,0x03,
11606,-69,96,-1019,-4480,-1610,-1610,,,,,,,0x03,
11615,-69,101,-1015,-5180,-1050,-1750,,,,,,,0x03,
11625,-68,104,-999,-5950,-350,-2100,,,,,,,0x03,
11634,-73,107,-982,-5740,-210,-2240,,,,,,,0x03,
11644,-74,109,-977,-4690,-630,-2030,,,,,,,0x03,
11654,-73,114,-981,-3360,-980,-1610,,,,,,,0x03,
11663,-75,113,-989,-2380,-1190,-980,,,,,,,0x03,
11673,-77,112,-997,-1890,-1190,-630,,,,,,,0x03,
11683,-78,111,-996,-1330,-700,-560,,,,,,,0x03,
11692,-81,98,-994,-770,-350,-420,,,,,,,0x03,
11702,-81,91,-994,770,-280,-630,,,,,,,0x03,
11712,-78,95,-999,3010,-490,-350,,,,,,,0x03,
11721,-75,93,-1012,4340,-770,70,,,,,,,0x03,
11731,-73,97,-1020,4480,-840,210,,,,,,,0x03,
11740,-75,90,-1016,3570,-560,350,,,,,,,0x03,
11750,-75,82,-1005,2170,-280,140,,,,,,,0x03,
11760,-75,72,-992,1680,-280,-70,,,,,,,0x03,
11769,-76,63,-987,2170,-420,-280,,,,,,,0x03,
11779,-73,64,-983,3150,-490,-350,,,,,,,0x03,
11789,-71,70,-984,3850,-630,-210,,,,,,,0x03,
11798,-71,78,-993,3920,-840,-70,,,,,,,0x03,
11808,-72,81,-1003,2870,-700,-70,,,,,,,0x03,
11818,-72,79,-1007,1680,-420,-210,,,,,,,0x03,
11827,-77,80,-1002,420,-280,-350,,,,,,,0x03,
11837,-81,79,-1001,-350,-350,-490,,,,,,,0x03,
11847,-75,80,-1009,-490,-700,-560,,,,,,,0x03,
11856,-71,80,-1020,-630,-980,-490,,,,,,,0x03,
11866,-71,77,-1022,-630,-910,-280,,,,,,,0x03,
11875,-70,81,-1015,-630,-840,-210,,,,,,,0x03,
11885,-67,81,-1001,-840,-490,-280,,,,,,,0x03,
11895,-66,76,-982,-980,-350,-350,,,,,,,0x03,
11904,-65,74,-979,-490,-630,-350,,,,,,,0x03,
11914,-62,73,-989,630,-1120,-70,,,,,,,0x03,
11924,-63,76,-1002,1470,-1260,280,,,,,,,0x03,
11933,-65,82,-1008,1050,-1050,490,,,,,,,0x03,
11943,-61,83,-1003,-420,-420,420,,,,,,,0x03,
11953,-59,79,-987,-1820,140,140,,,,,,,0x03,
11962,-61,75,-979,-2310,70,-70,,,,,,,0x03,
11972,-59,73,-987,-1260,-210,-70,,,,,,,0x03,
11981,-63,79,-1007,140,-630,210,,,,,,,0x03,
11991,-71,85,-1016,700,-840,630,,,,,,,0x03,
12001,-73,93,-1016,350,-630,700,,,,,,,0x03,
12010,-67,88,-1014,-770,-350,420,,,,,,,0x03,
12020,-66,76,-1009,-1120,70,140,,,,,,,0x03,
12030,-66,70,-1002,-70,140,70,,,,,,,0x03,
12039,-62,77,-1000,1680,-210,70,,,,,,,0x03,
12049,-64,86,-1009,2800,-840,210,,,,,,,0x03,
12059,-67,89,-1016,2450,-1050,210,,,,,,,0x03,
12068,-68,92,-1008,1050,-700,210,,,,,,,0x03,
12078,-70,90,-991,-420,-420,140,,,,,,,0x03,
12087,-71,87,-980,-840,-490,-70,,,,,,,0x03,
12097,-70,83,-989,-140,-840,-140,,,,,,,0x03,
12107,-70,85,-998,770,-840,0,,,,,,,0x03,
12116,-77,91,-995,980,-630,210,,,,,,,0x03,
12126,-78,94,-991,210,-490,210,,,,,,,0x03,
12136,-71,93,-999,-280,-490,70,,,,,,,0x03,
12145,-64,85,-1009,-630,-490,-70,,,,,,,0x03,
12155,-68,78,-1006,-630,-280,-140,,,,,,,0x03,
12165,-72,79,-1000,-140,-350,-70,,,,,,,0x03,
12174,-66,88,-1004,280,-630,70,,,,,,,0x03,
12184,-63,85,-1009,-280,-980,140,,,,,,,0x03,
12194,-70,78,-1012,-700,-1050,70,,,,,,,0x03,
12203,-73,77,-1016,-840,-1190,210,,,,,,,0x03,
12213,-72,73,-1014,-1120,-1120,210,,,,,,,0x03,
12222,-71,64,-1003,-1050,-910,70,,,,,,,0x03,
12232,-75,62,-994,-420,-980,-70,,,,,,,0x03,
12242,-70,69,-990,770,-910,-280,,,,,,,0x03,
12251,-69,80,-988,1400,-770,-70,,,,,,,0x03,
12261,-71,87,-986,840,-560,70,,,,,,,0x03,
12271,-69,89,-984,-70,-420,210,,,,,,,0x03,
12280,-66,87,-987,-1260,-350,280,,,,,,,0x03,
12290,-63,82,-995,-1750,-490,420,,,,,,,0x03,
12300,-63,77,-1001,-1540,-560,490,,,,,,,0x03,
12309,-64,72,-1009,-840,-560,420,,,,,,,0x03,
12319,-63,78,-1014,-140,-280,420,,,,,,,0x03,
12328,-68,76,-1004,-140,70,350,,,,,,,0x03,
12338,-74,77,-989,-350,280,140,,,,,,,0x03,
12348,-70,79,-984,-70,210,140,,,,,,,0x03,
12357,-66,84,-987,140,70,210,,,,,,,0x03,
12367,-65,86,-995,420,-70,350,,,,,,,0x03,
12377,-64,92,-1004,280,-210,490,,,,,,,0x03,
12386,-67,100,-1008,-70,-210,490,,,,,,,0x03,
12396,-68,98,-1007,-980,-140,420,,,,,,,0x03,
12406,-71,94,-1010,-1470,-140,210,,,,,,,0x03,
12415,-70,90,-1009,-1120,-140,210,,,,,,,0x03,
12425,-71,89,-1004,-630,-70,280,,,,,,,0x03,
12434,-72,91,-993,-140,70,210,,,,,,,0x03,
12444,-66,92,-984,420,140,140,,,,,,,0x03,
12454,-64,91,-982,700,70,210,,,,,,,0x03,
12463,-67,90,-989,910,-140,280,,,,,,,0x03,
12473,-68,94,-1001,1400,-420,420,,,,,,,0x03,
12483,-68,96,-1016,980,-630,560,,,,,,,0x03,
12492,-67,87,-1024,210,-490,770,,,,,,,0x03,
12502,-67,75,-1016,-560,-70,490,,,,,,,0x03,
12512,-65,70,-1001,-420,0,210,,,,,,,0x03,
12521,-58,66,-996,770,-280,-210,,,,,,,0x03,
12531,-58,68,-1006,1960,-770,-420,,,,,,,0x03,
12541,-63,78,-1018,2450,-1120,-420,,,,,,,0x03,
12550,-62,87,-1018,1330,-1050,-350,,,,,,,0x03,
12560,-65,90,-1010,-1050,-840,-420,,,,,,,0x03,
12569,-65,85,-999,-3010,-700,-770,,,,,,,0x03,
12579,-63,77,-990,-4130,-770,-1120,,,,,,,0x03,
12589,-63,73,-989,-3710,-1050,-1120,,,,,,,0x03,
12598,-65,83,-998,-2170,-1540,-1050,,,,,,,0x03,
12608,-65,99,-1008,-1260,-1890,-840,,,,,,,0x03,
12618,-67,104,-1012,-1960,-1820,-770,,,,,,,0x03,
12627,-68,102,-1006,-3290,-1470,-840,,,,,,,0x03,
12637,-71,93,-996,-3780,-1120,-840,,,,,,,0x03,
12647,-71,87,-987,-3360,-1050,-1050,,,,,,,0x03,
12656,-73,85,-985,-2310,-1260,-1260,,,,,,,0x03,
12666,-74,94,-989,-2030,-1470,-1400,,,,,,,0x03,
12675,-78,103,-995,-2870,-1610,-1400,,,,,,,0x03,
12685,-80,108,-1001,-4830,-1750,-1330,,,,,,,0x03,
12695,-73,104,-1008,-6650,-1960,-1260,,,,,,,0x03,
12704,-66,95,-1013,-7420,-2030,-1330,,,,,,,0x03,
12714,-66,82,-1021,-6790,-2100,-1330,,,,,,,0x03,
12724,-66,78,-1027,-5390,-2240,-1470,,,,,,,0x03,
12733,-62,78,-1025,-3780,-2240,-1400,,,,,,,0x03,
12743,-63,85,-1016,-3010,-2310,-1400,,,,,,,0x03,
12753,-64,92,-1008,-2870,-2590,-1470,,,,,,,0x03,
12762,-60,94,-1008,-3080,-2870,-1330,,,,,,,0x03,
12772,-60,89,-1007,-3780,-3010,-980,,,,,,,0x03,
12782,-62,86,-1003,-4550,-2800,-910,,,,,,,0x03,
12791,-66,77,-992,-5320,-2380,-770,,,,,,,0x03,
12801,-69,65,-974,-5530,-1820,-840,,,,,,,0x03,
12810,-74,60,-958,-4480,-1400,-980,,,,,,,0x03,
12820,-78,63,-955,-2310,-1260,-840,,,,,,,0x03,
12830,-82,69,-967,280,-1050,-630,,,,,,,0x03,
12839,-82,87,-980,2310,-560,-490,,,,,,,0x03,
12849,-89,107,-978,2170,140,-350,,,,,,,0x03,
12859,-97,116,-972,700,630,-420,,,,,,,0x03,
12868,-96,113,-974,-840,770,-560,,,,,,,0x03,
12878,-91,116,-980,-980,840,-700,,,,,,,0x03,
12888,-88,120,-989,-70,490,-490,,,,,,,0x03,
12897,-84,124,-1010,1330,0,-70,,,,,,,0x03,
12907,-79,123,-1029,2240,-140,210,,,,,,,0x03,
12916,-77,118,-1034,2870,140,350,,,,,,,0x03,
12926,-79,117,-1022,3360,560,280,,,,,,,0x03,
12936,-79,113,-1008,4270,560,140,,,,,,,0x03,
12945,-73,113,-1006,5040,280,70,,,,,,,0x03,
12955,-71,108,-1006,5040,-70,280,,,,,,,0x03,
12965,-73,102,-1001,4620,-280,630,,,,,,,0x03,
12974,-73,99,-999,3710,-490,840,,,,,,,0x03,
12984,-72,87,-996,2730,-420,980,,,,,,,0x03,
12994,-71,76,-987,2030,-280,840,,,,,,,0x03,
13003,-67,70,-983,1750,-210,630,,,,,,,0x03,
13013,-66,66,-985,2030,-350,490,,,,,,,0x03,
13022,-62,65,-999,2870,-630,420,,,,,,,0x03,
13032,-63,65,-1014,3500,-490,490,,,,,,,0x03,
13042,-72,71,-1010,3080,-70,350,,,,,,,0x03,
13051,-72,81,-1001,2030,280,0,,,,,,,0x03,
13061,-68,83,-995,980,560,-140,,,,,,,0x03,
13071,-67,77,-989,490,770,-350,,,,,,,0x03,
13080,-69,84,-980,1190,770,-420,,,,,,,0x03,
13090,-65,95,-980,2310,490,0,,,,,,,0x03,
13100,-57,103,-997,3430,210,350,,,,,,,0x03,
13109,-48,109,-1023,3850,-210,840,,,,,,,0x03,
13119,-52,111,-1035,2590,0,1050,,,,,,,0x03,
13129,-59,106,-1023,560,350,1050,,,,,,,0x03,
13138,-58,90,-1008,-630,490,980,,,,,,,0x03,
13148,-59,75,-994,70,560,980,,,,,,,0x03,
13157,-58,75,-982,2660,490,1050,,,,,,,0x03,
13167,-51,87,-981,5180,70,1260,,,,,,,0x03,
13177,-52,91,-991,5810,-140,1680,,,,,,,0x03,
13186,-56,101,-999,4620,-210,1890,,,,,,,0x03,
13196,-64,103,-1000,2100,-280,2170,,,,,,,0x03,
13206,-65,92,-1005,-840,-350,2240,,,,,,,0x03,
13215,-60,83,-1007,-2940,-420,2100,,,,,,,0x03,
13225,-58,80,-1009,-4270,-560,2030,,,,,,,0x03,
13235,-57,79,-1007,-5460,-700,1750,,,,,,,0x03,
13244,-57,75,-1007,-6860,-910,1540,,,,,,,0x03,
13254,-64,69,-1011,-8120,-1190,1470,,,,,,,0x03,
13263,-64,62,-1014,-8540,-1400,1330,,,,,,,0x03,
13273,-65,68,-1019,-8330,-1890,1190,,,,,,,0x03,
13283,-71,64,-1031,-8680,-2520,1260,,,,,,,0x03,
13292,-70,58,-1030,-10010,-2450,980,,,,,,,0x03,
13302,-70,55,-1012,-11270,-2100,560,,,,,,,0x03,
13312,-65,52,-998,-11410,-2170,280,,,,,,,0x03,
13321,-50,61,-998,-9520,-2240,-70,,,,,,,0x03,
13331,-43,71,-998,-7350,-2100,0,,,,,,,0x03,
13341,-45,86,-993,-6020,-1750,70,,,,,,,0x03,
13350,-51,101,-978,-5810,-1120,140,,,,,,,0x03,
13360,-63,101,-962,-6090,-490,70,,,,,,,0x03,
13369,-76,93,-953,-5670,-210,-70,,,,,,,0x03,
13379,-79,104,-968,-2800,-490,-70,,,,,,,0x03,
13389,-74,122,-993,70,-980,350,,,,,,,0x03,
13398,-81,134,-1014,490,-1050,630,,,,,,,0x03,
13408,-89,148,-1020,-840,-910,560,,,,,,,0x03,
13418,-85,152,-1020,-3150,-770,420,,,,,,,0x03,
13427,-83,136,-1017,-4830,-560,280,,,,,,,0x03,
13437,-83,124,-1008,-4130,-560,140,,,,,,,0x03,
13447,-82,126,-997,-1540,-910,210,,,,,,,0x03,
13456,-80,125,-1000,1050,-1540,490,,,,,,,0x03,
13466,-75,129,-1013,2590,-1890,630,,,,,,,0x03,
13476,-71,131,-1015,2730,-1750,630,,,,,,,0x03,
13485,-78,125,-999,1470,-1330,560,,,,,,,0x03,
13495,-83,120,-983,420,-1120,280,,,,,,,0x03,
13504,-81,113,-977,140,-1190,70,,,,,,,0x03,
13514,-83,102,-980,560,-1400,210,,,,,,,0x03,
13524,-81,101,-989,1190,-1610,280,,,,,,,0x03,
13533,-77,111,-994,1260,-1610,210,,,,,,,0x03,
13543,-80,109,-996,-140,-1470,140,,,,,,,0x03,
13553,-81,97,-998,-1610,-1260,-140,,,,,,,0x03,
13562,-80,90,-995,-1960,-980,-350,,,,,,,0x03,
13572,-79,81,-993,-1610,-840,-350,,,,,,,0x03,
13582,-72,78,-996,-210,-910,-420,,,,,,,0x03,
13591,-67,86,-1002,980,-980,-490,,,,,,,0x03,
13601,-69,96,-1001,630,-910,-420,,,,,,,0x03,
13610,-65,98,-994,-1050,-840,-490,,,,,,,0x03,
13620,-63,97,-988,-3080,-630,-630,,,,,,,0x03,
13630,-61,93,-983,-3920,-490,-840,,,,,,,0x03,
13639,-62,88,-985,-3780,-630,-840,,,,,,,0x03,
13649,-62,95,-997,-2940,-840,-980,,,,,,,0x03,
13659,-62,105,-1008,-2870,-700,-910,,,,,,,0x03,
13668,-68,105,-1004,-3920,-140,-980,,,,,,,0x03,
13678,-71,104,-992,-5040,420,-1260,,,,,,,0x03,
13688,-72,106,-985,-4690,560,-1470,,,,,,,0x03,
13697,-66,111,-990,-3360,350,-1470,,,,,,,0x03,
13707,-66,122,-996,-2240,70,-1330,,,,,,,0x03,
13717,-70,132,-1001,-2240,-280,-1190,,,,,,,0x03,
13726,-69,138,-1001,-3640,-280,-1050,,,,,,,0x03,
13736,-67,137,-996,-5320,-210,-1120,,,,,,,0x03,
13745,-65,132,-991,-5950,-70,-1260,,,,,,,0x03,
13755,-65,126,-993,-5250,-280,-1190,,,,,,,0x03,
13765,-62,119,-998,-3570,-350,-910,,,,,,,0x03,
13774,-58,122,-1003,-1540,-420,-770,,,,,,,0x03,
13784,-61,127,-1001,-280,-560,-560,,,,,,,0x03,
13794,-70,130,-1002,280,-840,-560,,,,,,,0x03,
13803,-72,133,-1009,280,-1190,-560,,,,,,,0x03,
13813,-69,127,-1014,-280,-1120,-560,,,,,,,0x03,
13823,-73,119,-1010,-910,-980,-490,,,,,,,0x03,
13832,-70,115,-1001,-1050,-840,-630,,,,,,,0x03,
13842,-63,113,-999,-770,-840,-770,,,,,,,0x03,
13851,-59,109,-998,-560,-840,-840,,,,,,,0x03,
13861,-66,108,-995,-560,-700,-910,,,,,,,0x03,
13871,-71,110,-992,-420,-840,-910,,,,,,,0x03,
13880,-67,116,-992,-560,-980,-910,,,,,,,0x03,
13890,-67,111,-993,-910,-910,-980,,,,,,,0x03,
13900,-68,106,-998,-1050,-840,-1050,,,,,,,0x03,
13909,-68,108,-1004,-980,-840,-1050,,,,,,,0x03,
13919,-65,108,-1007,-840,-630,-980,,,,,,,0x03,
13929,-66,111,-998,-1190,-280,-1120,,,,,,,0x03,
13938,-70,114,-986,-1540,-140,-1190,,,,,,,0x03,
13948,-78,115,-979,-1680,-280,-1190,,,,,,,0x03,
13957,-81,116,-981,-1260,-630,-1050,,,,,,,0x03,
13967,-78,117,-990,-490,-770,-630,,,,,,,0x03,
13977,-78,120,-990,140,-490,-420,,,,,,,0x03,
13986,-82,125,-987,560,-280,-350,,,,,,,0x03,
13996,-78,126,-983,350,0,-280,,,,,,,0x03,
14006,-80,120,-978,350,210,-280,,,,,,,0x03,
14015,-78,114,-983,1050,210,-70,,,,,,,0x03,
14025,-76,116,-989,2240,210,70,,,,,,,0x03,
14035,-76,118,-993,2590,210,280,,,,,,,0x03,
14044,-74,118,-996,2310,350,350,,,,,,,0x03,
14054,-68,119,-997,1960,280,210,,,,,,,0x03,
14064,-69,118,-1002,1540,70,350,,,,,,,0x03,
14073,-68,112,-1012,1610,-280,560,,,,,,,0x03,
14083,-66,102,-1025,1890,-490,630,,,,,,,0x03,
14092,-67,100,-1029,2170,-420,630,,,,,,,0x03,
14102,-68,98,-1025,1820,-420,420,,,,,,,0x03,
14112,-69,98,-1009,1260,-420,70,,,,,,,0x03,
14121,-71,96,-1002,700,-560,-280,,,,,,,0x03,
14131,-64,100,-1005,420,-980,-560,,,,,,,0x03,
14141,-63,110,-1007,140,-1330,-630,,,,,,,0x03,
14150,-68,118,-1009,-770,-1610,-420,,,,,,,0x03,
14160,-68,117,-1006,-2450,-1540,-350,,,,,,,0x03,
14170,-71,111,-995,-3850,-1330,-420,,,,,,,0x03,
14179,-71,105,-986,-3780,-1330,-560,,,,,,,0x03,
14189,-65,105,-983,-2660,-1260,-630,,,,,,,0x03,
14198,-69,111,-984,-1260,-1400,-630,,,,,,,0x03,
14208,-72,122,-990,0,-1470,-490,,,,,,,0x03,
14218,-68,131,-998,490,-1470,-140,,,,,,,0x03,
14227,-66,134,-1002,280,-1120,140,,,,,,,0x03,
14237,-70,131,-998,-350,-630,210,,,,,,,0x03,
14247,-69,120,-993,-350,-490,210,,,,,,,0x03,
14256,-64,114,-987,490,-350,210,,,,,,,0x03,
14266,-65,115,-987,2100,-560,280,,,,,,,0x03,
14276,-66,119,-995,3360,-700,350,,,,,,,0x03,
14285,-68,128,-1001,3850,-770,490,,,,,,,0x03,
14295,-72,129,-1003,3010,-770,630,,,,,,,0x03,
14304,-72,134,-1001,2030,-700,560,,,,,,,0x03,
14314,-73,129,-996,770,-630,490,,,,,,,0x03,
14324,-74,122,-989,-490,-560,490,,,,,,,0x03,
14333,-77,120,-985,-490,-770,420,,,,,,,0x03,
14343,-73,127,-992,70,-1260,490,,,,,,,0x03,
14353,-71,143,-1004,140,-1820,700,,,,,,,0x03,
14362,-69,153,-1022,-1400,-2310,980,,,,,,,0x03,
14372,-65,151,-1035,-4550,-2380,1120,,,,,,,0x03,
14382,-68,129,-1030,-7700,-2170,1400,,,,,,,0x03,
14391,-79,98,-1009,-9940,-1820,1540,,,,,,,0x03,
14401,-84,70,-989,-9520,-1750,1400,,,,,,,0x03,
14411,-81,47,-972,-7280,-1470,1190,,,,,,,0x03,
14420,-75,43,-958,-4410,-1050,840,,,,,,,0x03,
14430,-68,55,-946,-2310,-840,560,,,,,,,0x03,
14439,-62,72,-943,-2030,-700,280,,,,,,,0x03,
14449,-56,82,-950,-3500,-280,140,,,,,,,0x03,
14459,-61,80,-959,-5810,560,140,,,,,,,0x03,
14468,-68,68,-962,-7490,1400,0,,,,,,,0x03,
14478,-73,68,-966,-7420,1890,-420,,,,,,,0x03,
14488,-75,81,-982,-5740,2030,-630,,,,,,,0x03,
14497,-71,96,-994,-3990,2030,-910,,,,,,,0x03,
14507,-73,124,-1013,-3430,1610,-1120,,,,,,,0x03,
14517,-69,148,-1040,-4270,1120,-1330,,,,,,,0x03,
14526,-62,162,-1060,-6230,1050,-1540,,,,,,,0x03,
14536,-64,168,-1056,-8820,1190,-1680,,,,,,,0x03,
14545,-69,164,-1032,-11130,1190,-1820,,,,,,,0x03,
14555,-70,163,-1009,-11480,700,-1960,,,,,,,0x03,
14565,-58,164,-1002,-9800,-280,-1960,,,,,,,0x03,
14574,-49,174,-1009,-7420,-1120,-1470,,,,,,,0x03,
14584,-46,181,-1015,-5740,-1820,-1120,,,,,,,0x03,
14594,-47,185,-1011,-5110,-1750,-700,,,,,,,0x03,
14603,-57,174,-993,-5110,-1260,-420,,,,,,,0x03,
14613,-65,166,-975,-4060,-980,-350,,,,,,,0x03,
14623,-69,161,-962,-1470,-840,-140,,,,,,,0x03,
14632,-75,154,-963,1330,-1120,280,,,,,,,0x03,
14642,-75,158,-979,3640,-1540,490,,,,,,,0x03,
14651,-74,165,-995,4340,-1610,630,,,,,,,0x03,
14661,-75,168,-994,2870,-1260,630,,,,,,,0x03,
14671,-77,165,-983,420,-910,490,,,,,,,0x03,
14680,-76,154,-977,-1120,-840,280,,,,,,,0x03,
14690,-72,136,-983,-840,-980,350,,,,,,,0x03,
14700,-75,127,-991,1190,-1050,560,,,,,,,0x03,
14709,-76,129,-1001,3500,-1190,840,,,,,,,0x03,
14719,-71,137,-1014,4410,-1330,840,,,,,,,0x03,
14729,-74,136,-1024,4060,-1330,700,,,,,,,0x03,
14738,-74,127,-1026,2940,-1120,420,,,,,,,0x03,
14748,-76,115,-1016,2310,-770,70,,,,,,,0x03,
14758,-80,105,-1001,2800,-700,-210,,,,,,,0x03,
14767,-78,108,-991,3990,-980,-490,,,,,,,0x03,
14777,-77,117,-988,4970,-1610,-490,,,,,,,0x03,
14786,-79,127,-992,4550,-2100,-420,,,,,,,0x03,
14796,-79,135,-996,2660,-2240,-490,,,,,,,0x03,
14806,-77,139,-998,-140,-2170,-700,,,,,,,0x03,
14815,-78,132,-995,-2870,-1890,-840,,,,,,,0x03,
14825,-77,121,-987,-4130,-1400,-980,,,,,,,0x03,
14835,-75,113,-973,-4060,-980,-1120,,,,,,,0x03,
14844,-74,116,-969,-2310,-1190,-1120,,,,,,,0x03,
14854,-71,124,-983,-140,-1680,-910,,,,,,,0x03,
14864,-70,136,-1005,1260,-2170,-840,,,,,,,0x03,
14873,-74,150,-1019,770,-2240,-770,,,,,,,0x03,
14883,-76,153,-1022,-630,-2100,-840,,,,,,,0x03,
14892,-77,147,-1014,-1960,-1890,-840,,,,,,,0x03,
14902,-78,136,-1005,-2100,-2030,-910,,,,,,,0x03,
14912,-76,129,-1000,-980,-2310,-1050,,,,,,,0x03,
14921,-74,137,-1002,770,-3010,-980,,,,,,,0x03,
14931,-70,144,-1008,1400,-3290,-770,,,,,,,0x03,
14941,-69,150,-1007,490,-3150,-770,,,,,,,0x03,
14950,-74,150,-995,-1260,-2870,-770,,,,,,,0x03,
14960,-75,142,-975,-2800,-2520,-840,,,,,,,0x03,
14970,-75,127,-961,-2940,-2380,-770,,,,,,,0x03,
14979,-73,119,-963,-700,-2870,-560,,,,,,,0x03,
14989,-69,130,-976,2450,-3290,-350,,,,,,,0x03,
14999,-75,141,-992,4060,-3500,70,,,,,,,0x03,
15008,-75,145,-1007,3920,-3360,140,,,,,,,0x03,
15018,-77,152,-1008,2800,-2590,70,,,,,,,0x03,
15027,-83,141,-992,1540,-1960,140,,,,,,,0x03,
15037,-78,127,-976,1330,-1610,0,,,,,,,0x03,
15047,-76,119,-966,3150,-1470,140,,,,,,,0x03,
15056,-76,122,-970,5950,-2170,210,,,,,,,0x03,
15066,-72,138,-995,7910,-3150,350,,,,,,,0x03,
15076,-66,151,-1021,7280,-3360,490,,,,,,,0x03,
15085,-68,144,-1027,3850,-2450,560,,,,,,,0x03,
15095,-71,123,-1009,420,-1330,70,,,,,,,0x03,
15105,-68,116,-992,350,-910,-490,,,,,,,0x03,
15114,-64,115,-994,2520,-1400,-560,,,,,,,0x03,
15124,-62,117,-1001,4340,-1750,-490,,,,,,,0x03,
15133,-74,121,-1007,4480,-2030,-420,,,,,,,0x03,
15143,-84,124,-1010,2800,-1960,-350,,,,,,,0x03,
15153,-82,128,-997,350,-1400,-630,,,,,,,0x03,
15162,-86,116,-970,-1890,-980,-700,,,,,,,0x03,
15172,-88,101,-960,-2520,-1050,-1050,,,,,,,0x03,
15182,-76,106,-968,-280,-1680,-1120,,,,,,,0x03,
15191,-62,122,-984,1330,-1960,-630,,,,,,,0x03,
15201,-63,134,-996,770,-1890,-210,,,,,,,0x03,
15211,-68,140,-991,-1610,-1400,-140,,,,,,,0x03,
15220,-71,130,-983,-4620,-840,-70,,,,,,,0x03,
15230,-75,110,-980,-5670,-560,-140,,,,,,,0x03,
15239,-74,97,-980,-3850,-210,-140,,,,,,,0x03,
15249,-80,94,-983,-770,0,-70,,,,,,,0x03,
15259,-83,107,-994,1960,-140,70,,,,,,,0x03,
15268,-80,129,-993,2800,70,70,,,,,,,0x03,
15278,-85,135,-989,1540,140,70,,,,,,,0x03,
15288,-88,133,-994,-140,-140,-210,,,,,,,0x03,
15297,-87,130,-1003,-770,-280,-420,,,,,,,0x03,
15307,-85,133,-1014,-980,-770,-280,,,,,,,0x03,
15317,-84,130,-1030,-1050,-1190,-140,,,,,,,0x03,
15326,-87,128,-1033,-1190,-1330,0,,,,,,,0x03,
15336,-89,127,-1025,-1330,-1260,-70,,,,,,,0x03,
15346,-86,124,-1017,-840,-1120,-280,,,,,,,0x03,
15355,-86,120,-1007,350,-1050,-420,,,,,,,0x03,
15365,-87,123,-989,1050,-980,-700,,,,,,,0x03,
15374,-91,125,-969,840,-770,-770,,,,,,,0x03,
15384,-94,129,-952,420,-630,-980,,,,,,,0x03,
15394,-94,136,-946,560,-770,-910,,,,,,,0x03,
15403,-88,144,-959,770,-1050,-350,,,,,,,0x03,
15413,-88,145,-973,420,-980,140,,,,,,,0x03,
15423,-91,142,-979,-140,-630,490,,,,,,,0x03,
15432,-88,136,-990,-70,-210,490,,,,,,,0x03,
15442,-82,129,-999,770,70,350,,,,,,,0x03,
15452,-83,130,-1001,2100,210,140,,,,,,,0x03,
15461,-81,139,-999,3150,140,0,,,,,,,0x03,
15471,-74,145,-1001,3290,-70,70,,,,,,,0x03,
15480,-73,147,-1009,2660,-350,280,,,,,,,0x03,
15490,-74,135,-1015,1190,-490,350,,,,,,,0x03,
15500,-76,120,-1011,-210,-210,350,,,,,,,0x03,
15509,-76,106,-1000,-1260,140,210,,,,,,,0x03,
15519,-78,95,-991,-980,140,0,,,,,,,0x03,
15529,-76,95,-990,700,70,-210,,,,,,,0x03,
15538,-71,107,-985,2240,70,-350,,,,,,,0x03,
15548,-75,124,-982,2660,-70,-210,,,,,,,0x03,
15558,-80,138,-986,1750,-280,-280,,,,,,,0x03,
15567,-80,145,-994,0,-350,-140,,,,,,,0x03,
15577,-81,134,-996,-2170,0,140,,,,,,,0x03,
15586,-85,124,-993,-2800,350,0,,,,,,,0x03,
15596,-80,120,-984,-2030,770,-70,,,,,,,0x03,
15606,-81,119,-976,-770,910,-70,,,,,,,0x03,
15615,-80,115,-975,840,770,-70,,,,,,,0x03,
15625,-81,123,-984,2730,490,70,,,,,,,0x03,
15635,-76,131,-1000,4060,70,420,,,,,,,0x03,
15644,-73,141,-1012,3920,-70,770,,,,,,,0x03,
15654,-77,140,-1008,2380,140,840,,,,,,,0x03,
15664,-80,130,-1000,490,280,700,,,,,,,0x03,
15673,-79,120,-995,-140,210,490,,,,,,,0x03,
15683,-72,117,-1000,980,-70,630,,,,,,,0x03,
15693,-65,116,-1007,2310,-210,700,,,,,,,0x03,
15702,-67,119,-1008,3080,-210,630,,,,,,,0x03,
15712,-70,125,-1002,2520,70,630,,,,,,,0x03,
15721,-66,121,-996,1050,280,490,,,,,,,0x03,
15731,-66,111,-991,-70,280,280,,,,,,,0x03,
15741,-69,104,-988,-70,140,70,,,,,,,0x03,
15750,-68,102,-992,-70,-140,70,,,,,,,0x03,
15760,-70,107,-998,210,-350,-140,,,,,,,0x03,
