#Format version: 1.0
time[ms],accX[mg],accY[mg],accZ[mg],gyroX[mdps],gyroY[mdps],gyroZ[mdps],magnX[mG],magnY[mG],magnZ[mG],press[hPa],temp[°C],hum[0,-807,100,-621,8540,3640,1470,,,,,,,0x03,
10,-808,90,-628,7210,3780,1470,,,,,,,0x03,
19,-806,92,-631,6510,3850,1330,,,,,,,0x03,
29,-794,103,-631,5460,3570,1260,,,,,,,0x03,
39,-782,110,-627,2730,3640,1260,,,,,,,0x03,
48,-771,108,-626,350,3640,1120,,,,,,,0x03,
58,-762,106,-628,-1330,3640,770,,,,,,,0x03,
68,-756,102,-633,-1470,3850,700,,,,,,,0x03,
77,-754,93,-636,-140,4130,910,,,,,,,0x03,
87,-748,85,-629,1470,4690,1120,,,,,,,0x03,
97,-746,82,-629,3780,5390,1190,,,,,,,0x03,
106,-749,85,-640,6580,5460,1260,,,,,,,0x03,
116,-751,95,-646,8960,5530,1260,,,,,,,0x03,
125,-758,112,-648,9730,5600,1190,,,,,,,0x03,
135,-765,116,-641,8400,5460,1120,,,,,,,0x03,
145,-769,106,-643,7210,5250,1120,,,,,,,0x03,
154,-771,90,-646,7560,5040,1400,,,,,,,0x03,
164,-777,80,-646,7840,5110,1750,,,,,,,0x03,
174,-774,76,-644,8610,5180,1680,,,,,,,0x03,
183,-768,77,-644,8820,5110,1470,,,,,,,0x03,
193,-768,81,-644,7980,4970,1330,,,,,,,0x03,
203,-771,89,-648,6090,4900,1400,,,,,,,0x03,
212,-778,83,-654,3360,4690,1470,,,,,,,0x03,
222,-783,74,-658,1260,4270,1330,,,,,,,0x03,
232,-777,69,-650,-560,4200,910,,,,,,,0x03,
241,-772,71,-644,-1050,4270,490,,,,,,,0x03,
251,-769,76,-646,210,3850,490,,,,,,,0x03,
261,-773,92,-653,1260,3500,700,,,,,,,0x03,
270,-779,113,-656,1190,3360,840,,,,,,,0x03,
280,-772,126,-662,70,2800,700,,,,,,,0x03,
290,-760,122,-662,-1120,2170,490,,,,,,,0x03,
299,-757,111,-655,-1610,2100,490,,,,,,,0x03,
309,-751,101,-652,-630,1960,560,,,,,,,0x03,
318,-748,96,-656,1680,1680,630,,,,,,,0x03,
328,-743,98,-662,4130,1680,770,,,,,,,0x03,
338,-743,106,-661,5040,1750,910,,,,,,,0x03,
347,-747,106,-659,4620,1610,840,,,,,,,0x03,
357,-742,96,-659,3850,1470,630,,,,,,,0x03,
367,-733,85,-661,3850,1330,490,,,,,,,0x03,
376,-734,76,-663,4830,1330,420,,,,,,,0x03,
386,-739,75,-668,5460,1400,490,,,,,,,0x03,
396,-738,81,-669,5600,1260,350,,,,,,,0x03,
405,-735,84,-676,4760,1050,0,,,,,,,0x03,
415,-738,86,-668,3640,840,-210,,,,,,,0x03,
425,-738,83,-662,1820,910,-350,,,,,,,0x03,
434,-735,79,-658,1120,700,-560,,,,,,,0x03,
444,-740,72,-667,1120,700,-490,,,,,,,0x03,
454,-745,79,-669,2310,560,-560,,,,,,,0x03,
463,-743,88,-664,1610,700,-700,,,,,,,0x03,
473,-743,91,-656,70,700,-840,,,,,,,0x03,
483,-740,77,-653,-420,630,-910,,,,,,,0x03,
492,-747,74,-654,140,630,-980,,,,,,,0x03,
502,-754,80,-663,1680,770,-840,,,,,,,0x03,
511,-757,89,-668,2730,490,-700,,,,,,,0x03,
521,-755,99,-667,2170,420,-770,,,,,,,0x03,
531,-755,98,-666,1610,210,-1050,,,,,,,0x03,
540,-749,96,-656,1120,-70,-1260,,,,,,,0x03,
550,-751,90,-658,210,-70,-980,,,,,,,0x03,
560,-756,81,-666,1610,-560,-770,,,,,,,0x03,
569,-756,78,-666,2520,-490,-700,,,,,,,0x03,
579,-759,80,-657,2240,-280,-840,,,,,,,0x03,
589,-760,73,-653,2660,-280,-910,,,,,,,0x03,
598,-756,68,-657,3290,-420,-910,,,,,,,0x03,
608,-758,70,-662,3430,-490,-770,,,,,,,0x03,
618,-761,77,-666,3010,-490,-700,,,,,,,0x03,
627,-759,74,-668,1400,-770,-770,,,,,,,0x03,
637,-755,66,-670,140,-980,-1050,,,,,,,0x03,
647,-753,65,-664,-70,-1260,-1190,,,,,,,0x03,
656,-751,72,-659,-560,-1260,-1190,,,,,,,0x03,
666,-748,77,-656,-560,-1260,-1190,,,,,,,0x03,
676,-750,80,-655,-910,-1260,-1190,,,,,,,0x03,
685,-753,83,-661,-560,-1330,-1190,,,,,,,0x03,
695,-753,87,-665,-70,-1400,-1120,,,,,,,0x03,
704,-753,94,-666,-280,-1470,-1120,,,,,,,0x03,
714,-754,89,-663,-490,-1750,-980,,,,,,,0x03,
724,-755,83,-662,-210,-1960,-1050,,,,,,,0x03,
733,-755,80,-660,630,-2170,-910,,,,,,,0x03,
743,-756,76,-657,980,-2100,-630,,,,,,,0x03,
753,-750,73,-655,1330,-2030,-630,,,,,,,0x03,
762,-750,71,-655,1890,-1960,-490,,,,,,,0x03,
772,-752,67,-648,1400,-1610,-490,,,,,,,0x03,
782,-754,63,-643,980,-1190,-560,,,,,,,0x03,
791,-755,55,-646,1610,-910,-490,,,,,,,0x03,
801,-761,59,-653,2380,-560,-350,,,,,,,0x03,
811,-760,70,-660,2870,-280,-210,,,,,,,0x03,
820,-758,79,-670,3290,-420,-140,,,,,,,0x03,
830,-758,87,-664,2660,-490,-210,,,,,,,0x03,
840,-762,85,-657,770,-560,-420,,,,,,,0x03,
849,-760,71,-656,840,-1050,-560,,,,,,,0x03,
859,-762,67,-657,1750,-1120,-490,,,,,,,0x03,
869,-769,74,-657,2730,-980,-280,,,,,,,0x03,
878,-765,81,-657,3500,-1190,-140,,,,,,,0x03,
888,-758,85,-655,2800,-1190,-210,,,,,,,0x03,
898,-759,82,-655,2240,-1260,-210,,,,,,,0x03,
907,-756,77,-656,1750,-1400,-210,,,,,,,0x03,
917,-754,74,-659,1540,-1330,-70,,,,,,,0x03,
926,-751,68,-659,2240,-1190,-70,,,,,,,0x03,
936,-747,71,-658,2660,-1120,-70,,,,,,,0x03,
946,-745,69,-655,3010,-980,-140,,,,,,,0x03,
955,-746,64,-657,3290,-840,0,,,,,,,0x03,
965,-747,66,-662,3920,-770,-140,,,,,,,0x03,
975,-750,73,-660,4060,-700,-210,,,,,,,0x03,
984,-752,76,-655,3220,-490,0,,,,,,,0x03,
994,-751,71,-652,2380,-490,70,,,,,,,0x03,
1004,-752,65,-652,2380,-350,-210,,,,,,,0x03,
1013,-757,66,-654,2730,-280,-70,,,,,,,0x03,
1023,-760,65,-661,2940,-140,140,,,,,,,0x03,
1033,-759,65,-665,3780,-140,70,,,,,,,0x03,
1042,-762,72,-669,3990,-280,-210,,,,,,,0x03,
1052,-765,87,-665,3920,-700,-350,,,,,,,0x03,
1062,-763,91,-659,2170,-840,-280,,,,,,,0x03,
1071,-755,84,-656,280,-1050,-490,,,,,,,0x03,
1081,-754,67,-650,-280,-1190,-560,,,,,,,0x03,
1091,-759,60,-655,210,-1050,-280,,,,,,,0x03,
1100,-760,63,-657,2170,-1190,-140,,,,,,,0x03,
1110,-760,72,-656,2380,-910,-70,,,,,,,0x03,
1119,-760,77,-654,2310,-910,-70,,,,,,,0x03,
1129,-752,76,-658,1820,-1050,-70,,,,,,,0x03,
1139,-749,74,-656,1050,-910,70,,,,,,,0x03,
1148,-749,65,-660,840,-840,140,,,,,,,0x03,
1158,-749,59,-660,1260,-910,-70,,,,,,,0x03,
1168,-751,55,-659,770,-560,-70,,,,,,,0x03,
1177,-749,55,-658,1470,-490,-210,,,,,,,0x03,
1187,-747,57,-655,1750,-350,-280,,,,,,,0x03,
1197,-751,65,-654,1400,-70,-70,,,,,,,0x03,
1206,-757,66,-657,910,-210,-350,,,,,,,0x03,
1216,-761,68,-663,560,-210,-280,,,,,,,0x03,
1226,-767,68,-667,420,-210,140,,,,,,,0x03,
1235,-766,72,-663,420,-420,-210,,,,,,,0x03,
1245,-767,70,-656,70,-560,-560,,,,,,,0x03,
1255,-766,67,-654,-140,-770,-350,,,,,,,0x03,
1264,-760,69,-654,350,-700,-70,,,,,,,0x03,
1274,-758,71,-656,210,-700,70,,,,,,,0x03,
1284,-762,68,-658,210,-840,0,,,,,,,0x03,
1293,-760,65,-658,-140,-770,-70,,,,,,,0x03,
1303,-754,60,-655,-210,-700,-70,,,,,,,0x03,
1312,-754,58,-651,-70,-560,0,,,,,,,0x03,
1322,-757,56,-652,140,-350,140,,,,,,,0x03,
1332,-755,57,-655,770,-280,140,,,,,,,0x03,
1341,-751,63,-658,420,-70,140,,,,,,,0x03,
1351,-752,67,-662,490,-140,70,,,,,,,0x03,
1361,-753,72,-661,-70,-70,140,,,,,,,0x03,
1370,-751,70,-662,-700,0,140,,,,,,,0x03,
1380,-749,69,-664,-630,-280,140,,,,,,,0x03,
1390,-748,70,-660,-1400,-210,210,,,,,,,0x03,
1399,-750,65,-658,-2310,0,140,,,,,,,0x03,
1409,-748,56,-658,-2170,-140,-70,,,,,,,0x03,
1419,-749,56,-660,-1680,70,-70,,,,,,,0x03,
1428,-751,62,-662,-1330,0,0,,,,,,,0x03,
1438,-750,75,-667,-1750,-350,0,,,,,,,0x03,
1448,-754,81,-666,-2100,-420,-210,,,,,,,0x03,
1457,-755,76,-663,-2170,-350,-350,,,,,,,0x03,
1467,-759,77,-660,-2100,-490,-420,,,,,,,0x03,
1477,-761,73,-658,-1470,-560,-280,,,,,,,0x03,
1486,-757,69,-658,-700,-490,-280,,,,,,,0x03,
1496,-761,69,-658,280,-560,-280,,,,,,,0x03,
1505,-761,73,-659,630,-700,-280,,,,,,,0x03,
1515,-761,76,-658,0,-840,-350,,,,,,,0x03,
1525,-761,71,-655,-770,-910,-420,,,,,,,0x03,
1534,-758,66,-655,-1680,-840,-420,,,,,,,0x03,
1544,-754,63,-656,-1820,-840,-420,,,,,,,0x03,
1554,-753,64,-661,-1260,-840,-420,,,,,,,0x03,
1563,-754,71,-654,-1260,-770,-490,,,,,,,0x03,
1573,-753,74,-652,-2450,-420,-350,,,,,,,0x03,
1583,-747,66,-655,-2240,-490,-280,,,,,,,0x03,
1592,-750,61,-663,-1470,-420,-140,,,,,,,0x03,
1602,-758,64,-665,-560,-350,0,,,,,,,0x03,
1612,-758,66,-669,-70,-560,-70,,,,,,,0x03,
1621,-752,72,-673,140,-840,-350,,,,,,,0x03,
1631,-754,74,-668,-350,-1120,-490,,,,,,,0x03,
1641,-757,73,-662,-1470,-1400,-630,,,,,,,0x03,
1650,-759,65,-658,-1960,-1610,-630,,,,,,,0x03,
1660,-755,60,-654,-1750,-1680,-700,,,,,,,0x03,
1670,-758,63,-652,-1050,-1470,-700,,,,,,,0x03,
1679,-761,72,-651,-210,-1330,-630,,,,,,,0x03,
1689,-759,80,-655,-210,-1190,-490,,,,,,,0x03,
1699,-757,80,-658,-1190,-1260,-490,,,,,,,0x03,
1708,-763,77,-657,-2030,-1190,-560,,,,,,,0x03,
1718,-758,71,-655,-2590,-1190,-560,,,,,,,0x03,
1727,-751,64,-653,-2520,-1120,-420,,,,,,,0x03,
1737,-747,63,-649,-1890,-770,-350,,,,,,,0x03,
1747,-749,64,-650,-980,-420,-210,,,,,,,0x03,
1756,-751,67,-650,-490,-140,-140,,,,,,,0x03,
1766,-753,67,-650,-210,280,-70,,,,,,,0x03,
1776,-754,66,-653,70,490,-140,,,,,,,0x03,
1785,-760,68,-655,140,630,-70,,,,,,,0x03,
1795,-762,68,-660,0,700,-70,,,,,,,0x03,
1805,-762,72,-664,210,490,-140,,,,,,,0x03,
1814,-763,76,-665,-70,280,-140,,,,,,,0x03,
1824,-764,77,-661,-700,140,-210,,,,,,,0x03,
1834,-761,72,-661,-770,-140,-210,,,,,,,0x03,
1843,-759,69,-661,-280,-350,-210,,,,,,,0x03,
1853,-758,71,-659,140,-280,-70,,,,,,,0x03,
1863,-760,75,-659,70,-490,0,,,,,,,0x03,
1872,-757,74,-662,-560,-630,0,,,,,,,0x03,
1882,-753,70,-660,-1190,-700,-70,,,,,,,0x03,
1892,-754,70,-656,-2030,-630,-210,,,,,,,0x03,
1901,-751,68,-659,-1890,-770,-210,,,,,,,0x03,
1911,-751,67,-661,-1190,-770,0,,,,,,,0x03,
1920,-755,73,-660,-910,-630,140,,,,,,,0x03,
1930,-757,74,-660,-1540,-700,140,,,,,,,0x03,
1940,-755,70,-659,-2380,-770,70,,,,,,,0x03,
1949,-757,63,-656,-2870,-700,-70,,,,,,,0x03,
1959,-757,62,-656,-2660,-700,-280,,,,,,,0x03,
1969,-756,69,-662,-1820,-770,-350,,,,,,,0x03,
1978,-756,76,-665,-350,-840,-420,,,,,,,0x03,
1988,-758,89,-663,-420,-770,-350,,,,,,,0x03,
1998,-754,90,-653,-1050,-840,-350,,,,,,,0x03,
2007,-748,81,-654,-1750,-840,-350,,,,,,,0x03,
2017,-743,75,-651,-980,-840,-280,,,,,,,0x03,
2027,-744,71,-657,-210,-420,70,,,,,,,0x03,
2036,-748,73,-663,1400,-490,140,,,,,,,0x03,
2046,-750,75,-663,2450,-210,140,,,,,,,0x03,
2056,-746,76,-662,1890,-70,0,,,,,,,0x03,
2065,-740,72,-661,1960,-280,-140,,,,,,,0x03,
2075,-742,67,-659,1680,-140,-210,,,,,,,0x03,
2085,-744,64,-660,1610,-140,-420,,,,,,,0x03,
2094,-747,60,-666,2310,-140,-210,,,,,,,0x03,
2104,-754,68,-672,2940,-210,-70,,,,,,,0x03,
2113,-756,76,-666,2870,-350,-770,,,,,,,0x03,
2123,-759,80,-661,1540,-280,-910,,,,,,,0x03,
2133,-760,74,-657,1120,-350,-560,,,,,,,0x03,
2142,-758,71,-656,1330,-560,-770,,,,,,,0x03,
2152,-762,74,-652,1610,-350,-910,,,,,,,0x03,
2162,-761,74,-653,2030,-280,-700,,,,,,,0x03,
2171,-758,69,-655,2100,-210,-350,,,,,,,0x03,
2181,-756,69,-657,2590,-210,-210,,,,,,,0x03,
2191,-758,73,-655,2660,-140,-420,,,,,,,0x03,
2200,-754,75,-656,1960,-70,-420,,,,,,,0x03,
2210,-750,70,-661,1750,-280,-280,,,,,,,0x03,
2220,-752,69,-667,1820,-490,-70,,,,,,,0x03,
2229,-755,68,-666,1470,-560,0,,,,,,,0x03,
2239,-756,61,-667,980,-770,-140,,,,,,,0x03,
2249,-752,59,-666,980,-980,-350,,,,,,,0x03,
2258,-752,59,-666,980,-1050,-490,,,,,,,0x03,
2268,-758,68,-661,1120,-1120,-630,,,,,,,0x03,
2278,-755,69,-658,350,-980,-700,,,,,,,0x03,
2287,-751,65,-657,-350,-980,-770,,,,,,,0x03,
2297,-752,61,-656,-280,-840,-700,,,,,,,0x03,
2307,-756,62,-655,560,-560,-560,,,,,,,0x03,
2316,-761,68,-659,980,-490,-420,,,,,,,0x03,
2326,-758,73,-659,770,-490,-490,,,,,,,0x03,
2335,-754,74,-659,280,-490,-420,,,,,,,0x03,
2345,-752,72,-660,-70,-490,-280,,,,,,,0x03,
2355,-752,71,-660,-490,-490,-140,,,,,,,0x03,
2364,-749,65,-658,-630,-560,-210,,,,,,,0x03,
2374,-752,59,-660,-630,-420,-210,,,,,,,0x03,
2384,-752,60,-662,490,-490,-210,,,,,,,0x03,
2393,-752,66,-661,840,-490,-70,,,,,,,0x03,
2403,-756,75,-662,350,-560,-350,,,,,,,0x03,
2413,-753,70,-663,70,-630,-350,,,,,,,0x03,
2422,-757,64,-660,-770,-630,-70,,,,,,,0x03,
2432,-757,57,-657,-1190,-630,-280,,,,,,,0x03,
2442,-754,53,-656,-770,-490,-420,,,,,,,0x03,
2451,-756,58,-659,560,-420,-210,,,,,,,0x03,
2461,-759,66,-661,1050,-280,70,,,,,,,0x03,
2471,-763,81,-661,280,-490,140,,,,,,,0x03,
2480,-763,82,-663,-2310,-910,-140,,,,,,,0x03,
2490,-755,76,-665,-3850,-1190,-560,,,,,,,0x03,
2500,-755,65,-663,-3570,-1190,-420,,,,,,,0x03,
2509,-759,62,-660,-2520,-1050,-140,,,,,,,0x03,
2519,-751,64,-659,-1190,-980,-140,,,,,,,0x03,
2528,-747,63,-659,-140,-980,-210,,,,,,,0x03,
2538,-757,67,-658,140,-840,-210,,,,,,,0x03,
2548,-755,73,-660,-280,-840,-210,,,,,,,0x03,
2557,-750,72,-659,-1610,-840,-280,,,,,,,0x03,
2567,-751,64,-663,-2030,-840,-210,,,,,,,0x03,
2577,-748,61,-662,-1330,-840,-280,,,,,,,0x03,
2586,-749,66,-657,-1120,-700,-350,,,,,,,0x03,
2596,-747,65,-656,-560,-630,-210,,,,,,,0x03,
2606,-746,68,-658,-280,-490,-70,,,,,,,0x03,
2615,-752,74,-662,70,-490,0,,,,,,,0x03,
2625,-758,75,-661,-560,-490,-70,,,,,,,0x03,
2635,-761,73,-663,-1260,-560,-210,,,,,,,0x03,
2644,-757,68,-660,-1470,-630,-280,,,,,,,0x03,
2654,-757,67,-654,-1470,-630,-140,,,,,,,0x03,
2664,-756,68,-649,-1750,-350,-140,,,,,,,0x03,
2673,-752,65,-653,-1540,-210,-140,,,,,,,0x03,
2683,-754,66,-655,-770,-140,-70,,,,,,,0x03,
2693,-757,71,-655,-770,350,70,,,,,,,0x03,
2702,-752,74,-649,-630,560,70,,,,,,,0x03,
2712,-751,70,-653,-910,770,210,,,,,,,0x03,
2721,-752,75,-657,0,840,140,,,,,,,0x03,
2731,-758,81,-662,210,980,350,,,,,,,0x03,
2741,-756,89,-671,70,700,420,,,,,,,0x03,
2750,-749,89,-673,-280,280,420,,,,,,,0x03,
2760,-755,86,-668,-1960,70,420,,,,,,,0x03,
2770,-757,70,-666,-2800,-210,350,,,,,,,0x03,
2779,-749,51,-666,-2100,-560,70,,,,,,,0x03,
2789,-754,46,-663,-630,-490,70,,,,,,,0x03,
2799,-760,57,-659,1120,-490,70,,,,,,,0x03,
2808,-756,72,-660,1680,-490,140,,,,,,,0x03,
2818,-753,78,-658,560,-490,210,,,,,,,0x03,
2828,-757,73,-656,-1050,-350,210,,,,,,,0x03,
2837,-753,63,-658,-1890,-350,210,,,,,,,0x03,
2847,-748,57,-662,-1470,-350,210,,,,,,,0x03,
2857,-750,62,-663,-350,-140,280,,,,,,,0x03,
2866,-749,70,-663,70,-70,350,,,,,,,0x03,
2876,-750,76,-664,-210,-140,350,,,,,,,0x03,
2886,-749,79,-665,-770,-210,210,,,,,,,0x03,
2895,-748,80,-664,-1400,-210,70,,,,,,,0x03,
2905,-747,78,-662,-1680,-280,70,,,,,,,0x03,
2914,-746,73,-665,-1610,-280,-70,,,,,,,0x03,
2924,-748,70,-664,-770,-420,-140,,,,,,,0x03,
2934,-758,72,-662,-910,-560,70,,,,,,,0x03,
2943,-756,77,-663,-700,-770,70,,,,,,,0x03,
2953,-755,71,-666,0,-770,140,,,,,,,0x03,
2963,-762,74,-667,700,-770,70,,,,,,,0x03,
2972,-758,79,-665,490,-840,-140,,,,,,,0x03,
2982,-751,77,-661,-490,-980,-210,,,,,,,0x03,
2992,-754,68,-659,-980,-1050,-210,,,,,,,0x03,
3001,-757,65,-658,-560,-1050,-210,,,,,,,0x03,
3011,-756,66,-659,-70,-1050,-350,,,,,,,0x03,
3021,-760,73,-656,140,-910,-70,,,,,,,0x03,
3030,-757,75,-651,-490,-560,70,,,,,,,0x03,
3040,-755,71,-651,-420,-560,-210,,,,,,,0x03,
3050,-757,67,-655,-70,-420,-140,,,,,,,0x03,
3059,-759,74,-658,210,-140,210,,,,,,,0x03,
3069,-759,74,-658,210,-70,280,,,,,,,0x03,
3079,-754,76,-659,-70,0,210,,,,,,,0x03,
3088,-751,76,-662,70,-140,70,,,,,,,0x03,
3098,-752,77,-662,70,-140,140,,,,,,,0x03,
3108,-750,78,-661,-70,0,280,,,,,,,0x03,
3117,-745,75,-661,-70,0,280,,,,,,,0x03,
3127,-744,72,-661,-140,140,280,,,,,,,0x03,
3136,-743,74,-663,210,140,280,,,,,,,0x03,
3146,-743,77,-663,-140,280,280,,,,,,,0x03,
3156,-746,76,-664,-770,350,280,,,,,,,0x03,
3165,-742,69,-668,-630,350,210,,,,,,,0x03,
3175,-741,71,-665,-140,350,140,,,,,,,0x03,
3185,-740,71,-662,-140,560,140,,,,,,,0x03,
3194,-737,67,-664,350,630,140,,,,,,,0x03,
3204,-740,68,-663,560,700,140,,,,,,,0x03,
3214,-750,70,-665,70,770,210,,,,,,,0x03,
3223,-748,69,-670,-1050,630,-70,,,,,,,0x03,
3233,-750,67,-672,-1680,280,-420,,,,,,,0x03,
3243,-757,73,-670,-3010,280,-700,,,,,,,0x03,
3252,-757,78,-666,-4340,140,-910,,,,,,,0x03,
3262,-754,76,-667,-4760,-210,-980,,,,,,,0x03,
3272,-754,76,-664,-4760,-350,-980,,,,,,,0x03,
3281,-761,78,-663,-4200,-350,-910,,,,,,,0x03,
3291,-762,82,-666,-2940,-700,-980,,,,,,,0x03,
3301,-762,85,-663,-2170,-840,-910,,,,,,,0x03,
3310,-761,87,-654,-1890,-560,-910,,,,,,,0x03,
3320,-755,87,-652,-910,-630,-840,,,,,,,0x03,
3329,-751,90,-657,70,-700,-630,,,,,,,0x03,
3339,-752,89,-659,140,-490,-280,,,,,,,0x03,
3349,-753,82,-661,350,-490,-350,,,,,,,0x03,
3358,-752,74,-662,770,-490,-420,,,,,,,0x03,
3368,-749,68,-659,1050,-280,-350,,,,,,,0x03,
3378,-745,63,-659,1960,-140,-210,,,,,,,0x03,
3387,-748,68,-665,2450,-210,-210,,,,,,,0x03,
3397,-753,76,-668,1890,-140,-140,,,,,,,0x03,
3407,-753,84,-674,420,-210,-350,,,,,,,0x03,
3416,-745,85,-677,-1400,-630,-700,,,,,,,0x03,
3426,-748,80,-670,-3010,-840,-840,,,,,,,0x03,
3436,-749,74,-662,-4130,-840,-840,,,,,,,0x03,
3445,-741,72,-661,-3780,-980,-840,,,,,,,0x03,
3455,-743,74,-665,-2380,-980,-630,,,,,,,0x03,
3465,-750,89,-667,-1750,-910,-560,,,,,,,0x03,
3474,-754,103,-673,-2380,-1260,-560,,,,,,,0x03,
3484,-755,100,-673,-3920,-1680,-630,,,,,,,0x03,
3494,-758,78,-668,-6230,-1820,-840,,,,,,,0x03,
3503,-756,49,-662,-6020,-2100,-1050,,,,,,,0x03,
3513,-748,35,-657,-2940,-2030,-1120,,,,,,,0x03,
3522,-745,43,-656,770,-1610,-700,,,,,,,0x03,
3532,-750,69,-653,2660,-1400,-280,,,,,,,0x03,
3542,-755,91,-655,1960,-1190,-70,,,,,,,0x03,
3551,-754,91,-656,210,-910,-210,,,,,,,0x03,
3561,-752,80,-655,-1330,-490,-560,,,,,,,0x03,
3571,-751,75,-654,-1260,-280,-630,,,,,,,0x03,
3580,-750,70,-657,-140,-70,-280,,,,,,,0x03,
3590,-753,69,-662,1050,140,70,,,,,,,0x03,
3600,-755,76,-664,2170,140,70,,,,,,,0x03,
3609,-752,85,-666,2380,140,-70,,,,,,,0x03,
3619,-751,87,-665,1610,0,0,,,,,,,0x03,
3629,-752,87,-660,350,-140,0,,,,,,,0x03,
3638,-754,78,-657,-1260,-140,0,,,,,,,0x03,
3648,-754,64,-659,-1890,-210,0,,,,,,,0x03,
3658,-757,60,-666,-560,-280,-70,,,,,,,0x03,
3667,-759,73,-669,1050,-210,-70,,,,,,,0x03,
3677,-759,86,-665,1190,-280,70,,,,,,,0x03,
3687,-753,86,-660,0,-350,140,,,,,,,0x03,
3696,-747,77,-661,-700,-560,70,,,,,,,0x03,
3706,-751,71,-662,-980,-560,140,,,,,,,0x03,
3715,-754,75,-665,-700,-490,140,,,,,,,0x03,
3725,-749,77,-664,-630,-490,210,,,,,,,0x03,
3735,-752,79,-663,-1330,-420,140,,,,,,,0x03,
3744,-750,74,-658,-1260,-350,140,,,,,,,0x03,
3754,-746,72,-660,-980,-280,210,,,,,,,0x03,
3764,-747,75,-663,-490,-280,280,,,,,,,0x03,
3773,-749,77,-665,-140,-140,350,,,,,,,0x03,
3783,-746,83,-666,-420,-140,280,,,,,,,0x03,
3793,-747,84,-662,-1330,0,210,,,,,,,0x03,
3802,-744,77,-662,-1960,0,140,,,,,,,0x03,
3812,-744,75,-665,-1260,-140,140,,,,,,,0x03,
3822,-749,76,-664,-490,70,210,,,,,,,0x03,
3831,-750,83,-668,140,70,210,,,,,,,0x03,
3841,-749,87,-667,1260,-140,140,,,,,,,0x03,
3851,-750,90,-665,1190,0,140,,,,,,,0x03,
3860,-749,90,-667,1470,-280,210,,,,,,,0x03,
3870,-750,87,-666,1820,-490,280,,,,,,,0x03,
3880,-750,80,-659,1330,-280,350,,,,,,,0x03,
3889,-746,73,-658,2310,-350,140,,,,,,,0x03,
3899,-746,75,-659,3780,-280,280,,,,,,,0x03,
3909,-749,77,-657,3500,0,630,,,,,,,0x03,
3918,-754,79,-661,3430,-140,630,,,,,,,0x03,
3928,-756,81,-663,3430,0,490,,,,,,,0x03,
3937,-753,78,-666,2660,280,420,,,,,,,0x03,
3947,-750,75,-666,2660,140,210,,,,,,,0x03,
3957,-756,74,-667,2520,140,280,,,,,,,0x03,
3966,-754,73,-667,3010,70,280,,,,,,,0x03,
3976,-754,74,-671,3220,-140,280,,,,,,,0x03,
3986,-757,75,-667,3080,-210,280,,,,,,,0x03,
3995,-758,71,-660,1890,-140,140,,,,,,,0x03,
4005,-758,71,-657,1260,-280,-70,,,,,,,0x03,
4015,-753,70,-658,560,-210,-140,,,,,,,0x03,
4024,-757,72,-659,420,-70,-70,,,,,,,0x03,
4034,-756,79,-662,560,70,0,,,,,,,0x03,
4044,-750,81,-666,140,140,70,,,,,,,0x03,
4053,-748,82,-666,-280,210,140,,,,,,,0x03,
4063,-742,77,-665,-420,280,140,,,,,,,0x03,
4073,-738,74,-667,0,210,210,,,,,,,0x03,
4082,-738,70,-667,980,280,280,,,,,,,0x03,
4092,-739,72,-667,1820,420,420,,,,,,,0x03,
4102,-738,75,-669,1960,490,490,,,,,,,0x03,
4111,-740,73,-670,1750,490,350,,,,,,,0x03,
4121,-742,70,-673,1260,490,280,,,,,,,0x03,
4130,-745,69,-672,1050,280,140,,,,,,,0x03,
4140,-744,67,-677,700,280,140,,,,,,,0x03,
4150,-744,71,-678,490,-70,70,,,,,,,0x03,
4159,-750,75,-677,-350,-280,-70,,,,,,,0x03,
4169,-745,80,-678,-2030,-560,-560,,,,,,,0x03,
4179,-741,75,-672,-3430,-840,-700,,,,,,,0x03,
4188,-744,71,-666,-3850,-910,-700,,,,,,,0x03,
4198,-746,72,-663,-3150,-980,-630,,,,,,,0x03,
4208,-753,75,-661,-2170,-840,-420,,,,,,,0x03,
4217,-752,79,-662,-1330,-700,-210,,,,,,,0x03,
4227,-750,84,-664,-560,-560,-210,,,,,,,0x03,
4237,-752,88,-667,-420,-560,-70,,,,,,,0x03,
4246,-753,88,-664,-1260,-770,70,,,,,,,0x03,
4256,-751,82,-661,-2450,-840,140,,,,,,,0x03,
4266,-748,72,-663,-1820,-770,70,,,,,,,0x03,
4275,-747,66,-667,70,-560,70,,,,,,,0x03,
4285,-745,73,-668,1050,-350,210,,,,,,,0x03,
4295,-745,75,-673,1820,-350,420,,,,,,,0x03,
4304,-740,72,-674,1470,-350,420,,,,,,,0x03,
4314,-741,71,-674,770,-490,140,,,,,,,0x03,
4323,-741,69,-674,630,-630,-210,,,,,,,0x03,
4333,-744,74,-670,-70,-770,-280,,,,,,,0x03,
4343,-747,75,-669,-840,-910,-420,,,,,,,0x03,
4352,-749,78,-675,-980,-1120,-560,,,,,,,0x03,
4362,-749,86,-674,-910,-1400,-700,,,,,,,0x03,
4372,-753,90,-672,-1960,-1470,-770,,,,,,,0x03,
4381,-747,87,-668,-2030,-1750,-980,,,,,,,0x03,
4391,-742,80,-665,-1890,-1890,-980,,,,,,,0x03,
4401,-743,79,-662,-1050,-1820,-980,,,,,,,0x03,
4410,-743,83,-661,-140,-1750,-1050,,,,,,,0x03,
4420,-743,81,-661,70,-1540,-910,,,,,,,0x03,
4430,-745,73,-663,980,-1330,-840,,,,,,,0x03,
4439,-748,77,-664,2100,-1190,-910,,,,,,,0x03,
4449,-748,84,-665,2240,-1050,-840,,,,,,,0x03,
4459,-744,83,-668,2170,-1120,-840,,,,,,,0x03,
4468,-737,83,-668,1750,-1120,-980,,,,,,,0x03,
4478,-740,78,-668,1260,-1120,-910,,,,,,,0x03,
4488,-742,69,-671,1260,-1120,-910,,,,,,,0x03,
4497,-743,66,-673,1820,-1120,-1050,,,,,,,0x03,
4507,-747,73,-673,2380,-1260,-1260,,,,,,,0x03,
4516,-752,78,-670,2100,-1260,-1400,,,,,,,0x03,
4526,-748,80,-664,1330,-1330,-1540,,,,,,,0x03,
4536,-746,77,-663,700,-1470,-1680,,,,,,,0x03,
4545,-746,73,-659,350,-1330,-1680,,,,,,,0x03,
4555,-748,70,-658,280,-1120,-1610,,,,,,,0x03,
4565,-748,66,-663,840,-910,-1470,,,,,,,0x03,
4574,-754,69,-670,1470,-980,-1400,,,,,,,0x03,
4584,-760,77,-669,980,-1190,-1330,,,,,,,0x03,
4594,-761,84,-667,-910,-1400,-1470,,,,,,,0x03,
4603,-756,78,-666,-1470,-1610,-1750,,,,,,,0x03,
4613,-753,69,-659,-1120,-1680,-1890,,,,,,,0x03,
4623,-758,67,-655,-70,-1470,-1610,,,,,,,0x03,
4632,-755,64,-657,1820,-1190,-1190,,,,,,,0x03,
4642,-753,63,-659,3920,-1050,-980,,,,,,,0x03,
4652,-760,71,-663,5040,-910,-840,,,,,,,0x03,
4661,-760,82,-662,4340,-770,-840,,,,,,,0x03,
4671,-752,80,-665,2030,-910,-840,,,,,,,0x03,
4681,-750,69,-665,210,-1120,-980,,,,,,,0x03,
4690,-749,60,-666,-1120,-1050,-1050,,,,,,,0x03,
4700,-744,56,-667,-980,-1050,-1120,,,,,,,0x03,
4710,-744,53,-665,-840,-770,-910,,,,,,,0x03,
4719,-747,57,-666,-560,-700,-910,,,,,,,0x03,
4729,-749,59,-665,-490,-770,-910,,,,,,,0x03,
4738,-753,64,-666,-1050,-700,-840,,,,,,,0x03,
4748,-754,64,-665,-1470,-770,-980,,,,,,,0x03,
4758,-753,67,-665,-1750,-770,-1050,,,,,,,0x03,
4767,-748,67,-664,-1750,-770,-910,,,,,,,0x03,
4777,-747,67,-662,-910,-700,-770,,,,,,,0x03,
4787,-749,74,-661,-210,-560,-560,,,,,,,0x03,
4796,-752,77,-660,70,-490,-630,,,,,,,0x03,
4806,-750,78,-660,-70,-490,-630,,,,,,,0x03,
4816,-748,74,-661,-420,-350,-560,,,,,,,0x03,
4825,-749,71,-664,-280,-420,-560,,,,,,,0x03,
4835,-751,69,-667,-70,-420,-560,,,,,,,0x03,
4845,-752,66,-665,140,-420,-560,,,,,,,0x03,
4854,-749,67,-667,350,-420,-490,,,,,,,0x03,
4864,-747,70,-664,210,-560,-560,,,,,,,0x03,
4874,-753,69,-661,-770,-490,-420,,,,,,,0x03,
4883,-756,63,-660,-1540,-490,-420,,,,,,,0x03,
4893,-753,55,-666,-1610,-490,-350,,,,,,,0x03,
4903,-752,58,-669,-1050,-350,-280,,,,,,,0x03,
4912,-756,63,-668,-770,-350,-280,,,,,,,0x03,
4922,-753,70,-668,-1190,-560,-420,,,,,,,0x03,
4931,-751,70,-661,-2240,-560,-490,,,,,,,0x03,
4941,-756,63,-657,-3570,-490,-420,,,,,,,0x03,
4951,-754,60,-657,-4060,-630,-350,,,,,,,0x03,
4960,-753,62,-660,-3920,-490,-210,,,,,,,0x03,
4970,-758,72,-668,-2240,-420,-140,,,,,,,0x03,
4980,-757,84,-666,-1540,-350,-280,,,,,,,0x03,
4989,-752,88,-666,-1750,-350,-280,,,,,,,0x03,
4999,-746,82,-664,-1680,-630,-210,,,,,,,0x03,
5009,-743,78,-664,-1120,-630,-70,,,,,,,0x03,
5018,-745,71,-664,-630,-560,140,,,,,,,0x03,
5028,-746,67,-664,70,-630,210,,,,,,,0x03,
5038,-745,67,-664,560,-560,210,,,,,,,0x03,
5047,-742,66,-667,560,-420,280,,,,,,,0x03,
5057,-744,69,-671,770,-630,280,,,,,,,0x03,
5067,-747,73,-670,-350,-630,210,,,,,,,0x03,
5076,-748,69,-668,-1890,-630,70,,,,,,,0x03,
5086,-743,63,-668,-2100,-770,-70,,,,,,,0x03,
5096,-739,64,-665,-1750,-770,-70,,,,,,,0x03,
5105,-746,66,-661,-1330,-490,140,,,,,,,0x03,
5115,-744,68,-660,-630,-350,140,,,,,,,0x03,
5124,-742,69,-662,-70,-210,210,,,,,,,0x03,
5134,-749,73,-666,770,-140,210,,,,,,,0x03,
5144,-754,82,-668,1260,-140,210,,,,,,,0x03,
5153,-754,84,-666,280,-140,280,,,,,,,0x03,
5163,-756,77,-667,-210,-420,140,,,,,,,0x03,
5173,-753,74,-665,0,-560,0,,,,,,,0x03,
5182,-755,71,-662,70,-560,280,,,,,,,0x03,
5192,-754,66,-663,840,-630,490,,,,,,,0x03,
5202,-751,66,-667,1680,-700,490,,,,,,,0x03,
5211,-752,68,-668,2170,-700,560,,,,,,,0x03,
5221,-752,74,-667,2100,-700,560,,,,,,,0x03,
5231,-751,77,-665,1120,-840,420,,,,,,,0x03,
5240,-755,70,-662,0,-840,420,,,,,,,0x03,
5250,-752,65,-662,-700,-770,350,,,,,,,0x03,
5260,-746,67,-664,-70,-700,350,,,,,,,0x03,
5269,-749,68,-667,350,-630,490,,,,,,,0x03,
5279,-751,75,-667,910,-700,560,,,,,,,0x03,
5289,-751,78,-667,840,-770,490,,,,,,,0x03,
5298,-752,77,-668,70,-770,490,,,,,,,0x03,
5308,-750,75,-667,-210,-980,490,,,,,,,0x03,
5317,-748,70,-660,-770,-910,560,,,,,,,0x03,
5327,-747,64,-664,-700,-840,420,,,,,,,0x03,
5337,-747,66,-671,910,-1050,350,,,,,,,0x03,
5346,-747,76,-673,1470,-910,560,,,,,,,0x03,
5356,-749,81,-672,840,-1050,700,,,,,,,0x03,
5366,-747,79,-667,-210,-1260,420,,,,,,,0x03,
5375,-745,71,-665,-1470,-1330,140,,,,,,,0x03,
5385,-744,66,-658,-1610,-1330,70,,,,,,,0x03,
5395,-746,66,-661,-1120,-1120,210,,,,,,,0x03,
5404,-747,68,-665,210,-1050,420,,,,,,,0x03,
5414,-750,73,-668,770,-910,420,,,,,,,0x03,
5424,-750,80,-666,910,-840,420,,,,,,,0x03,
5433,-749,80,-663,280,-910,490,,,,,,,0x03,
5443,-747,73,-659,-420,-910,490,,,,,,,0x03,
5453,-751,66,-660,-350,-770,490,,,,,,,0x03,
5462,-756,68,-664,140,-770,490,,,,,,,0x03,
5472,-757,70,-667,70,-630,490,,,,,,,0x03,
5482,-756,74,-668,210,-700,420,,,,,,,0x03,
5491,-753,78,-665,-420,-770,350,,,,,,,0x03,
5501,-751,79,-662,-1120,-910,350,,,,,,,0x03,
5511,-753,73,-662,-1470,-980,350,,,,,,,0x03,
5520,-751,71,-664,-1610,-910,350,,,,,,,0x03,
5530,-754,71,-665,-1260,-1050,420,,,,,,,0x03,
5539,-756,73,-669,-840,-1050,490,,,,,,,0x03,
5549,-752,78,-667,-350,-1190,420,,,,,,,0x03,
5559,-748,79,-664,-1050,-1050,350,,,,,,,0x03,
5568,-744,78,-662,-1330,-1190,210,,,,,,,0x03,
5578,-741,73,-661,-1190,-1190,210,,,,,,,0x03,
5588,-747,72,-664,-700,-1120,280,,,,,,,0x03,
5597,-751,74,-665,-420,-1260,350,,,,,,,0x03,
5607,-750,82,-666,-840,-1330,280,,,,,,,0x03,
5617,-752,81,-662,-1190,-1120,210,,,,,,,0x03,
5626,-750,79,-660,-1190,-980,70,,,,,,,0x03,
5636,-748,76,-658,-1050,-910,0,,,,,,,0x03,
5646,-751,74,-660,-700,-700,70,,,,,,,0x03,
5655,-752,74,-663,350,-630,140,,,,,,,0x03,
5665,-753,78,-665,560,-560,210,,,,,,,0x03,
5675,-754,81,-664,350,-560,140,,,,,,,0x03,
5684,-756,83,-661,-280,-630,0,,,,,,,0x03,
5694,-752,80,-659,-1190,-700,-70,,,,,,,0x03,
5704,-751,74,-659,-1050,-700,-70,,,,,,,0x03,
5713,-752,72,-662,-770,-560,70,,,,,,,0x03,
5723,-752,74,-665,-70,-560,70,,,,,,,0x03,
5732,-752,77,-668,350,-560,140,,,,,,,0x03,
5742,-752,85,-667,210,-700,0,,,,,,,0x03,
5752,-749,85,-662,-840,-770,-70,,,,,,,0x03,
5761,-746,79,-661,-1750,-840,-210,,,,,,,0x03,
5771,-744,73,-661,-1260,-910,-350,,,,,,,0x03,
5781,-751,71,-663,-70,-700,-280,,,,,,,0x03,
5790,-750,80,-665,980,-630,-280,,,,,,,0x03,
5800,-748,82,-664,980,-490,-210,,,,,,,0x03,
5810,-747,81,-665,630,-630,-280,,,,,,,0x03,
5819,-752,77,-662,280,-700,-350,,,,,,,0x03,
5829,-753,77,-656,-560,-560,-420,,,,,,,0x03,
5839,-748,72,-656,-770,-490,-490,,,,,,,0x03,
5848,-748,67,-659,0,-280,-420,,,,,,,0x03,
5858,-754,73,-662,910,-70,-280,,,,,,,0x03,
5868,-753,83,-663,1400,70,-280,,,,,,,0x03,
5877,-750,85,-664,840,70,-280,,,,,,,0x03,
5887,-748,77,-658,-70,140,-350,,,,,,,0x03,
5897,-751,73,-662,140,210,-350,,,,,,,0x03,
5906,-751,71,-656,560,280,-280,,,,,,,0x03,
5916,-754,75,-663,70,490,-350,,,,,,,0x03,
5925,-749,76,-671,1330,280,-420,,,,,,,0x03,
5935,-752,86,-672,1120,280,-350,,,,,,,0x03,
5945,-752,90,-671,560,70,-490,,,,,,,0x03,
5954,-749,89,-670,-140,-420,-840,,,,,,,0x03,
5964,-750,95,-666,-1400,-560,-980,,,,,,,0x03,
5974,-748,89,-661,-2800,-630,-770,,,,,,,0x03,
5983,-744,79,-663,-4760,-840,-840,,,,,,,0x03,
5993,-746,63,-666,-5180,-840,-910,,,,,,,0x03,
6003,-751,47,-667,-4550,-630,-910,,,,,,,0x03,
6012,-749,53,-664,-2240,-560,-980,,,,,,,0x03,
6022,-748,62,-659,-560,-280,-700,,,,,,,0x03,
6032,-748,71,-655,-70,-140,-490,,,,,,,0x03,
6041,-749,73,-656,280,210,-420,,,,,,,0x03,
6051,-752,77,-663,630,350,-490,,,,,,,0x03,
6061,-753,82,-668,1190,350,-420,,,,,,,0x03,
6070,-755,90,-670,630,350,-280,,,,,,,0x03,
6080,-753,88,-670,-280,70,-350,,,,,,,0x03,
6090,-751,81,-667,-1610,-280,-350,,,,,,,0x03,
6099,-755,73,-665,-2240,-350,-490,,,,,,,0x03,
6109,-747,65,-667,-1890,-560,-630,,,,,,,0x03,
6119,-747,69,-669,-490,-630,-630,,,,,,,0x03,
6128,-750,78,-671,420,-560,-350,,,,,,,0x03,
6138,-748,88,-671,70,-840,-350,,,,,,,0x03,
6147,-746,84,-668,-1260,-910,-490,,,,,,,0x03,
6157,-745,75,-663,-2100,-910,-700,,,,,,,0x03,
6167,-744,69,-659,-1960,-770,-770,,,,,,,0x03,
6176,-744,66,-655,-1820,-490,-560,,,,,,,0x03,
6186,-742,68,-653,-2170,-140,-280,,,,,,,0x03,
6196,-738,71,-657,-1470,280,-70,,,,,,,0x03,
6205,-744,69,-662,-350,700,140,,,,,,,0x03,
6215,-751,72,-661,210,1120,210,,,,,,,0x03,
6225,-748,75,-663,350,1400,70,,,,,,,0x03,
6234,-746,79,-667,630,1540,-70,,,,,,,0x03,
6244,-749,82,-668,1260,1400,0,,,,,,,0x03,
6254,-749,90,-672,490,1330,-70,,,,,,,0x03,
6263,-749,87,-676,-490,1050,-70,,,,,,,0x03,
6273,-750,81,-677,-560,490,-280,,,,,,,0x03,
6283,-754,80,-675,-910,210,-420,,,,,,,0x03,
6292,-751,80,-670,0,-70,-490,,,,,,,0x03,
6302,-751,80,-666,350,-350,-420,,,,,,,0x03,
6312,-748,79,-666,840,-420,-420,,,,,,,0x03,
6321,-745,79,-665,1610,-420,-420,,,,,,,0x03,
6331,-746,82,-663,1750,-350,-350,,,,,,,0x03,
6340,-748,81,-662,1400,-280,-350,,,,,,,0x03,
6350,-752,76,-662,1050,-280,-350,,,,,,,0x03,
6360,-751,73,-665,980,-210,-280,,,,,,,0x03,
6369,-753,73,-667,1120,-140,-140,,,,,,,0x03,
6379,-755,77,-672,1330,-280,-70,,,,,,,0x03,
6389,-751,77,-675,1400,-350,-70,,,,,,,0x03,
6398,-746,79,-673,980,-560,-280,,,,,,,0x03,
6408,-742,76,-668,350,-630,-280,,,,,,,0x03,
6418,-737,71,-666,350,-700,-210,,,,,,,0x03,
6427,-739,68,-667,490,-630,-70,,,,,,,0x03,
6437,-743,69,-664,560,-490,-140,,,,,,,0x03,
6447,-746,70,-665,350,-350,-210,,,,,,,0x03,
6456,-746,71,-668,420,-280,-280,,,,,,,0x03,
6466,-748,73,-670,490,-210,-350,,,,,,,0x03,
6476,-752,76,-672,1050,-280,-280,,,,,,,0x03,
6485,-752,78,-673,1400,-420,-420,,,,,,,0x03,
6495,-752,80,-672,1400,-630,-420,,,,,,,0x03,
6505,-752,82,-671,1540,-910,-420,,,,,,,0x03,
6514,-749,80,-670,1610,-1050,-210,,,,,,,0x03,
6524,-746,80,-665,1260,-1050,-210,,,,,,,0x03,
6533,-748,75,-658,210,-1050,-210,,,,,,,0x03,
6543,-749,72,-661,-280,-980,-210,,,,,,,0x03,
6553,-744,66,-665,70,-910,-140,,,,,,,0x03,
6562,-746,72,-671,630,-770,-70,,,,,,,0x03,
6572,-752,76,-668,560,-700,-140,,,,,,,0x03,
6582,-752,78,-665,-420,-700,-210,,,,,,,0x03,
6591,-746,75,-662,-980,-700,-280,,,,,,,0x03,
6601,-745,72,-665,-980,-700,-210,,,,,,,0x03,
6611,-746,76,-666,-490,-630,-70,,,,,,,0x03,
6620,-746,80,-670,-210,-630,70,,,,,,,0x03,
6630,-746,78,-670,140,-630,210,,,,,,,0x03,
6640,-743,75,-671,490,-630,280,,,,,,,0x03,
6649,-742,72,-671,980,-700,280,,,,,,,0x03,
6659,-743,76,-673,910,-770,210,,,,,,,0x03,
6669,-742,74,-672,-70,-840,70,,,,,,,0x03,
6678,-739,70,-673,-910,-980,-70,,,,,,,0x03,
6688,-741,71,-673,-910,-1120,-210,,,,,,,0x03,
6698,-745,71,-667,-1540,-980,-140,,,,,,,0x03,
6707,-743,69,-666,-1400,-1050,-210,,,,,,,0x03,
6717,-743,71,-667,-630,-1050,-140,,,,,,,0x03,
6726,-748,76,-666,-140,-840,0,,,,,,,0x03,
6736,-748,79,-665,-70,-840,0,,,,,,,0x03,
6746,-748,80,-665,-210,-840,-70,,,,,,,0x03,
6755,-749,78,-665,-350,-770,-70,,,,,,,0x03,
6765,-755,77,-664,-630,-770,-70,,,,,,,0x03,
6775,-755,79,-667,-560,-910,-70,,,,,,,0x03,
6784,-756,78,-669,-700,-910,0,,,,,,,0x03,
6794,-759,79,-669,-1190,-1050,-70,,,,,,,0x03,
6804,-755,77,-665,-1400,-1190,-70,,,,,,,0x03,
6813,-749,71,-663,-1330,-1120,-140,,,,,,,0x03,
6823,-743,72,-661,-630,-1050,-140,,,,,,,0x03,
6833,-744,75,-663,70,-910,0,,,,,,,0x03,
6842,-748,78,-667,-70,-770,70,,,,,,,0x03,
6852,-747,77,-669,-210,-770,0,,,,,,,0x03,
6862,-745,77,-670,-840,-700,-70,,,,,,,0x03,
6871,-745,75,-668,-840,-840,-140,,,,,,,0x03,
6881,-744,75,-668,-350,-840,-210,,,,,,,0x03,
6891,-740,79,-665,70,-770,-210,,,,,,,0x03,
6900,-742,80,-664,280,-630,-140,,,,,,,0x03,
6910,-744,82,-666,420,-560,-70,,,,,,,0x03,
6920,-741,80,-670,0,-490,-140,,,,,,,0x03,
6929,-745,78,-671,-350,-560,-140,,,,,,,0x03,
6939,-749,79,-674,-210,-770,-210,,,,,,,0x03,
6948,-745,87,-676,-560,-980,-350,,,,,,,0x03,
6958,-746,89,-675,-1750,-1190,-420,,,,,,,0x03,
6968,-746,87,-671,-2730,-1400,-560,,,,,,,0x03,
6977,-744,82,-665,-3850,-1470,-700,,,,,,,0x03,
6987,-748,74,-663,-3990,-1540,-770,,,,,,,0x03,
6997,-750,69,-662,-3500,-1610,-770,,,,,,,0x03,
7006,-754,77,-664,-3220,-1470,-770,,,,,,,0x03,
7016,-757,83,-661,-2940,-1470,-770,,,,,,,0x03,
7026,-753,86,-658,-4410,-1260,-630,,,,,,,0x03,
7035,-752,75,-655,-5810,-1120,-560,,,,,,,0x03,
7045,-750,60,-654,-5670,-980,-420,,,,,,,0x03,
7055,-749,52,-656,-4480,-490,-140,,,,,,,0x03,
7064,-751,55,-661,-2730,-420,210,,,,,,,0x03,
7074,-753,72,-667,-700,-280,350,,,,,,,0x03,
7084,-754,86,-669,0,0,490,,,,,,,0x03,
7093,-750,88,-669,-280,0,490,,,,,,,0x03,
7103,-747,84,-665,-1400,-70,280,,,,,,,0x03,
7113,-747,79,-663,-1610,0,210,,,,,,,0x03,
7122,-747,74,-662,-1260,70,210,,,,,,,0x03,
7132,-749,77,-662,-1190,70,350,,,,,,,0x03,
7141,-753,78,-665,-490,140,350,,,,,,,0x03,
7151,-754,84,-669,-70,0,490,,,,,,,0x03,
7161,-755,89,-668,-70,-140,420,,,,,,,0x03,
7170,-754,89,-665,-630,-210,420,,,,,,,0x03,
7180,-752,88,-662,-700,-350,350,,,,,,,0x03,
7190,-747,83,-661,-280,-280,350,,,,,,,0x03,
7199,-747,84,-661,700,-210,490,,,,,,,0x03,
7209,-750,89,-660,1540,-70,700,,,,,,,0x03,
7219,-747,88,-661,1330,140,770,,,,,,,0x03,
7228,-745,83,-662,280,210,770,,,,,,,0x03,
7238,-745,75,-665,-70,280,770,,,,,,,0x03,
7248,-741,73,-669,140,280,770,,,,,,,0x03,
7257,-742,76,-674,980,210,840,,,,,,,0x03,
7267,-748,87,-677,2030,70,840,,,,,,,0x03,
7277,-744,95,-676,350,-70,700,,,,,,,0x03,
7286,-744,90,-671,-1820,-420,210,,,,,,,0x03,
7296,-746,77,-664,-3150,-490,-70,,,,,,,0x03,
7306,-746,72,-657,-3570,-420,-70,,,,,,,0x03,
7315,-747,71,-659,-2030,-210,210,,,,,,,0x03,
7325,-742,80,-668,560,-70,560,,,,,,,0x03,
7334,-743,94,-674,2030,140,840,,,,,,,0x03,
7344,-748,100,-674,1960,70,840,,,,,,,0x03,
7354,-746,97,-675,1050,-210,560,,,,,,,0x03,
7363,-742,91,-677,-70,-560,210,,,,,,,0x03,
7373,-742,86,-673,-1610,-700,-70,,,,,,,0x03,
7383,-743,80,-674,-2380,-980,-210,,,,,,,0x03,
7392,-739,72,-676,-1680,-1190,-350,,,,,,,0x03,
7402,-743,77,-671,-560,-1190,-350,,,,,,,0x03,
7412,-744,84,-664,70,-1120,-210,,,,,,,0x03,
7421,-742,88,-663,840,-1260,-210,,,,,,,0x03,
7431,-746,92,-662,560,-1120,-70,,,,,,,0x03,
7441,-750,94,-665,140,-1050,-140,,,,,,,0x03,
7450,-751,91,-663,-70,-1050,-210,,,,,,,0x03,
7460,-746,87,-663,70,-840,-70,,,,,,,0x03,
7470,-742,86,-665,1050,-770,-70,,,,,,,0x03,
7479,-745,86,-665,1750,-770,140,,,,,,,0x03,
7489,-747,86,-669,1960,-770,140,,,,,,,0x03,
7499,-745,83,-671,1820,-910,70,,,,,,,0x03,
7508,-745,80,-670,1610,-910,70,,,,,,,0x03,
7518,-748,79,-663,1260,-980,140,,,,,,,0x03,
7527,-743,77,-659,700,-770,0,,,,,,,0x03,
7537,-736,73,-665,1120,-700,0,,,,,,,0x03,
7547,-740,77,-676,2660,-770,70,,,,,,,0x03,
7556,-747,91,-682,3080,-910,210,,,,,,,0x03,
7566,-753,98,-680,1470,-1190,210,,,,,,,0x03,
7576,-750,91,-678,-420,-1680,-140,,,,,,,0x03,
7585,-744,81,-673,-2240,-2100,-630,,,,,,,0x03,
7595,-741,79,-673,-2730,-2310,-840,,,,,,,0x03,
7605,-739,77,-675,-2170,-2520,-630,,,,,,,0x03,
7614,-743,82,-675,-1470,-2660,-700,,,,,,,0x03,
7624,-743,86,-673,-910,-2870,-770,,,,,,,0x03,
7634,-742,91,-667,-1120,-2800,-840,,,,,,,0x03,
7643,-741,91,-655,-1820,-2800,-840,,,,,,,0x03,
7653,-739,83,-656,-2660,-2730,-840,,,,,,,0x03,
7663,-744,79,-657,-1890,-2660,-840,,,,,,,0x03,
7672,-755,80,-656,-1260,-2170,-700,,,,,,,0x03,
7682,-756,79,-655,-630,-1820,-560,,,,,,,0x03,
7692,-756,76,-653,560,-1540,-490,,,,,,,0x03,
7701,-759,78,-648,1470,-1190,-350,,,,,,,0x03,
7711,-759,84,-653,2100,-910,-140,,,,,,,0x03,
7721,-755,91,-660,2380,-910,0,,,,,,,0x03,
7730,-760,94,-668,1750,-770,70,,,,,,,0x03,
7740,-758,95,-671,980,-1050,-140,,,,,,,0x03,
7749,-755,89,-669,-490,-1260,-210,,,,,,,0x03,
7759,-754,79,-664,-1400,-1400,-280,,,,,,,0x03,
7769,-754,74,-662,-1190,-1540,-490,,,,,,,0x03,
7778,-753,77,-661,-770,-1540,-490,,,,,,,0x03,
7788,-754,83,-662,-490,-1540,-350,,,,,,,0x03,
7798,-755,88,-662,-840,-1540,-350,,,,,,,0x03,
7807,-753,84,-661,-1330,-1400,-350,,,,,,,0x03,
7817,-745,80,-655,-1400,-1260,-490,,,,,,,0x03,
7827,-744,76,-654,-1120,-980,-280,,,,,,,0x03,
7836,-749,74,-650,-350,-770,-140,,,,,,,0x03,
7846,-751,75,-653,0,-210,0,,,,,,,0x03,
7856,-748,81,-656,840,0,0,,,,,,,0x03,
7865,-750,88,-659,840,280,210,,,,,,,0x03,
7875,-757,90,-660,140,420,350,,,,,,,0x03,
7885,-754,86,-656,-420,420,280,,,,,,,0x03,
7894,-757,81,-652,-1120,630,280,,,,,,,0x03,
7904,-756,76,-651,-1050,910,420,,,,,,,0x03,
7914,-757,75,-654,-630,1120,420,,,,,,,0x03,
7923,-758,83,-660,350,1330,350,,,,,,,0x03,
7933,-758,92,-663,630,1400,490,,,,,,,0x03,
7942,-758,97,-660,-420,1470,560,,,,,,,0x03,
7952,-753,92,-662,-1260,1330,490,,,,,,,0x03,
7962,-747,82,-660,-1680,1400,560,,,,,,,0x03,
7971,-747,76,-663,-840,1540,700,,,,,,,0x03,
7981,-748,77,-666,420,1470,840,,,,,,,0x03,
7991,-747,83,-669,1050,1540,840,,,,,,,0x03,
8000,-745,83,-672,1120,1540,770,,,,,,,0x03,
8010,-748,86,-672,1260,1330,560,,,,,,,0x03,
8020,-750,85,-670,770,1190,560,,,,,,,0x03,
8029,-743,86,-668,350,1050,420,,,,,,,0x03,
8039,-743,81,-666,0,1120,350,,,,,,,0x03,
8049,-746,82,-670,980,910,350,,,,,,,0x03,
8058,-746,94,-674,1470,840,350,,,,,,,0x03,
8068,-746,96,-667,910,980,420,,,,,,,0x03,
8078,-746,89,-664,420,840,280,,,,,,,0x03,
8087,-741,86,-665,630,700,280,,,,,,,0x03,
8097,-740,88,-662,770,350,350,,,,,,,0x03,
8107,-735,95,-697,1820,-210,210,,,,,,,0x03,
8116,-720,101,-676,1330,490,210,,,,,,,0x03,
8126,-741,83,-683,-420,840,280,,,,,,,0x03,
8135,-729,79,-671,1330,-140,-70,,,,,,,0x03,
8145,-729,82,-676,420,140,-350,,,,,,,0x03,
8155,-743,69,-672,560,70,140,,,,,,,0x03,
8164,-737,80,-677,980,-350,-350,,,,,,,0x03,
8174,-741,86,-679,280,-420,-490,,,,,,,0x03,
8184,-741,88,-675,-560,-700,-700,,,,,,,0x03,
8193,-741,85,-674,-980,-840,-770,,,,,,,0x03,
8203,-742,84,-669,-840,-770,-770,,,,,,,0x03,
8213,-743,82,-666,-630,-840,-630,,,,,,,0x03,
8222,-743,87,-670,0,-840,-700,,,,,,,0x03,
8232,-745,90,-670,420,-770,-700,,,,,,,0x03,
8242,-749,96,-673,490,-840,-700,,,,,,,0x03,
8251,-751,97,-669,140,-910,-770,,,,,,,0x03,
8261,-752,91,-667,-700,-910,-770,,,,,,,0x03,
8271,-751,85,-667,-560,-1050,-770,,,,,,,0x03,
8280,-750,84,-666,-420,-1050,-700,,,,,,,0x03,
8290,-752,81,-667,-630,-980,-560,,,,,,,0x03,
8300,-750,79,-668,-350,-1050,-700,,,,,,,0x03,
8309,-748,78,-667,-490,-980,-700,,,,,,,0x03,
8319,-745,79,-665,-630,-840,-700,,,,,,,0x03,
8328,-743,77,-665,-630,-700,-770,,,,,,,0x03,
8338,-741,80,-670,-350,-700,-700,,,,,,,0x03,
8348,-742,83,-671,-560,-560,-630,,,,,,,0x03,
8357,-746,83,-669,-980,-560,-560,,,,,,,0x03,
8367,-746,81,-665,-1330,-560,-630,,,,,,,0x03,
8377,-743,78,-666,-1190,-490,-700,,,,,,,0x03,
8386,-746,85,-667,-630,-560,-700,,,,,,,0x03,
8396,-751,89,-668,-630,-490,-560,,,,,,,0x03,
8406,-750,88,-671,-910,-630,-560,,,,,,,0x03,
8415,-746,87,-675,-560,-840,-700,,,,,,,0x03,
8425,-748,91,-671,-350,-910,-630,,,,,,,0x03,
8435,-746,91,-670,-770,-1120,-630,,,,,,,0x03,
8444,-739,86,-670,-700,-1330,-700,,,,,,,0x03,
8454,-743,81,-667,-770,-1260,-630,,,,,,,0x03,
8464,-747,78,-665,-700,-1190,-560,,,,,,,0x03,
8473,-741,78,-668,-490,-1260,-560,,,,,,,0x03,
8483,-743,78,-674,70,-1260,-420,,,,,,,0x03,
8493,-749,84,-671,-140,-1260,-420,,,,,,,0x03,
8502,-745,88,-668,-1190,-1260,-560,,,,,,,0x03,
8512,-740,80,-664,-1890,-1260,-770,,,,,,,0x03,
8522,-737,76,-663,-1820,-1050,-910,,,,,,,0x03,
8531,-739,76,-660,-1190,-770,-770,,,,,,,0x03,
8541,-743,79,-663,70,-490,-350,,,,,,,0x03,
8550,-744,81,-666,490,-280,-140,,,,,,,0x03,
8560,-747,83,-664,420,-70,-210,,,,,,,0x03,
8570,-750,82,-668,560,-70,-210,,,,,,,0x03,
8579,-750,87,-667,840,-140,-350,,,,,,,0x03,
8589,-748,89,-671,140,-140,-280,,,,,,,0x03,
8599,-748,93,-675,0,-420,-280,,,,,,,0x03,
8608,-753,100,-671,-210,-700,-280,,,,,,,0x03,
8618,-737,67,-678,-770,-1050,-140,,,,,,,0x03,
8628,-755,96,-663,1610,1190,1050,,,,,,,0x03,
8637,-752,99,-660,560,0,-2380,,,,,,,0x03,
8647,-749,99,-658,-2730,-1890,-5110,,,,,,,0x03,
8657,-753,82,-663,-5320,-3290,-3640,,,,,,,0x03,
8666,-748,67,-669,-4480,-3500,-280,,,,,,,0x03,
8676,-740,63,-673,-1890,-2660,2310,,,,,,,0x03,
8686,-742,67,-672,1680,-1190,3290,,,,,,,0x03,
8695,-745,77,-670,5390,350,2310,,,,,,,0x03,
8705,-747,93,-665,7420,2100,-560,,,,,,,0x03,
8715,-741,92,-664,7490,3290,-3290,,,,,,,0x03,
8724,-741,89,-665,7070,4060,-3010,,,,,,,0x03,
8734,-745,78,-669,6790,4270,-1750,,,,,,,0x03,
8743,-748,68,-670,7210,4060,-140,,,,,,,0x03,
8753,-750,64,-673,7840,3360,1890,,,,,,,0x03,
8763,-748,69,-675,8680,2240,4340,,,,,,,0x03,
8772,-747,81,-674,7140,700,5740,,,,,,,0x03,
8782,-743,91,-678,4690,-1120,5250,,,,,,,0x03,
8792,-741,94,-677,1680,-3150,3430,,,,,,,0x03,
8801,-738,90,-680,-2520,-4550,1610,,,,,,,0x03,
8811,-731,81,-676,-4410,-5250,700,,,,,,,0x03,
8821,-735,72,-675,-4900,-5390,70,,,,,,,0x03,
8830,-744,77,-673,-3850,-4900,-1050,,,,,,,0x03,
8840,-749,82,-676,-2730,-4340,-1470,,,,,,,0x03,
8850,-752,89,-668,-2940,-3780,-1190,,,,,,,0x03,
8859,-751,91,-666,-4130,-3080,-1190,,,,,,,0x03,
8869,-743,86,-666,-4480,-2870,-1680,,,,,,,0x03,
8879,-740,82,-666,-4480,-2520,-1820,,,,,,,0x03,
8888,-745,79,-657,-4130,-1750,-1540,,,,,,,0x03,
8898,-745,82,-654,-3150,-770,-1610,,,,,,,0x03,
8908,-743,81,-653,-1960,210,-2030,,,,,,,0x03,
8917,-749,84,-656,-910,630,-2170,,,,,,,0x03,
8927,-753,89,-651,-280,1120,-3010,,,,,,,0x03,
8936,-753,88,-651,-980,1330,-3920,,,,,,,0x03,
8946,-750,78,-659,-840,840,-3710,,,,,,,0x03,
8956,-751,75,-668,-140,840,-2520,,,,,,,0x03,
8965,-760,78,-676,1190,1120,-1680,,,,,,,0x03,
8975,-754,81,-680,2030,1190,-1400,,,,,,,0x03,
8985,-746,80,-679,1820,910,-1190,,,,,,,0x03,
8994,-743,72,-674,1610,280,-700,,,,,,,0x03,
9004,-740,67,-670,1750,-490,-350,,,,,,,0x03,
9014,-736,64,-668,1610,-630,210,,,,,,,0x03,
9023,-737,62,-667,2240,-770,1120,,,,,,,0x03,
9033,-743,67,-668,2380,-1190,2310,,,,,,,0x03,
9043,-744,85,-669,1960,-1750,3010,,,,,,,0x03,
9052,-741,94,-664,560,-1960,1960,,,,,,,0x03,
9062,-737,91,-664,-840,-1680,1120,,,,,,,0x03,
9072,-742,83,-668,-700,-1330,1330,,,,,,,0x03,
9081,-744,80,-671,70,-770,1680,,,,,,,0x03,
9091,-746,84,-669,980,-210,1750,,,,,,,0x03,
9101,-747,80,-668,1400,210,1400,,,,,,,0x03,
9110,-748,77,-666,2240,280,840,,,,,,,0x03,
9120,-745,81,-660,2240,350,280,,,,,,,0x03,
9129,-745,81,-662,1750,490,-70,,,,,,,0x03,
9139,-744,80,-667,910,420,-210,,,,,,,0x03,
9149,-748,75,-677,1190,560,-140,,,,,,,0x03,
9158,-754,78,-678,1400,770,70,,,,,,,0x03,
9168,-754,86,-676,980,630,-350,,,,,,,0x03,
9178,-753,87,-675,-210,280,-770,,,,,,,0x03,
9187,-749,85,-671,-1540,0,-700,,,,,,,0x03,
9197,-748,82,-672,-2240,-350,-910,,,,,,,0x03,
9207,-746,84,-669,-2520,-560,-1400,,,,,,,0x03,
9216,-744,83,-668,-2590,-770,-1470,,,,,,,0x03,
9226,-739,80,-663,-2030,-630,-1470,,,,,,,0x03,
9236,-739,80,-664,-840,-350,-1190,,,,,,,0x03,
9245,-744,80,-664,280,-140,-910,,,,,,,0x03,
9255,-745,82,-671,560,0,-840,,,,,,,0x03,
9265,-743,80,-674,210,0,-910,,,,,,,0x03,
9274,-742,79,-678,-70,-140,-770,,,,,,,0x03,
9284,-739,76,-676,-560,-350,-630,,,,,,,0x03,
9294,-742,72,-673,-420,-350,-560,,,,,,,0x03,
9303,-739,72,-674,-210,-630,-560,,,,,,,0x03,
9313,-739,76,-672,-840,-1120,-630,,,,,,,0x03,
9323,-740,76,-671,-1260,-1330,-70,,,,,,,0x03,
9332,-742,76,-672,-770,-1400,560,,,,,,,0x03,
9342,-743,78,-673,-490,-1260,630,,,,,,,0x03,
9351,-747,79,-672,-140,-1050,560,,,,,,,0x03,
9361,-747,81,-673,420,-1050,350,,,,,,,0x03,
9371,-748,84,-671,70,-980,210,,,,,,,0x03,
9380,-749,82,-667,-280,-980,280,,,,,,,0x03,
9390,-748,79,-667,420,-980,350,,,,,,,0x03,
9400,-748,81,-665,1330,-770,490,,,,,,,0x03,
9409,-747,83,-666,1680,-490,560,,,,,,,0x03,
9419,-744,82,-669,2170,-490,420,,,,,,,0x03,
9429,-740,82,-674,2310,-420,490,,,,,,,0x03,
9438,-737,82,-675,2380,-420,490,,,,,,,0x03,
9448,-737,81,-674,1540,-420,490,,,,,,,0x03,
9458,-735,75,-675,770,-560,420,,,,,,,0x03,
9467,-731,68,-681,770,-700,350,,,,,,,0x03,
9477,-737,71,-688,1120,-1050,210,,,,,,,0x03,
9487,-738,76,-691,1120,-1470,70,,,,,,,0x03,
9496,-731,82,-692,490,-1960,-140,,,,,,,0x03,
9506,-728,81,-685,-420,-2520,-350,,,,,,,0x03,
9516,-730,79,-683,-1470,-3010,-420,,,,,,,0x03,
9525,-730,77,-682,-2170,-3500,-490,,,,,,,0x03,
9535,-732,74,-684,-2940,-3920,-630,,,,,,,0x03,
9544,-734,75,-684,-3430,-4410,-770,,,,,,,0x03,
9554,-733,75,-691,-3570,-4830,-770,,,,,,,0x03,
9564,-733,83,-689,-3710,-5390,-700,,,,,,,0x03,
9573,-735,76,-688,-4340,-5880,-560,,,,,,,0x03,
9583,-734,75,-683,-4830,-6510,-840,,,,,,,0x03,
9593,-739,80,-675,-4970,-7000,-910,,,,,,,0x03,
9602,-744,80,-670,-5600,-7210,-700,,,,,,,0x03,
9612,-744,75,-665,-7210,-7280,-770,,,,,,,0x03,
9622,-744,71,-670,-6720,-7420,-1050,,,,,,,0x03,
9631,-748,73,-669,-5530,-7420,-910,,,,,,,0x03,
9641,-754,82,-665,-4900,-7350,-700,,,,,,,0x03,
9651,-753,87,-659,-4620,-7420,-700,,,,,,,0x03,
9660,-751,84,-656,-5180,-7280,-770,,,,,,,0x03,
9670,-748,78,-657,-4550,-7280,-770,,,,,,,0x03,
9680,-750,83,-661,-2870,-7280,-630,,,,,,,0x03,
9689,-753,95,-660,-1960,-7210,-490,,,,,,,0x03,
9699,-754,99,-657,-2520,-7070,-280,,,,,,,0x03,
9709,-754,91,-653,-3220,-7070,-420,,,,,,,0x03,
9718,-753,83,-650,-3640,-6930,-630,,,,,,,0x03,
9728,-754,81,-652,-3290,-6790,-840,,,,,,,0x03,
9737,-755,86,-655,-2730,-6790,-980,,,,,,,0x03,
9747,-763,92,-655,-3220,-6720,-980,,,,,,,0x03,
9757,-764,95,-652,-4340,-6860,-1120,,,,,,,0x03,
9766,-767,91,-644,-6440,-6790,-1190,,,,,,,0x03,
9776,-768,82,-638,-7980,-6650,-1330,,,,,,,0x03,
9786,-767,76,-630,-8470,-6300,-1680,,,,,,,0x03,
9795,-773,83,-627,-8680,-5880,-1890,,,,,,,0x03,
9805,-777,91,-625,-8120,-5670,-1960,,,,,,,0x03,
9815,-780,103,-626,-8470,-5320,-1820,,,,,,,0x03,
9824,-784,112,-626,-9100,-5040,-1680,,,,,,,0x03,
9834,-785,115,-624,-9800,-4900,-1610,,,,,,,0x03,
9844,-784,115,-622,-10990,-4550,-1470,,,,,,,0x03,
9853,-786,105,-621,-10640,-4340,-1470,,,,,,,0x03,
9863,-787,104,-623,-9100,-4060,-1330,,,,,,,0x03,
9873,-787,113,-622,-7420,-3710,-1120,,,,,,,0x03,
9882,-786,114,-621,-6440,-3430,-840,,,,,,,0x03,
9892,-785,119,-624,-5460,-3360,-700,,,,,,,0x03,
9902,-784,121,-617,-5670,-3080,-350,,,,,,,0x03,
9911,-783,113,-618,-6300,-2660,0,,,,,,,0x03,
9921,-776,97,-621,-5460,-2450,210,,,,,,,0x03,
9931,-782,81,-623,-4340,-2030,490,,,,,,,0x03,
9940,-785,74,-628,-2590,-1610,560,,,,,,,0x03,
9950,-776,77,-634,-140,-1260,420,,,,,,,0x03,
9959,-774,86,-639,910,-980,350,,,,,,,0x03,
9969,-770,96,-646,1260,-1050,280,,,,,,,0x03,
9979,-767,102,-649,770,-1260,140,,,,,,,0x03,
9988,-765,100,-647,-1050,-1400,70,,,,,,,0x03,
9998,-760,99,-644,-1960,-1680,-210,,,,,,,0x03,
10008,-755,98,-642,-1960,-1890,-490,,,,,,,0x03,
10017,-755,98,-642,-2240,-1820,-140,,,,,,,0x03,
10027,-759,101,-643,-1540,-1960,-70,,,,,,,0x03,
10037,-762,107,-643,-770,-2030,-420,,,,,,,0x03,
10046,-763,114,-638,-840,-1960,-490,,,,,,,0x03,
10056,-765,114,-634,-1050,-2030,-700,,,,,,,0x03,
10066,-768,109,-631,-1120,-2100,-630,,,,,,,0x03,
10075,-771,107,-633,-1470,-2030,-350,,,,,,,0x03,
10085,-778,101,-632,-910,-2030,-490,,,,,,,0x03,
10095,-780,102,-632,-770,-1890,-560,,,,,,,0x03,
10104,-782,102,-627,-1190,-1750,-560,,,,,,,0x03,
10114,-783,98,-625,-1540,-1680,-770,,,,,,,0x03,
10124,-782,98,-622,-1400,-1540,-770,,,,,,,0x03,
10133,-784,102,-619,-1470,-1190,-770,,,,,,,0x03,
10143,-787,105,-618,-1400,-910,-770,,,,,,,0x03,
10152,-787,109,-620,-910,-490,-630,,,,,,,0x03,
10162,-793,108,-621,-350,-70,-350,,,,,,,0x03,
10172,-796,112,-620,70,210,-280,,,,,,,0x03,
10181,-791,116,-615,280,420,-350,,,,,,,0x03,
10191,-791,110,-614,-280,840,-280,,,,,,,0x03,
10201,-789,103,-614,700,1190,-140,,,,,,,0x03,
10210,-786,105,-620,2660,1610,-70,,,,,,,0x03,
10220,-788,114,-618,3640,2100,140,,,,,,,0x03,
10230,-783,109,-617,4410,2590,420,,,,,,,0x03,
10239,-777,104,-615,5320,2940,490,,,,,,,0x03,
10249,-780,100,-613,6230,3430,560,,,,,,,0x03,
10259,-787,104,-616,7280,3850,770,,,,,,,0x03,
10268,-784,103,-627,8400,4270,980,,,,,,,0x03,
10278,-784,106,-637,9100,4550,980,,,,,,,0x03,
10288,-788,111,-635,8050,4760,980,,,,,,,0x03,
10297,-782,111,-633,4340,4830,840,,,,,,,0x03,
10307,-772,98,-636,630,4690,630,,,,,,,0x03,
10317,-767,88,-641,-3710,4690,490,,,,,,,0x03,
10326,-768,79,-647,-7000,4620,70,,,,,,,0x03,
10336,-762,71,-661,-7140,4410,-420,,,,,,,0x03,
10345,-753,79,-664,-5180,4200,-560,,,,,,,0x03,
10355,-750,100,-657,-3500,4200,-560,,,,,,,0x03,
10365,-745,107,-654,-2310,3990,-490,,,,,,,0x03,
10374,-740,108,-656,-840,3500,-280,,,,,,,0x03,
10384,-741,110,-666,770,3220,140,,,,,,,0x03,
10394,-735,110,-667,2240,2940,210,,,,,,,0x03,
10403,-725,110,-663,2030,2940,-70,,,,,,,0x03,
10413,-704,98,-659,1890,3080,-350,,,,,,,0x03,
10423,-706,84,-659,3570,2870,-560,,,,,,,0x03,
10432,-724,84,-659,5390,3010,-280,,,,,,,0x03,
10442,-732,86,-668,6160,3010,-210,,,,,,,0x03,
10452,-732,88,-676,6720,2730,-560,,,,,,,0x03,
10461,-734,93,-678,6370,2520,-840,,,,,,,0x03,
10471,-739,102,-674,6230,1960,-910,,,,,,,0x03,
10481,-742,107,-670,5460,1330,-840,,,,,,,0x03,
10490,-747,98,-666,4200,770,-770,,,,,,,0x03,
10500,-753,90,-667,3990,280,-910,,,,,,,0x03,
10510,-754,91,-669,4690,-210,-980,,,,,,,0x03,
10519,-759,99,-670,5180,-700,-770,,,,,,,0x03,
10529,-763,100,-670,5110,-1260,-770,,,,,,,0x03,
10538,-762,98,-665,3990,-1750,-770,,,,,,,0x03,
10548,-764,97,-660,2380,-2100,-840,,,,,,,0x03,
10558,-759,88,-660,980,-2660,-1190,,,,,,,0x03,
10567,-761,87,-658,-420,-2870,-1330,,,,,,,0x03,
10577,-758,85,-660,-1890,-3010,-1610,,,,,,,0x03,
10587,-751,88,-661,-3430,-3430,-1890,,,,,,,0x03,
10596,-753,86,-663,-5180,-3780,-1960,,,,,,,0x03,
10606,-756,82,-663,-6440,-4200,-2030,,,,,,,0x03,
10616,-757,81,-660,-6650,-4550,-2100,,,,,,,0x03,
10625,-755,88,-654,-5880,-4690,-2100,,,,,,,0x03,
10635,-756,96,-650,-5530,-4830,-1960,,,,,,,0x03,
10645,-765,104,-648,-4410,-4970,-1890,,,,,,,0x03,
10654,-768,104,-646,-4480,-4900,-1610,,,,,,,0x03,
10664,-766,101,-644,-5180,-4970,-1610,,,,,,,0x03,
10674,-761,91,-640,-5040,-4900,-1610,,,,,,,0x03,
10683,-756,90,-642,-4060,-4760,-1610,,,,,,,0x03,
10693,-758,97,-636,-2940,-4620,-1470,,,,,,,0x03,
10703,-760,99,-633,-3150,-4130,-1190,,,,,,,0x03,
10712,-756,96,-634,-3150,-3990,-1050,,,,,,,0x03,
10722,-758,86,-636,-2310,-3570,-840,,,,,,,0x03,
10732,-760,87,-645,-280,-3430,-630,,,,,,,0x03,
10741,-766,96,-649,2030,-3430,-490,,,,,,,0x03,
10751,-771,106,-642,2240,-3220,-490,,,,,,,0x03,
10760,-768,106,-633,1190,-3220,-560,,,,,,,0x03,
10770,-767,92,-630,560,-3220,-560,,,,,,,0x03,
10780,-771,82,-631,560,-2940,-210,,,,,,,0x03,
10789,-776,80,-634,1190,-2730,0,,,,,,,0x03,
10799,-769,83,-639,1190,-2450,0,,,,,,,0x03,
10809,-772,87,-638,1330,-2380,-140,,,,,,,0x03,
10818,-783,91,-632,350,-2170,-70,,,,,,,0x03,
10828,-782,96,-627,-1260,-2100,0,,,,,,,0x03,
10838,-783,90,-631,-2380,-2100,-70,,,,,,,0x03,
10847,-793,93,-635,-2450,-2100,-70,,,,,,,0x03,
10857,-801,102,-641,-2310,-2240,0,,,,,,,0x03,
10867,-797,117,-640,-2520,-2520,0,,,,,,,0x03,
10876,-792,122,-631,-4620,-2520,140,,,,,,,0x03,
10886,-789,114,-626,-6440,-2660,140,,,,,,,0x03,
10896,-779,102,-628,-6370,-2730,210,,,,,,,0x03,
10905,-777,100,-625,-5460,-2380,350,,,,,,,0x03,
10915,-780,100,-616,-4970,-1820,490,,,,,,,0x03,
10925,-772,102,-614,-4900,-1330,630,,,,,,,0x03,
10934,-768,98,-615,-3850,-840,700,,,,,,,0x03,
10944,-772,95,-613,-3570,140,910,,,,,,,0x03,
10953,-775,94,-611,-3850,980,700,,,,,,,0x03,
10963,-775,85,-617,-2800,1400,630,,,,,,,0x03,
10973,-780,85,-623,-1400,1960,770,,,,,,,0x03,
10982,-786,93,-622,140,2660,1120,,,,,,,0x03,
10992,-783,100,-626,770,3080,1330,,,,,,,0x03,
11002,-778,103,-630,1540,3430,1400,,,,,,,0x03,
11011,-780,107,-636,1890,3570,1400,,,,,,,0x03,
11021,-779,116,-638,1750,3640,1260,,,,,,,0x03,
11031,-776,117,-641,980,3430,1190,,,,,,,0x03,
11040,-773,117,-646,-70,3150,1260,,,,,,,0x03,
11050,-767,109,-647,-770,2940,1400,,,,,,,0x03,
11060,-768,100,-650,-420,2730,1330,,,,,,,0x03,
11069,-768,97,-647,490,2520,1190,,,,,,,0x03,
11079,-762,96,-647,840,2450,980,,,,,,,0x03,
11089,-760,91,-641,980,2380,980,,,,,,,0x03,
11098,-764,87,-643,840,2380,980,,,,,,,0x03,
11108,-759,91,-642,1190,2380,910,,,,,,,0x03,
11118,-756,94,-639,630,2730,980,,,,,,,0x03,
11127,-758,94,-638,0,3010,980,,,,,,,0x03,
11137,-758,93,-638,280,3290,910,,,,,,,0x03,
11146,-762,97,-637,420,3570,980,,,,,,,0x03,
11156,-763,102,-637,770,3920,980,,,,,,,0x03,
11166,-764,105,-635,980,4200,1190,,,,,,,0x03,
11175,-766,107,-634,1260,4480,1190,,,,,,,0x03,
11185,-769,111,-635,1820,4690,1260,,,,,,,0x03,
11195,-775,119,-642,2660,4830,1330,,,,,,,0x03,
11204,-765,127,-640,2940,5040,1470,,,,,,,0x03,
11214,-763,128,-642,1820,5250,1540,,,,,,,0x03,
11224,-758,117,-651,1890,5040,1750,,,,,,,0x03,
11233,-754,110,-658,2590,4900,1820,,,,,,,0x03,
11243,-758,102,-663,2940,4830,1960,,,,,,,0x03,
11253,-757,93,-669,4060,4480,1820,,,,,,,0x03,
11262,-752,93,-671,4900,4130,1610,,,,,,,0x03,
11272,-755,98,-664,4550,3850,1470,,,,,,,0x03,
11282,-750,97,-663,2800,3710,1120,,,,,,,0x03,
11291,-739,94,-667,2030,3290,840,,,,,,,0x03,
11301,-734,91,-673,1820,3010,770,,,,,,,0x03,
11311,-737,95,-673,1960,2730,770,,,,,,,0x03,
11320,-738,93,-668,910,2800,770,,,,,,,0x03,
11330,-734,83,-663,700,2730,630,,,,,,,0x03,
11339,-727,80,-667,2100,2730,420,,,,,,,0x03,
11349,-729,93,-670,4410,2870,420,,,,,,,0x03,
11359,-735,115,-674,4970,2940,490,,,,,,,0x03,
11368,-735,124,-676,3360,2660,420,,,,,,,0x03,
11378,-732,126,-676,1120,2170,70,,,,,,,0x03,
11388,-733,120,-672,-2310,1890,-70,,,,,,,0x03,
11397,-731,103,-676,-3850,1400,-70,,,,,,,0x03,
11407,-733,87,-675,-2730,980,-70,,,,,,,0x03,
11417,-744,85,-671,-2240,980,0,,,,,,,0x03,
11426,-744,86,-675,-350,630,-140,,,,,,,0x03,
11436,-744,99,-675,1540,280,-140,,,,,,,0x03,
11446,-750,110,-673,1330,210,0,,,,,,,0x03,
11455,-746,115,-669,70,-210,-210,,,,,,,0x03,
11465,-738,110,-670,-1190,-630,-280,,,,,,,0x03,
11475,-744,100,-670,-1820,-770,-140,,,,,,,0x03,
11484,-746,99,-670,-980,-910,-350,,,,,,,0x03,
11494,-744,101,-672,0,-1190,-420,,,,,,,0x03,
11504,-749,101,-670,700,-1190,-210,,,,,,,0x03,
11513,-749,105,-670,1400,-1260,-140,,,,,,,0x03,
11523,-744,111,-669,1470,-1470,-490,,,,,,,0x03,
11533,-747,108,-666,560,-1470,-560,,,,,,,0x03,
11542,-750,106,-664,-210,-1680,-630,,,,,,,0x03,
11552,-741,97,-662,-630,-1750,-560,,,,,,,0x03,
11561,-743,91,-660,-560,-1260,0,,,,,,,0x03,
11571,-741,90,-661,560,-1330,-630,,,,,,,0x03,
11581,-743,93,-661,980,-1260,-840,,,,,,,0x03,
11590,-752,96,-662,630,-980,-630,,,,,,,0x03,
11600,-751,100,-662,490,-980,-980,,,,,,,0x03,
11610,-751,106,-658,-630,-1120,-1190,,,,,,,0x03,
11619,-754,108,-656,-1960,-1190,-1680,,,,,,,0x03,
11629,-749,107,-660,-2310,-1610,-2030,,,,,,,0x03,
11639,-750,108,-663,-2870,-2030,-2030,,,,,,,0x03,
11648,-755,107,-666,-2730,-2520,-1960,,,,,,,0x03,
11658,-751,106,-668,-1890,-2660,-1400,,,,,,,0x03,
11668,-746,107,-663,-1050,-2590,-910,,,,,,,0x03,
11677,-748,107,-661,-1260,-2450,-700,,,,,,,0x03,
11687,-752,102,-656,-1610,-3080,-700,,,,,,,0x03,
11697,-751,99,-655,-2730,-3710,-840,,,,,,,0x03,
11706,-755,98,-654,-3010,-3570,-910,,,,,,,0x03,
11716,-757,97,-654,-2870,-3360,-1260,,,,,,,0x03,
11726,-755,100,-653,-3290,-2940,-1260,,,,,,,0x03,
11735,-750,99,-653,-2590,-2660,-1050,,,,,,,0x03,
11745,-744,97,-654,-1400,-2240,-210,,,,,,,0x03,
11754,-762,110,-647,-490,-1400,-980,,,,,,,0x03,
11764,-764,97,-645,-1960,-2660,-2240,,,,,,,0x03,
11774,-756,90,-653,-1820,-3640,630,,,,,,,0x03,
11783,-758,96,-654,1050,-2450,2520,,,,,,,0x03,
11793,-770,111,-653,2800,-840,1330,,,,,,,0x03,
11803,-765,118,-653,2170,-420,-350,,,,,,,0x03,
11812,-755,108,-654,280,-630,-560,,,,,,,0x03,
11822,-753,100,-656,-560,-630,-700,,,,,,,0x03,
11832,-748,96,-658,0,-420,-980,,,,,,,0x03,
11841,-747,93,-662,140,-980,-1050,,,,,,,0x03,
11851,-749,93,-664,560,-1400,-700,,,,,,,0x03,
11861,-751,95,-660,1820,-1050,-280,,,,,,,0x03,
11870,-753,108,-655,2520,-770,-210,,,,,,,0x03,
11880,-744,111,-652,1750,-910,-420,,,,,,,0x03,
11890,-743,106,-655,1260,-700,-350,,,,,,,0x03,
11899,-748,94,-655,1610,-420,-280,,,,,,,0x03,
11909,-748,90,-656,1820,-140,-210,,,,,,,0x03,
11919,-752,91,-661,3290,-210,-280,,,,,,,0x03,
11928,-754,94,-661,3570,-210,-210,,,,,,,0x03,
11938,-755,102,-659,3010,-280,-420,,,,,,,0x03,
11947,-754,106,-655,2310,-490,-560,,,,,,,0x03,
11957,-752,103,-652,350,-420,-490,,,,,,,0x03,
11967,-750,90,-649,-1470,-560,-630,,,,,,,0x03,
11976,-755,81,-651,-1050,-490,-630,,,,,,,0x03,
11986,-754,86,-656,420,-280,-630,,,,,,,0x03,
11996,-759,99,-657,1190,-140,-560,,,,,,,0x03,
12005,-764,108,-658,840,-210,-420,,,,,,,0x03,
12015,-765,108,-655,70,-350,-350,,,,,,,0x03,
12025,-765,105,-652,-700,-280,-350,,,,,,,0x03,
12034,-762,103,-650,-700,-420,-420,,,,,,,0x03,
12044,-759,101,-653,-350,-350,-280,,,,,,,0x03,
12054,-762,99,-657,70,-350,0,,,,,,,0x03,
12063,-761,95,-657,840,-350,210,,,,,,,0x03,
12073,-755,94,-657,1050,-350,280,,,,,,,0x03,
12083,-749,93,-655,1050,-350,350,,,,,,,0x03,
12092,-751,92,-652,420,-280,350,,,,,,,0x03,
12102,-754,89,-653,-210,-280,280,,,,,,,0x03,
12112,-750,91,-657,-140,-210,210,,,,,,,0x03,
12121,-748,102,-661,-140,-210,210,,,,,,,0x03,
12131,-751,108,-663,-350,-280,210,,,,,,,0x03,
12140,-751,108,-662,-840,-280,280,,,,,,,0x03,
12150,-747,103,-663,-770,-560,210,,,,,,,0x03,
12160,-750,100,-665,0,-770,280,,,,,,,0x03,
12169,-753,100,-653,350,-700,280,,,,,,,0x03,
12179,-745,101,-670,560,-840,210,,,,,,,0x03,
12189,-738,96,-639,-210,-210,280,,,,,,,0x03,
12198,-751,85,-665,560,-350,210,,,,,,,0x03,
12208,-746,95,-650,1610,-140,280,,,,,,,0x03,
12218,-750,104,-661,1540,140,70,,,,,,,0x03,
12227,-755,100,-664,770,-140,280,,,,,,,0x03,
12237,-748,108,-660,1050,-210,0,,,,,,,0x03,
12247,-755,99,-665,140,-140,140,,,,,,,0x03,
12256,-751,103,-653,420,-280,-70,,,,,,,0x03,
12266,-754,97,-659,-280,-420,-70,,,,,,,0x03,
12276,-753,94,-659,0,-420,70,,,,,,,0x03,
12285,-755,93,-663,560,-560,70,,,,,,,0x03,
12295,-759,98,-658,140,-490,0,,,,,,,0x03,
12305,-753,98,-660,-560,-560,-140,,,,,,,0x03,
12314,-744,95,-660,-770,-700,-280,,,,,,,0x03,
12324,-751,98,-658,-1260,-770,-280,,,,,,,0x03,
12334,-750,102,-655,-1610,-910,-280,,,,,,,0x03,
12343,-742,103,-649,-2030,-840,-350,,,,,,,0x03,
12353,-745,96,-655,-1820,-840,-280,,,,,,,0x03,
12362,-749,96,-653,-630,-490,-140,,,,,,,0x03,
12372,-751,101,-662,840,-280,70,,,,,,,0x03,
12382,-755,104,-665,1120,-140,210,,,,,,,0x03,
12391,-757,103,-666,1260,-210,140,,,,,,,0x03,
12401,-756,98,-665,490,-490,0,,,,,,,0x03,
12411,-754,98,-663,210,-700,0,,,,,,,0x03,
12420,-752,94,-661,0,-910,0,,,,,,,0x03,
12430,-755,94,-661,0,-910,0,,,,,,,0x03,
12440,-755,96,-661,210,-980,0,,,,,,,0x03,
12449,-755,99,-659,210,-910,0,,,,,,,0x03,
12459,-753,102,-656,70,-910,0,,,,,,,0x03,
12469,-753,102,-652,-630,-770,0,,,,,,,0x03,
12478,-755,97,-653,-700,-700,0,,,,,,,0x03,
12488,-752,94,-654,-350,-560,0,,,,,,,0x03,
12498,-751,95,-653,-140,-350,-70,,,,,,,0x03,
12507,-749,98,-656,70,-280,0,,,,,,,0x03,
12517,-746,102,-658,280,-210,0,,,,,,,0x03,
12527,-748,106,-662,630,-280,0,,,,,,,0x03,
12536,-750,105,-662,560,-280,0,,,,,,,0x03,
12546,-749,105,-662,560,-420,-70,,,,,,,0x03,
12555,-748,102,-661,560,-560,-70,,,,,,,0x03,
12565,-749,101,-663,770,-630,-70,,,,,,,0x03,
12575,-751,101,-665,1050,-840,-70,,,,,,,0x03,
12584,-753,103,-663,630,-1050,-70,,,,,,,0x03,
12594,-754,95,-663,-210,-1120,-140,,,,,,,0x03,
12604,-751,86,-662,-140,-1190,-210,,,,,,,0x03,
12613,-751,89,-658,140,-1190,-350,,,,,,,0x03,
12623,-755,93,-656,-210,-1050,-350,,,,,,,0x03,
12633,-753,98,-655,-280,-1050,-490,,,,,,,0x03,
12642,-751,102,-653,-980,-840,-560,,,,,,,0x03,
12652,-750,102,-653,-1470,-630,-420,,,,,,,0x03,
12662,-752,101,-652,-770,-630,-420,,,,,,,0x03,
12671,-755,103,-653,-630,-350,-210,,,,,,,0x03,
12681,-757,100,-654,280,-280,-70,,,,,,,0x03,
12691,-755,102,-655,1190,-140,0,,,,,,,0x03,
12700,-757,104,-656,1330,0,70,,,,,,,0x03,
12710,-754,101,-660,1750,-70,140,,,,,,,0x03,
12720,-752,102,-664,1540,-140,0,,,,,,,0x03,
12729,-752,99,-664,700,-280,0,,,,,,,0x03,
12739,-751,94,-663,70,-350,-70,,,,,,,0x03,
12748,-748,90,-664,-140,-630,-140,,,,,,,0x03,
12758,-747,90,-667,210,-770,-210,,,,,,,0x03,
12768,-750,95,-667,420,-910,-140,,,,,,,0x03,
12777,-750,101,-670,350,-1120,-140,,,,,,,0x03,
12787,-747,104,-667,350,-1470,-280,,,,,,,0x03,
12797,-756,101,-660,-700,-1540,-280,,,,,,,0x03,
12806,-753,105,-655,-1050,-1750,-490,,,,,,,0x03,
12816,-752,99,-654,-1470,-1750,-350,,,,,,,0x03,
12826,-753,92,-651,-1190,-1540,-280,,,,,,,0x03,
12835,-751,93,-653,-420,-1330,-280,,,,,,,0x03,
12845,-749,96,-654,-70,-1120,-210,,,,,,,0x03,
12855,-750,96,-655,-280,-980,-140,,,,,,,0x03,
12864,-750,98,-656,-210,-910,-70,,,,,,,0x03,
12874,-747,97,-658,-420,-770,-70,,,,,,,0x03,
12884,-747,100,-658,-280,-770,-280,,,,,,,0x03,
12893,-747,101,-658,-140,-630,-280,,,,,,,0x03,
12903,-747,103,-658,140,-700,-140,,,,,,,0x03,
12913,-750,101,-662,350,-700,-70,,,,,,,0x03,
12922,-753,97,-662,420,-770,0,,,,,,,0x03,
12932,-753,94,-662,0,-840,-70,,,,,,,0x03,
12941,-751,94,-662,490,-1050,-210,,,,,,,0x03,
12951,-754,96,-663,210,-1120,-210,,,,,,,0x03,
12961,-755,100,-663,350,-1330,-280,,,,,,,0x03,
12970,-753,103,-661,0,-1400,-350,,,,,,,0x03,
12980,-754,100,-653,-1050,-1400,-280,,,,,,,0x03,
12990,-753,93,-649,-1470,-1260,-420,,,,,,,0x03,
12999,-755,90,-651,-1050,-1120,-420,,,,,,,0x03,
13009,-754,91,-653,-630,-910,-350,,,,,,,0x03,
13019,-759,98,-656,-560,-770,-210,,,,,,,0x03,
13028,-758,104,-660,420,-840,-70,,,,,,,0x03,
13038,-754,108,-662,210,-840,-70,,,,,,,0x03,
13048,-754,111,-656,-70,-980,-280,,,,,,,0x03,
13057,-751,103,-650,-910,-910,-140,,,,,,,0x03,
13067,-750,93,-652,-840,-910,-70,,,,,,,0x03,
13077,-751,87,-654,-140,-700,70,,,,,,,0x03,
13086,-753,90,-653,210,-490,0,,,,,,,0x03,
13096,-753,94,-656,490,-350,70,,,,,,,0x03,
13106,-751,97,-658,560,-280,0,,,,,,,0x03,
13115,-757,103,-660,210,-420,70,,,,,,,0x03,
13125,-758,105,-662,-280,-560,-70,,,,,,,0x03,
13135,-755,105,-663,-630,-700,-210,,,,,,,0x03,
13144,-755,102,-661,-910,-840,-210,,,,,,,0x03,
13154,-755,101,-660,-700,-1050,-210,,,,,,,0x03,
13163,-752,100,-657,-560,-1120,-140,,,,,,,0x03,
13173,-750,95,-653,-770,-980,-70,,,,,,,0x03,
13183,-745,92,-651,-280,-840,-140,,,,,,,0x03,
13192,-747,94,-655,280,-700,0,,,,,,,0x03,
13202,-753,99,-658,490,-630,70,,,,,,,0x03,
13212,-754,100,-657,-210,-490,70,,,,,,,0x03,
13221,-747,97,-658,-210,-490,-70,,,,,,,0x03,
13231,-748,98,-659,490,-420,-140,,,,,,,0x03,
13241,-751,106,-656,770,-280,-70,,,,,,,0x03,
13250,-752,106,-658,630,-420,0,,,,,,,0x03,
13260,-750,102,-659,490,-490,0,,,,,,,0x03,
13270,-756,97,-656,350,-420,0,,,,,,,0x03,
13279,-761,93,-652,280,-420,0,,,,,,,0x03,
13289,-757,91,-651,560,-420,70,,,,,,,0x03,
13299,-757,93,-648,840,-350,140,,,,,,,0x03,
13308,-759,99,-654,700,-350,140,,,,,,,0x03,
13318,-754,105,-664,1050,-350,140,,,,,,,0x03,
13328,-757,106,-660,490,-70,210,,,,,,,0x03,
13337,-762,102,-658,-420,-70,70,,,,,,,0x03,
13347,-753,99,-660,210,-420,-70,,,,,,,0x03,
13356,-751,97,-660,210,-350,70,,,,,,,0x03,
13366,-756,97,-659,210,-420,210,,,,,,,0x03,
13376,-753,96,-661,420,-560,140,,,,,,,0x03,
13385,-750,96,-663,490,-630,140,,,,,,,0x03,
13395,-747,99,-657,770,-630,70,,,,,,,0x03,
13405,-746,101,-655,210,-490,0,,,,,,,0x03,
13414,-747,97,-654,350,-560,0,,,,,,,0x03,
13424,-750,96,-654,420,-280,140,,,,,,,0x03,
13434,-751,97,-654,490,-210,140,,,,,,,0x03,
13443,-753,97,-654,560,-140,140,,,,,,,0x03,
13453,-751,97,-660,70,-210,140,,,,,,,0x03,
13463,-747,98,-662,280,-210,70,,,,,,,0x03,
13472,-749,100,-664,350,-280,0,,,,,,,0x03,
13482,-748,103,-662,140,-420,-70,,,,,,,0x03,
13492,-745,100,-661,-140,-420,-70,,,,,,,0x03,
13501,-747,97,-659,70,-420,-70,,,,,,,0x03,
13511,-752,98,-657,350,-350,0,,,,,,,0x03,
13521,-752,97,-659,490,-280,0,,,,,,,0x03,
13530,-753,99,-657,490,-350,-70,,,,,,,0x03,
13540,-752,97,-655,0,-70,0,,,,,,,0x03,
13549,-753,92,-656,140,-70,-70,,,,,,,0x03,
13559,-755,92,-661,980,-140,0,,,,,,,0x03,
13569,-757,100,-663,1190,-70,0,,,,,,,0x03,
13578,-756,108,-662,910,-210,-70,,,,,,,0x03,
13588,-753,107,-662,70,-420,-70,,,,,,,0x03,
13598,-754,100,-666,-490,-700,-70,,,,,,,0x03,
13607,-751,98,-665,-140,-910,-70,,,,,,,0x03,
13617,-750,100,-665,-350,-1050,-140,,,,,,,0x03,
13627,-751,96,-659,-630,-1120,-70,,,,,,,0x03,
13636,-749,92,-656,-350,-1120,-210,,,,,,,0x03,
13646,-747,94,-655,-70,-980,-280,,,,,,,0x03,
13656,-748,100,-654,-210,-840,-210,,,,,,,0x03,
13665,-749,99,-659,-700,-770,-210,,,,,,,0x03,
13675,-749,98,-661,-910,-840,-280,,,,,,,0x03,
13685,-751,99,-662,-840,-770,-350,,,,,,,0x03,
13694,-752,101,-660,-490,-840,-350,,,,,,,0x03,
13704,-745,101,-657,70,-840,-350,,,,,,,0x03,
13714,-744,98,-656,210,-700,-210,,,,,,,0x03,
13723,-748,96,-651,210,-420,-210,,,,,,,0x03,
13733,-746,94,-652,280,-420,-140,,,,,,,0x03,
13743,-748,88,-659,1050,-210,-70,,,,,,,0x03,
13752,-756,84,-666,3290,-70,70,,,,,,,0x03,
13762,-763,105,-670,4130,-210,-70,,,,,,,0x03,
13771,-756,121,-672,2170,-630,-280,,,,,,,0x03,
13781,-755,112,-671,-980,-1190,-560,,,,,,,0x03,
13791,-758,93,-664,-3500,-1470,-1050,,,,,,,0x03,
13800,-754,89,-660,-3360,-1820,-1330,,,,,,,0x03,
13810,-751,87,-658,-1820,-1750,-1190,,,,,,,0x03,
13820,-751,97,-658,0,-1680,-1050,,,,,,,0x03,
13829,-748,112,-657,1260,-1540,-980,,,,,,,0x03,
13839,-747,122,-659,770,-1610,-1050,,,,,,,0x03,
13849,-748,116,-660,-420,-1750,-1120,,,,,,,0x03,
13858,-744,103,-655,-1050,-1540,-1050,,,,,,,0x03,
13868,-747,88,-651,-840,-1330,-1050,,,,,,,0x03,
13878,-748,82,-650,840,-1120,-1120,,,,,,,0x03,
13887,-748,84,-648,2380,-770,-910,,,,,,,0x03,
13897,-754,95,-654,3570,-560,-770,,,,,,,0x03,
13907,-759,104,-659,3500,-560,-630,,,,,,,0x03,
13916,-758,105,-663,2240,-560,-910,,,,,,,0x03,
13926,-752,100,-659,630,-700,-1050,,,,,,,0x03,
13936,-750,94,-655,560,-840,-1190,,,,,,,0x03,
13945,-750,91,-654,630,-700,-1050,,,,,,,0x03,
13955,-754,89,-655,1050,-630,-910,,,,,,,0x03,
13964,-758,87,-656,1540,-490,-770,,,,,,,0x03,
13974,-760,89,-658,1680,-420,-770,,,,,,,0x03,
13984,-761,91,-658,1540,-420,-980,,,,,,,0x03,
13993,-759,97,-654,910,-420,-1120,,,,,,,0x03,
14003,-752,100,-657,70,-490,-1190,,,,,,,0x03,
14013,-749,96,-657,-420,-630,-1120,,,,,,,0x03,
14022,-758,94,-659,0,-630,-980,,,,,,,0x03,
14032,-757,91,-659,280,-630,-980,,,,,,,0x03,
14042,-756,87,-657,700,-630,-980,,,,,,,0x03,
14051,-759,87,-654,1470,-630,-910,,,,,,,0x03,
14061,-757,94,-653,1540,-560,-840,,,,,,,0x03,
14071,-749,95,-655,1050,-420,-700,,,,,,,0x03,
14080,-744,91,-662,630,-490,-630,,,,,,,0x03,
14090,-745,91,-664,770,-560,-630,,,,,,,0x03,
14100,-747,90,-663,560,-420,-630,,,,,,,0x03,
14109,-746,87,-659,560,-490,-630,,,,,,,0x03,
14119,-749,84,-657,560,-420,-630,,,,,,,0x03,
14129,-752,85,-657,700,-350,-630,,,,,,,0x03,
14138,-754,90,-658,910,-350,-700,,,,,,,0x03,
14148,-752,96,-665,1050,-350,-630,,,,,,,0x03,
14157,-751,98,-664,770,-420,-560,,,,,,,0x03,
14167,-753,95,-664,420,-700,-770,,,,,,,0x03,
14177,-753,88,-659,-70,-840,-700,,,,,,,0x03,
14186,-754,82,-653,0,-770,-490,,,,,,,0x03,
14196,-755,76,-651,350,-700,-490,,,,,,,0x03,
14206,-757,81,-657,980,-490,-630,,,,,,,0x03,
14215,-754,89,-659,1330,-350,-490,,,,,,,0x03,
14225,-756,100,-660,840,-420,-350,,,,,,,0x03,
14235,-753,97,-657,-490,-280,-280,,,,,,,0x03,
14244,-750,86,-656,-1260,-350,-350,,,,,,,0x03,
14254,-751,82,-658,-420,-420,-420,,,,,,,0x03,
14264,-755,87,-658,560,-280,-210,,,,,,,0x03,
14273,-759,94,-659,560,-280,-70,,,,,,,0x03,
14283,-755,89,-659,420,-350,0,,,,,,,0x03,
14293,-753,89,-658,420,-210,-70,,,,,,,0x03,
14302,-751,88,-658,140,-280,0,,,,,,,0x03,
14312,-745,84,-660,70,-280,70,,,,,,,0x03,
14322,-748,80,-660,350,-210,140,,,,,,,0x03,
14331,-751,84,-661,630,-210,210,,,,,,,0x03,
14341,-750,88,-663,700,-140,140,,,,,,,0x03,
14350,-755,88,-663,350,-280,140,,,,,,,0x03,
14360,-758,89,-662,70,-280,0,,,,,,,0x03,
14370,-753,92,-660,-210,-420,0,,,,,,,0x03,
14379,-751,91,-660,-700,-420,70,,,,,,,0x03,
14389,-755,89,-661,-420,-490,70,,,,,,,0x03,
14399,-755,89,-663,-280,-560,140,,,,,,,0x03,
14408,-752,92,-664,210,-700,140,,,,,,,0x03,
14418,-751,92,-664,70,-770,280,,,,,,,0x03,
14428,-750,92,-664,-70,-910,210,,,,,,,0x03,
14437,-747,90,-661,-560,-980,140,,,,,,,0x03,
14447,-747,90,-661,-840,-1050,70,,,,,,,0x03,
14457,-748,87,-658,-840,-980,70,,,,,,,0x03,
14466,-751,87,-660,-630,-910,70,,,,,,,0x03,
14476,-749,87,-657,0,-840,140,,,,,,,0x03,
14486,-748,88,-656,0,-560,210,,,,,,,0x03,
14495,-750,87,-656,280,-630,210,,,,,,,0x03,
14505,-748,85,-657,420,-560,280,,,,,,,0x03,
14515,-754,87,-660,350,-420,420,,,,,,,0x03,
14524,-752,91,-658,490,-420,420,,,,,,,0x03,
14534,-759,92,-662,0,-420,490,,,,,,,0x03,
14544,-759,92,-665,490,-630,490,,,,,,,0x03,
14553,-757,96,-664,-140,-770,280,,,,,,,0x03,
14563,-758,98,-666,-700,-1050,420,,,,,,,0x03,
14572,-754,93,-664,-1120,-1260,420,,,,,,,0x03,
14582,-750,90,-661,-1610,-1330,280,,,,,,,0x03,
14592,-750,87,-657,-1120,-1400,140,,,,,,,0x03,
14601,-751,88,-655,-560,-1260,210,,,,,,,0x03,
14611,-752,88,-654,-280,-1120,350,,,,,,,0x03,
14621,-753,89,-659,-70,-1050,420,,,,,,,0x03,
14630,-753,91,-660,70,-1050,280,,,,,,,0x03,
14640,-751,96,-661,-490,-980,280,,,,,,,0x03,
14650,-746,97,-659,-910,-1050,140,,,,,,,0x03,
14659,-746,90,-657,-1260,-980,280,,,,,,,0x03,
14669,-749,87,-658,-770,-840,280,,,,,,,0x03,
14679,-746,90,-658,210,-770,280,,,,,,,0x03,
14688,-744,95,-656,420,-560,350,,,,,,,0x03,
14698,-751,92,-657,140,-490,490,,,,,,,0x03,
14708,-749,88,-661,840,-560,420,,,,,,,0x03,
14717,-751,92,-665,1050,-560,420,,,,,,,0x03,
14727,-757,96,-664,490,-630,420,,,,,,,0x03,
14737,-757,92,-660,-280,-770,210,,,,,,,0x03,
14746,-754,90,-659,-770,-770,70,,,,,,,0x03,
14756,-759,91,-660,-350,-980,0,,,,,,,0x03,
14765,-760,96,-658,-280,-980,140,,,,,,,0x03,
14775,-754,97,-656,-700,-910,140,,,,,,,0x03,
14785,-753,93,-654,-560,-910,0,,,,,,,0x03,
14794,-754,91,-652,0,-770,140,,,,,,,0x03,
14804,-753,94,-656,1050,-700,280,,,,,,,0x03,
14814,-754,100,-657,980,-630,350,,,,,,,0x03,
14823,-757,101,-659,280,-560,280,,,,,,,0x03,
14833,-755,95,-661,-140,-700,140,,,,,,,0x03,
14843,-752,92,-660,-350,-770,140,,,,,,,0x03,
14852,-749,89,-661,140,-700,210,,,,,,,0x03,
14862,-750,88,-657,350,-630,210,,,,,,,0x03,
14872,-748,86,-655,280,-420,210,,,,,,,0x03,
14881,-744,86,-656,630,-350,210,,,,,,,0x03,
14891,-750,90,-660,630,-280,210,,,,,,,0x03,
14901,-748,94,-657,210,-280,280,,,,,,,0x03,
14910,-753,94,-668,630,-210,420,,,,,,,0x03,
14920,-750,98,-672,700,-560,280,,,,,,,0x03,
14930,-751,106,-667,-490,-700,-210,,,,,,,0x03,
14939,-752,99,-663,-1050,-840,-280,,,,,,,0x03,
14949,-748,92,-660,-1470,-1120,-140,,,,,,,0x03,
14958,-750,85,-656,-1540,-980,-70,,,,,,,0x03,
14968,-757,82,-655,-840,-840,-140,,,,,,,0x03,
14978,-754,87,-658,140,-770,-210,,,,,,,0x03,
14987,-755,96,-659,490,-700,-140,,,,,,,0x03,
14997,-759,100,-655,0,-560,-70,,,,,,,0x03,
15007,-755,99,-653,-770,-630,-210,,,,,,,0x03,
15016,-751,95,-652,-1050,-490,-280,,,,,,,0x03,
15026,-749,89,-654,-630,-280,-140,,,,,,,0x03,
15036,-750,91,-660,420,-210,70,,,,,,,0x03,
15045,-752,94,-666,770,-210,210,,,,,,,0x03,
15055,-752,93,-668,630,-210,70,,,,,,,0x03,
15065,-753,95,-656,-70,-350,70,,,,,,,0x03,
15074,-752,91,-658,-420,-420,0,,,,,,,0x03,
15084,-743,90,-657,-700,-490,-210,,,,,,,0x03,
15094,-751,94,-658,-1190,-350,-420,,,,,,,0x03,
15103,-755,96,-653,-1120,-280,-210,,,,,,,0x03,
15113,-753,94,-658,-840,-210,-140,,,,,,,0x03,
15123,-754,93,-660,-420,-70,-210,,,,,,,0x03,
15132,-753,96,-658,140,-70,-280,,,,,,,0x03,
15142,-756,99,-657,420,-70,-70,,,,,,,0x03,
15151,-752,99,-663,910,-210,140,,,,,,,0x03,
15161,-750,98,-666,350,-280,0,,,,,,,0x03,
15171,-755,98,-664,-70,-350,-140,,,,,,,0x03,
15180,-750,95,-665,-350,-630,-280,,,,,,,0x03,
15190,-746,90,-662,-910,-770,-350,,,,,,,0x03,
15200,-752,83,-658,-980,-630,-210,,,,,,,0x03,
15209,-750,82,-653,-420,-560,-350,,,,,,,0x03,
15219,-749,86,-654,-280,-420,-280,,,,,,,0x03,
15229,-749,91,-659,-140,-280,-280,,,,,,,0x03,
15238,-755,100,-664,-140,-350,-280,,,,,,,0x03,
15248,-756,104,-666,-630,-420,-210,,,,,,,0x03,
15258,-752,100,-663,-1260,-560,-420,,,,,,,0x03,
15267,-752,97,-660,-1260,-700,-420,,,,,,,0x03,
15277,-753,94,-656,-630,-700,-420,,,,,,,0x03,
15287,-750,95,-656,-420,-630,-210,,,,,,,0x03,
15296,-747,94,-656,-280,-490,-210,,,,,,,0x03,
15306,-747,91,-658,-280,-350,-280,,,,,,,0x03,
15316,-748,89,-660,-140,-280,-280,,,,,,,0x03,
15325,-749,92,-661,280,-280,-280,,,,,,,0x03,
15335,-748,95,-662,70,-280,-210,,,,,,,0x03,
15345,-748,93,-663,-140,-280,-280,,,,,,,0x03,
15354,-751,91,-662,-140,-350,-350,,,,,,,0x03,
15364,-751,93,-664,70,-350,-280,,,,,,,0x03,
15373,-750,93,-662,350,-420,-280,,,,,,,0x03,
15383,-755,95,-658,70,-350,-280,,,,,,,0x03,
15393,-752,92,-656,0,-420,-350,,,,,,,0x03,
15402,-749,92,-658,420,-420,-350,,,,,,,0x03,
15412,-755,98,-659,490,-350,-280,,,,,,,0x03,
15422,-755,98,-660,140,-350,-210,,,,,,,0x03,
15431,-752,94,-660,-630,-280,-350,,,,,,,0x03,
15441,-749,94,-661,-350,-350,-350,,,,,,,0x03,
15451,-751,93,-659,-70,-280,-280,,,,,,,0x03,
15460,-749,93,-660,-70,-210,-210,,,,,,,0x03,
15470,-749,92,-661,140,-210,-210,,,,,,,0x03,
15480,-751,92,-663,210,-140,-140,,,,,,,0x03,
15489,-749,95,-665,210,-210,-210,,,,,,,0x03,
15499,-747,96,-661,140,-280,-140,,,,,,,0x03,
15509,-749,91,-665,350,-280,-70,,,,,,,0x03,
15518,-749,91,-664,630,-490,-210,,,,,,,0x03,
15528,-750,95,-665,630,-490,-280,,,,,,,0x03,
15538,-753,96,-663,420,-560,-70,,,,,,,0x03,
15547,-753,93,-660,-420,-630,-140,,,,,,,0x03,
15557,-753,87,-657,-1050,-560,-210,,,,,,,0x03,
15566,-756,85,-655,-1050,-490,-140,,,,,,,0x03,
15576,-752,86,-656,-630,-280,-70,,,,,,,0x03,
15586,-751,90,-661,210,-280,0,,,,,,,0x03,
15595,-760,99,-662,210,-280,70,,,,,,,0x03,
15605,-761,103,-663,-490,-350,70,,,,,,,0x03,
15615,-755,101,-666,-1120,-630,-140,,,,,,,0x03,
15624,-749,98,-666,-1330,-770,-70,,,,,,,0x03,
15634,-744,96,-663,-1400,-910,70,,,,,,,0x03,
15644,-742,91,-663,-1260,-910,140,,,,,,,0x03,
15653,-739,86,-666,-560,-1050,70,,,,,,,0x03,
15663,-740,90,-665,-560,-910,-70,,,,,,,0x03,
15673,-740,93,-664,-770,-910,0,,,,,,,0x03,
15682,-737,89,-664,-1260,-980,0,,,,,,,0x03,
15692,-743,87,-661,-1400,-910,-210,,,,,,,0x03,
15702,-750,87,-660,-700,-770,-280,,,,,,,0x03,
15711,-751,99,-660,350,-840,-280,,,,,,,0x03,
15721,-759,105,-658,70,-700,-70,,,,,,,0x03,
15731,-763,103,-657,-280,-770,-70,,,,,,,0x03,
15740,-762,100,-656,-840,-840,0,,,,,,,0x03,
15750,-760,98,-657,-980,-840,140,,,,,,,0x03,
15759,-759,97,-657,-770,-840,350,,,,,,,0x03,
15769,-761,95,-658,-1400,-910,350,,,,,,,0x03,
15779,-757,93,-658,-1190,-910,210,,,,,,,0x03,
15788,-756,92,-657,-1190,-770,210,,,,,,,0x03,
15798,-753,94,-659,-1050,-770,0,,,,,,,0x03,
15808,-746,97,-663,-210,-910,70,,,,,,,0x03,
15817,-746,101,-671,-350,-1050,420,,,,,,,0x03,
15827,-742,102,-664,-630,-910,140,,,,,,,0x03,
15837,-747,95,-664,-1190,-840,-210,,,,,,,0x03,
15846,-742,93,-656,-490,-1050,-140,,,,,,,0x03,
15856,-744,93,-660,70,-770,-70,,,,,,,0x03,
15866,-746,95,-657,1120,-700,280,,,,,,,0x03,
15875,-745,101,-659,700,-490,210,,,,,,,0x03,
15885,-745,98,-660,280,-490,0,,,,,,,0x03,
15895,-750,94,-664,350,-560,-70,,,,,,,0x03,
15904,-754,95,-662,490,-560,70,,,,,,,0x03,
15914,-752,95,-656,420,-420,0,,,,,,,0x03,
15924,-754,93,-656,210,-490,-70,,,,,,,0x03,
15933,-754,94,-658,490,-560,-70,,,,,,,0x03,
15943,-755,100,-663,350,-560,0,,,,,,,0x03,
15952,-754,103,-667,140,-700,70,,,,,,,0x03,
15962,-752,105,-669,-700,-910,-70,,,,,,,0x03,
15972,-750,98,-661,-1680,-1050,-140,,,,,,,0x03,
15981,-748,87,-653,-2030,-910,-140,,,,,,,0x03,
15991,-747,78,-653,-770,-840,70,,,,,,,0x03,
16001,-750,83,-656,1050,-630,280,,,,,,,0x03,
16010,-755,95,-658,1470,-350,490,,,,,,,0x03,
16020,-751,104,-663,1190,-350,420,,,,,,,0x03,
16030,-749,106,-664,420,-490,350,,,,,,,0x03,
16039,-750,100,-661,-560,-490,280,,,,,,,0x03,
16049,-753,96,-657,-700,-560,140,,,,,,,0x03,
16059,-749,90,-656,-630,-420,140,,,,,,,0x03,
16068,-749,90,-657,210,-420,280,,,,,,,0x03,
16078,-753,96,-659,910,-280,350,,,,,,,0x03,
16088,-754,104,-662,700,-210,420,,,,,,,0x03,
16097,-750,103,-661,-70,-140,420,,,,,,,0x03,
16107,-743,99,-661,-630,-140,280,,,,,,,0x03,
16117,-742,95,-661,-420,-70,280,,,,,,,0x03,
16126,-747,94,-661,70,-70,350,,,,,,,0x03,
16136,-748,94,-663,280,70,280,,,,,,,0x03,
16146,-751,94,-665,490,0,140,,,,,,,0x03,
16155,-754,99,-664,490,-70,0,,,,,,,0x03,
16165,-754,102,-664,280,-210,0,,,,,,,0x03,
16174,-751,102,-665,70,-350,-140,,,,,,,0x03,
16184,-748,100,-667,-280,-560,-140,,,,,,,0x03,
16194,-746,101,-668,-350,-840,-210,,,,,,,0x03,
16203,-748,98,-665,-700,-910,-140,,,,,,,0x03,
16213,-744,95,-661,-770,-1050,-140,,,,,,,0x03,
16223,-744,91,-658,-490,-910,-280,,,,,,,0x03,
16232,-749,96,-655,-140,-770,-350,,,,,,,0x03,
16242,-751,99,-651,-70,-560,-350,,,,,,,0x03,
16252,-753,99,-655,-70,-350,-280,,,,,,,0x03,
16261,-753,101,-659,350,-280,-140,,,,,,,0x03,
16271,-755,106,-662,420,-280,-70,,,,,,,0x03,
16281,-754,107,-666,420,-420,0,,,,,,,0x03,
16290,-750,102,-665,70,-490,0,,,,,,,0x03,
16300,-748,96,-658,-280,-490,0,,,,,,,0x03,
16310,-744,87,-654,0,-350,-70,,,,,,,0x03,
16319,-742,85,-657,910,-140,-70,,,,,,,0x03,
16329,-745,92,-660,1610,210,0,,,,,,,0x03,
16339,-746,98,-665,1470,210,0,,,,,,,0x03,
16348,-749,101,-671,1120,70,0,,,,,,,0x03,
16358,-747,102,-671,630,-140,-140,,,,,,,0x03,
16367,-750,99,-668,-210,-280,-280,,,,,,,0x03,
16377,-753,93,-667,-70,-560,-350,,,,,,,0x03,
16387,-752,91,-665,140,-700,-350,,,,,,,0x03,
16396,-753,97,-667,70,-840,-420,,,,,,,0x03,
16406,-751,100,-664,0,-980,-490,,,,,,,0x03,
16416,-750,101,-659,-700,-980,-560,,,,,,,0x03,
16425,-749,98,-656,-910,-980,-560,,,,,,,0x03,
16435,-746,95,-653,-700,-840,-560,,,,,,,0x03,
16445,-746,92,-654,-280,-630,-350,,,,,,,0x03,
16454,-749,95,-664,770,-560,-210,,,,,,,0x03,
16464,-753,103,-667,1120,-560,-280,,,,,,,0x03,
16474,-753,103,-667,-70,-560,-280,,,,,,,0x03,
16483,-748,98,-664,-910,-770,-140,,,,,,,0x03,
16493,-746,89,-658,-1120,-770,-420,,,,,,,0x03,
16503,-744,83,-654,-700,-560,-630,,,,,,,0x03,
16512,-743,85,-651,560,-280,-210,,,,,,,0x03,
16522,-746,92,-656,1540,210,140,,,,,,,0x03,
16532,-750,97,-663,2100,350,210,,,,,,,0x03,
16541,-756,106,-668,2170,350,70,,,,,,,0x03,
16551,-758,107,-671,980,140,-280,,,,,,,0x03,
16560,-756,100,-666,-770,-140,-350,,,,,,,0x03,
16570,-749,89,-663,-1470,-490,-70,,,,,,,0x03,
16580,-744,87,-663,-420,-560,0,,,,,,,0x03,
16589,-742,94,-665,420,-560,-280,,,,,,,0x03,
16599,-747,99,-666,560,-560,-70,,,,,,,0x03,
16609,-748,100,-665,210,-630,-70,,,,,,,0x03,
16618,-746,98,-662,-350,-490,-70,,,,,,,0x03,
16628,-746,91,-659,-840,-630,-490,,,,,,,0x03,
16638,-746,87,-658,-700,-770,140,,,,,,,0x03,
16647,-749,93,-661,210,-420,490,,,,,,,0x03,
16657,-747,99,-665,700,-350,-700,,,,,,,0x03,
16667,-751,99,-669,350,-280,-490,,,,,,,0x03,
16676,-751,98,-669,280,-490,420,,,,,,,0x03,
16686,-749,99,-665,280,-560,210,,,,,,,0x03,
16696,-750,95,-659,-280,-560,-350,,,,,,,0x03,
16705,-749,85,-657,-140,-490,-700,,,,,,,0x03,
16715,-749,85,-659,630,-280,-280,,,,,,,0x03,
16725,-753,92,-660,1260,0,280,,,,,,,0x03,
16734,-753,99,-659,980,70,140,,,,,,,0x03,
16744,-750,99,-665,70,-70,-210,,,,,,,0x03,
16753,-748,96,-666,-280,-140,-210,,,,,,,0x03,
16763,-752,98,-664,-420,-140,0,,,,,,,0x03,
16773,-749,99,-661,-280,-140,70,,,,,,,0x03,
16782,-746,94,-660,-280,-140,140,,,,,,,0x03,
16792,-747,93,-662,210,-70,70,,,,,,,0x03,
16802,-746,97,-662,1050,0,0,,,,,,,0x03,
16811,-749,99,-667,980,0,0,,,,,,,0x03,
16821,-748,95,-668,560,-140,70,,,,,,,0x03,
16831,-741,93,-668,280,-280,70,,,,,,,0x03,
16840,-739,91,-667,-350,-280,70,,,,,,,0x03,
16850,-742,89,-668,-420,-490,-140,,,,,,,0x03,
16860,-746,92,-669,-210,-560,-70,,,,,,,0x03,
16869,-747,99,-669,-490,-560,-70,,,,,,,0x03,
16879,-747,102,-665,-420,-700,-140,,,,,,,0x03,
16889,-748,102,-659,-1050,-630,-70,,,,,,,0x03,
16898,-749,94,-657,-840,-560,0,,,,,,,0x03,
16908,-748,89,-658,210,-420,70,,,,,,,0x03,
16918,-753,94,-661,980,-210,210,,,,,,,0x03,
16927,-757,98,-663,1330,-140,210,,,,,,,0x03,
16937,-756,102,-665,560,-70,140,,,,,,,0x03,
16947,-752,99,-661,-280,-140,70,,,,,,,0x03,
16956,-749,93,-662,-770,-210,0,,,,,,,0x03,
16966,-746,89,-662,-560,-210,140,,,,,,,0x03,
16975,-746,90,-663,-280,-140,280,,,,,,,0x03,
16985,-744,92,-664,-70,-70,420,,,,,,,0x03,
16995,-744,95,-670,490,-140,350,,,,,,,0x03,
17004,-747,101,-673,770,-280,280,,,,,,,0x03,
17014,-748,106,-667,-560,-210,210,,,,,,,0x03,
17024,-744,101,-664,-1750,-420,140,,,,,,,0x03,
17033,-742,96,-664,-1680,-560,0,,,,,,,0x03,
17043,-749,105,-663,-1330,-490,70,,,,,,,0x03,
17053,-747,95,-666,-2730,-560,210,,,,,,,0x03,
17062,-742,87,-668,-1680,-490,70,,,,,,,0x03,
17072,-745,86,-667,70,-350,0,,,,,,,0x03,
17082,-744,96,-665,1050,-280,210,,,,,,,0x03,
17091,-739,104,-664,1470,-280,350,,,,,,,0x03,
17101,-740,105,-666,280,-280,350,,,,,,,0x03,
17111,-743,97,-663,-910,-210,140,,,,,,,0x03,
17120,-743,95,-661,-1050,-70,-70,,,,,,,0x03,
17130,-745,92,-662,-210,-70,140,,,,,,,0x03,
17140,-752,91,-662,910,140,350,,,,,,,0x03,
17149,-752,99,-665,1820,210,350,,,,,,,0x03,
17159,-749,108,-667,1680,70,420,,,,,,,0x03,
17168,-753,103,-671,280,-140,490,,,,,,,0x03,
17178,-752,96,-673,-350,-420,350,,,,,,,0x03,
17188,-751,89,-670,-910,-490,280,,,,,,,0x03,
17197,-748,86,-665,-910,-630,140,,,,,,,0x03,
17207,-742,89,-661,-140,-630,210,,,,,,,0x03,
17217,-743,96,-664,280,-560,280,,,,,,,0x03,
17226,-744,101,-663,350,-420,350,,,,,,,0x03,
17236,-744,101,-664,70,-350,280,,,,,,,0x03,
17246,-748,100,-665,70,-350,210,,,,,,,0x03,
17255,-749,101,-665,-70,-280,210,,,,,,,0x03,
17265,-746,101,-665,-210,-210,280,,,,,,,0x03,
17275,-745,99,-669,-70,-350,350,,,,,,,0x03,
17284,-749,99,-671,0,-420,350,,,,,,,0x03,
17294,-748,100,-672,-350,-420,350,,,,,,,0x03,
17304,-743,99,-669,-770,-560,210,,,,,,,0x03,
17313,-737,97,-665,-1260,-630,0,,,,,,,0x03,
17323,-738,92,-660,-1400,-420,-70,,,,,,,0x03,
17333,-738,95,-664,-630,-420,0,,,,,,,0x03,
17342,-740,100,-668,70,-280,210,,,,,,,0x03,
17352,-744,101,-667,-70,-70,280,,,,,,,0x03,
17361,-743,101,-671,0,-210,140,,,,,,,0x03,
17371,-739,101,-666,140,-350,140,,,,,,,0x03,
17381,-746,100,-663,-70,0,350,,,,,,,0x03,
17390,-736,96,-664,700,-70,210,,,,,,,0x03,
17400,-740,97,-669,-70,-70,-70,,,,,,,0x03,
17410,-752,101,-671,490,-70,0,,,,,,,0x03,
17419,-751,100,-672,0,-280,0,,,,,,,0x03,
17429,-748,103,-672,-700,-420,-140,,,,,,,0x03,
17439,-749,94,-666,-560,-560,-210,,,,,,,0x03,
17448,-746,97,-660,-630,-560,-420,,,,,,,0x03,
17458,-745,100,-655,-350,-350,-350,,,,,,,0x03,
17468,-746,95,-656,-140,-210,-70,,,,,,,0x03,
17477,-748,100,-665,700,0,70,,,,,,,0x03,
17487,-753,110,-669,1400,-70,70,,,,,,,0x03,
17497,-751,110,-669,210,-70,140,,,,,,,0x03,
17506,-745,103,-669,-280,-210,70,,,,,,,0x03,
17516,-740,94,-664,-70,-210,-70,,,,,,,0x03,
17526,-741,89,-661,420,-70,70,,,,,,,0x03,
17535,-742,89,-665,1400,0,140,,,,,,,0x03,
17545,-742,99,-673,1890,0,140,,,,,,,0x03,
17555,-743,106,-677,1050,-70,140,,,,,,,0x03,
17564,-744,106,-677,350,-350,0,,,,,,,0x03,
17574,-739,101,-670,-560,-490,-70,,,,,,,0x03,
17583,-736,92,-668,-1190,-490,-140,,,,,,,0x03,
17593,-735,90,-667,0,-630,-280,,,,,,,0x03,
17603,-742,92,-672,560,-490,-70,,,,,,,0x03,
17612,-745,100,-676,980,-630,-70,,,,,,,0x03,
17622,-743,106,-676,840,-770,-210,,,,,,,0x03,
17632,-742,107,-673,-280,-980,-490,,,,,,,0x03,
17641,-741,104,-667,-1050,-1120,-630,,,,,,,0x03,
17651,-740,97,-660,-1330,-1120,-560,,,,,,,0x03,
17661,-739,90,-663,-910,-980,-420,,,,,,,0x03,
17670,-741,90,-667,770,-840,-350,,,,,,,0x03,
17680,-744,97,-668,1260,-560,-280,,,,,,,0x03,
17690,-747,103,-674,1470,-700,-280,,,,,,,0x03,
17699,-747,105,-673,1050,-980,-420,,,,,,,0x03,
17709,-746,105,-670,-140,-980,-490,,,,,,,0x03,
17719,-742,99,-667,-490,-1190,-630,,,,,,,0x03,
17728,-742,94,-665,-210,-1190,-700,,,,,,,0x03,
17738,-743,93,-663,140,-980,-560,,,,,,,0x03,
17748,-742,95,-670,840,-1050,-490,,,,,,,0x03,
17757,-746,97,-673,1330,-1120,-350,,,,,,,0x03,
17767,-750,98,-674,840,-1190,-420,,,,,,,0x03,
17776,-747,99,-673,140,-1400,-630,,,,,,,0x03,
17786,-741,99,-670,-560,-1610,-770,,,,,,,0x03,
17796,-742,96,-666,-1190,-1680,-840,,,,,,,0x03,
17805,-744,94,-662,-1400,-1610,-840,,,,,,,0x03,
17815,-740,91,-664,-1120,-1540,-840,,,,,,,0x03,
17825,-740,94,-667,-560,-1400,-770,,,,,,,0x03,
17834,-743,99,-666,-420,-1260,-700,,,,,,,0x03,
17844,-746,98,-664,-630,-1190,-700,,,,,,,0x03,
17854,-744,95,-667,-350,-1260,-700,,,,,,,0x03,
17863,-747,100,-671,140,-1400,-630,,,,,,,0x03,
17873,-752,107,-667,-280,-1400,-630,,,,,,,0x03,
17883,-747,104,-664,-1400,-1400,-630,,,,,,,0x03,
17892,-740,93,-666,-1680,-1540,-770,,,,,,,0x03,
17902,-745,91,-666,-770,-1540,-770,,,,,,,0x03,
17912,-746,93,-663,-70,-1330,-630,,,,,,,0x03,
17921,-745,97,-665,420,-1330,-630,,,,,,,0x03,
17931,-744,100,-666,630,-1400,-630,,,,,,,0x03,
17941,-749,102,-663,280,-1330,-630,,,,,,,0x03,
17950,-748,101,-661,-70,-1330,-700,,,,,,,0x03,
17960,-746,95,-661,-70,-1330,-560,,,,,,,0x03,
17969,-748,93,-663,280,-1190,-560,,,,,,,0x03,
17979,-746,94,-664,840,-1050,-420,,,,,,,0x03,
17989,-745,95,-668,1330,-1120,-420,,,,,,,0x03,
17998,-747,98,-671,1540,-1260,-490,,,,,,,0x03,
18008,-750,101,-666,630,-1190,-560,,,,,,,0x03,
18018,-746,96,-662,-630,-1190,-700,,,,,,,0x03,
18027,-736,89,-662,-630,-1260,-770,,,,,,,0x03,
18037,-737,92,-661,-140,-1050,-630,,,,,,,0x03,
18047,-745,93,-660,210,-840,-490,,,,,,,0x03,
18056,-747,97,-663,490,-770,-490,,,,,,,0x03,
18066,-747,95,-665,420,-630,-420,,,,,,,0x03,
18076,-749,97,-668,910,-700,-560,,,,,,,0x03,
18085,-754,101,-667,840,-840,-560,,,,,,,0x03,
18095,-753,100,-666,490,-910,-630,,,,,,,0x03,
18105,-750,99,-664,140,-1190,-700,,,,,,,0x03,
18114,-751,97,-663,140,-1190,-630,,,,,,,0x03,
18124,-753,97,-663,490,-1260,-560,,,,,,,0x03,
18134,-751,96,-661,560,-1260,-560,,,,,,,0x03,
18143,-755,94,-659,420,-1120,-490,,,,,,,0x03,
18153,-752,93,-662,700,-1190,-420,,,,,,,0x03,
18162,-749,91,-662,490,-1050,-350,,,,,,,0x03,
18172,-752,88,-661,-140,-910,-350,,,,,,,0x03,
18182,-747,89,-664,0,-980,-420,,,,,,,0x03,
18191,-745,92,-664,-140,-840,-420,,,,,,,0x03,
18201,-746,95,-665,-630,-840,-420,,,,,,,0x03,
18211,-746,96,-664,-770,-910,-490,,,,,,,0x03,
18220,-744,96,-661,-980,-770,-490,,,,,,,0x03,
18230,-744,91,-656,-910,-560,-350,,,,,,,0x03,
18240,-741,89,-657,-140,-420,-280,,,,,,,0x03,
18249,-740,91,-659,840,-140,-280,,,,,,,0x03,
18259,-747,94,-663,840,70,-140,,,,,,,0x03,
18269,-750,99,-674,1610,-140,-140,,,,,,,0x03,
18278,-752,101,-673,630,-280,-210,,,,,,,0x03,
18288,-751,94,-669,-980,-350,-280,,,,,,,0x03,
18298,-746,85,-666,-910,-700,-490,,,,,,,0x03,
18307,-749,83,-663,-700,-700,-420,,,,,,,0x03,
18317,-753,87,-663,-350,-700,-280,,,,,,,0x03,
18327,-754,99,-667,140,-840,-280,,,,,,,0x03,
18336,-749,105,-665,-560,-770,-350,,,,,,,0x03,
18346,-750,103,-661,-1610,-770,-420,,,,,,,0x03,
18356,-749,95,-656,-1680,-840,-420,,,,,,,0x03,
18365,-743,87,-654,-1050,-560,-210,,,,,,,0x03,
18375,-746,83,-658,350,-280,-70,,,,,,,0x03,
18384,-751,92,-667,1890,-280,0,,,,,,,0x03,
18394,-751,103,-670,1890,-70,140,,,,,,,0x03,
18404,-747,105,-670,630,-210,-70,,,,,,,0x03,
18413,-745,100,-671,-350,-560,-140,,,,,,,0x03,
18423,-743,91,-664,-1330,-630,-140,,,,,,,0x03,
18433,-740,81,-657,-1750,-420,-140,,,,,,,0x03,
18442,-738,76,-660,-420,-350,-70,,,,,,,0x03,
18452,-740,83,-664,980,-70,0,,,,,,,0x03,
18462,-749,98,-665,1260,140,140,,,,,,,0x03,
18471,-747,101,-669,420,140,140,,,,,,,0x03,
18481,-746,100,-671,-490,-70,-70,,,,,,,0x03,
18491,-750,96,-668,-1050,-140,-140,,,,,,,0x03,
18500,-749,95,-666,-980,-280,-210,,,,,,,0x03,
18510,-747,94,-665,-490,-420,-140,,,,,,,0x03,
18520,-749,97,-667,140,-490,-70,,,,,,,0x03,
18529,-750,99,-666,630,-490,0,,,,,,,0x03,
18539,-749,101,-665,420,-560,70,,,,,,,0x03,
18549,-748,95,-663,-70,-560,70,,,,,,,0x03,
18558,-748,87,-662,-490,-560,70,,,,,,,0x03,
18568,-748,85,-666,140,-630,0,,,,,,,0x03,
18577,-750,92,-667,490,-630,0,,,,,,,0x03,
18587,-749,99,-666,-210,-560,0,,,,,,,0x03,
18597,-746,98,-669,-910,-700,-140,,,,,,,0x03,
18606,-743,95,-671,-980,-910,-70,,,,,,,0x03,
18616,-743,97,-671,-980,-1050,0,,,,,,,0x03,
18626,-742,94,-668,-1190,-1120,-70,,,,,,,0x03,
18635,-738,91,-664,-1120,-1050,-210,,,,,,,0x03,
18645,-738,90,-658,-700,-910,-280,,,,,,,0x03,
18655,-744,93,-658,-70,-630,-210,,,,,,,0x03,
18664,-746,99,-660,490,-490,-70,,,,,,,0x03,
18674,-747,101,-663,420,-350,70,,,,,,,0x03,
18684,-749,98,-663,350,-210,70,,,,,,,0x03,
18693,-751,97,-663,350,-210,0,,,,,,,0x03,
18703,-750,97,-664,630,-210,0,,,,,,,0x03,
18713,-748,97,-665,980,-280,70,,,,,,,0x03,
18722,-753,98,-667,910,-350,140,,,,,,,0x03,
18732,-751,97,-671,560,-490,210,,,,,,,0x03,
18742,-748,96,-674,490,-770,140,,,,,,,0x03,
18751,-749,94,-670,0,-910,70,,,,,,,0x03,
18761,-745,96,-669,-280,-1120,0,,,,,,,0x03,
18770,-741,93,-669,-630,-1330,-70,,,,,,,0x03,
18780,-747,91,-670,-910,-1400,0,,,,,,,0x03,
18790,-751,91,-671,-560,-1610,-70,,,,,,,0x03,
18799,-748,96,-671,-490,-1750,-140,,,,,,,0x03,
18809,-745,99,-666,-840,-1820,-210,,,,,,,0x03,
18819,-747,94,-655,-1540,-1610,-280,,,,,,,0x03,
18828,-743,94,-657,-1400,-1750,-560,,,,,,,0x03,
18838,-740,94,-656,-1890,-1470,-420,,,,,,,0x03,
18848,-744,94,-661,-560,-1120,-70,,,,,,,0x03,
18857,-746,94,-661,-70,-980,140,,,,,,,0x03,
18867,-750,100,-659,280,-700,70,,,,,,,0x03,
18877,-750,93,-654,-70,-490,70,,,,,,,0x03,
18886,-748,94,-651,-350,-140,0,,,,,,,0x03,
18896,-747,90,-655,0,140,140,,,,,,,0x03,
18906,-751,92,-661,490,280,280,,,,,,,0x03,
18915,-756,97,-666,840,490,350,,,,,,,0x03,
18925,-752,99,-668,840,490,280,,,,,,,0x03,
18935,-751,98,-666,350,420,280,,,,,,,0x03,
18944,-753,98,-666,420,140,210,,,,,,,0x03,
18954,-749,98,-661,70,140,140,,,,,,,0x03,
18963,-747,96,-663,-210,140,140,,,,,,,0x03,
18973,-743,94,-669,980,-70,140,,,,,,,0x03,
18983,-745,100,-667,1400,70,350,,,,,,,0x03,
18992,-745,100,-661,980,280,420,,,,,,,0x03,
19002,-735,91,-661,1190,280,350,,,,,,,0x03,
19012,-736,91,-665,1750,350,280,,,,,,,0x03,
19021,-745,94,-663,1960,490,350,,,,,,,0x03,
19031,-742,96,-664,1820,700,420,,,,,,,0x03,
19041,-742,94,-667,1680,630,490,,,,,,,0x03,
19050,-751,92,-670,1750,630,490,,,,,,,0x03,
19060,-755,96,-673,1820,420,560,,,,,,,0x03,
19070,-751,100,-674,1820,140,560,,,,,,,0x03,
