#Format version: 1.0
time[ms],accX[mg],accY[mg],accZ[mg],gyroX[mdps],gyroY[mdps],gyroZ[mdps],magnX[mG],magnY[mG],magnZ[mG],press[hPa],temp[°C],hum[0,-749,-63,-664,-5950,3010,910,,,,,,,0x03,
10,-749,-60,-663,-4690,3150,840,,,,,,,0x03,
19,-746,-51,-664,-3640,3500,840,,,,,,,0x03,
29,-743,-46,-666,-2660,3710,840,,,,,,,0x03,
39,-741,-38,-669,-1680,3850,910,,,,,,,0x03,
48,-738,-30,-669,-980,4130,1050,,,,,,,0x03,
58,-735,-23,-674,-560,4340,1260,,,,,,,0x03,
68,-732,-19,-678,-280,4480,1470,,,,,,,0x03,
77,-729,-13,-679,140,4480,1610,,,,,,,0x03,
87,-733,-10,-677,0,4340,1890,,,,,,,0x03,
97,-740,-9,-685,-210,4200,2170,,,,,,,0x03,
106,-743,-3,-689,-140,3780,2310,,,,,,,0x03,
116,-745,12,-692,-770,3290,2730,,,,,,,0x03,
126,-757,25,-695,-1890,2870,3290,,,,,,,0x03,
135,-755,37,-686,-3710,1890,3640,,,,,,,0x03,
145,-745,45,-682,-5950,1260,3920,,,,,,,0x03,
155,-743,53,-684,-7490,1050,4410,,,,,,,0x03,
164,-744,74,-672,-9380,910,5320,,,,,,,0x03,
174,-737,96,-653,-11410,980,6440,,,,,,,0x03,
183,-738,99,-656,-13300,1540,7630,,,,,,,0x03,
193,-748,73,-660,-15540,1190,8540,,,,,,,0x03,
203,-751,26,-654,-14700,700,8680,,,,,,,0x03,
212,-752,-33,-661,-8960,910,8540,,,,,,,0x03,
222,-752,-70,-663,70,1050,9030,,,,,,,0x03,
232,-737,-91,-664,12180,1820,9870,,,,,,,0x03,
241,-725,-95,-659,23870,2870,11270,,,,,,,0x03,
251,-712,-104,-664,35490,3570,12250,,,,,,,0x03,
261,-707,-96,-684,46550,4200,12810,,,,,,,0x03,
270,-710,-78,-694,53760,4550,13300,,,,,,,0x03,
280,-710,-66,-707,57050,4900,13300,,,,,,,0x03,
290,-713,-69,-693,56420,4900,13090,,,,,,,0x03,
299,-718,-88,-699,54460,4830,12390,,,,,,,0x03,
309,-728,-109,-699,51800,4480,11690,,,,,,,0x03,
319,-739,-126,-706,47110,4200,10920,,,,,,,0x03,
328,-744,-156,-711,42770,3990,9800,,,,,,,0x03,
338,-750,-174,-715,37450,3710,8890,,,,,,,0x03,
348,-758,-177,-714,32130,3150,7420,,,,,,,0x03,
357,-756,-175,-705,25410,2380,5600,,,,,,,0x03,
367,-755,-164,-707,17640,1610,3990,,,,,,,0x03,
377,-761,-152,-707,9940,840,2380,,,,,,,0x03,
386,-765,-131,-707,980,-140,630,,,,,,,0x03,
396,-764,-132,-707,-7280,-840,-1050,,,,,,,0x03,
406,-766,-132,-708,-14980,-1540,-2450,,,,,,,0x03,
415,-762,-132,-707,-20510,-2240,-3780,,,,,,,0x03,
425,-754,-129,-701,-24850,-2660,-5040,,,,,,,0x03,
435,-740,-121,-700,-28980,-2730,-6090,,,,,,,0x03,
444,-732,-120,-698,-32060,-2940,-7210,,,,,,,0x03,
454,-722,-116,-693,-33670,-2870,-8120,,,,,,,0x03,
464,-718,-121,-707,-34930,-2450,-8820,,,,,,,0x03,
473,-711,-123,-706,-35280,-2380,-9660,,,,,,,0x03,
483,-694,-119,-702,-34440,-1540,-10710,,,,,,,0x03,
492,-680,-114,-697,-33950,-560,-11480,,,,,,,0x03,
502,-673,-101,-701,-33460,140,-12110,,,,,,,0x03,
512,-669,-87,-695,-33250,770,-12740,,,,,,,0x03,
521,-675,-85,-702,-32550,1680,-13650,,,,,,,0x03,
531,-697,-71,-712,-32130,2100,-14420,,,,,,,0x03,
541,-712,-42,-723,-31780,1540,-15330,,,,,,,0x03,
550,-711,-16,-719,-32690,1120,-16450,,,,,,,0x03,
560,-713,-3,-721,-35350,910,-17290,,,,,,,0x03,
570,-719,12,-708,-38080,0,-17710,,,,,,,0x03,
579,-723,28,-701,-40530,-1120,-18060,,,,,,,0x03,
589,-720,37,-691,-43820,-2030,-18550,,,,,,,0x03,
599,-715,29,-680,-46970,-2450,-19180,,,,,,,0x03,
608,-711,18,-686,-47600,-2590,-19740,,,,,,,0x03,
618,-710,18,-677,-47250,-3080,-19810,,,,,,,0x03,
628,-709,11,-676,-44940,-3010,-19740,,,,,,,0x03,
637,-713,11,-679,-41230,-2730,-19180,,,,,,,0x03,
647,-711,26,-674,-37520,-2660,-18550,,,,,,,0x03,
657,-704,25,-660,-34370,-2380,-18060,,,,,,,0x03,
666,-707,32,-654,-32270,-2100,-17570,,,,,,,0x03,
676,-729,43,-654,-30100,-2450,-16940,,,,,,,0x03,
686,-734,56,-682,-26040,-2590,-16870,,,,,,,0x03,
695,-737,64,-669,-22190,-2170,-16660,,,,,,,0x03,
705,-769,92,-671,-19880,-1960,-15610,,,,,,,0x03,
715,-768,98,-667,-16520,-2660,-14980,,,,,,,0x03,
724,-750,109,-658,-14210,-3850,-14770,,,,,,,0x03,
734,-752,109,-656,-11620,-4060,-14070,,,,,,,0x03,
744,-762,110,-650,-8610,-4270,-13020,,,,,,,0x03,
753,-757,113,-646,-4970,-4620,-11620,,,,,,,0x03,
763,-760,99,-643,210,-4690,-10360,,,,,,,0x03,
773,-774,90,-644,6370,-4410,-8680,,,,,,,0x03,
782,-784,83,-648,12180,-4270,-6930,,,,,,,0x03,
792,-792,68,-640,17220,-4550,-5530,,,,,,,0x03,
801,-792,50,-639,21700,-4480,-4270,,,,,,,0x03,
811,-792,31,-644,25340,-4060,-3150,,,,,,,0x03,
821,-800,8,-649,30030,-3500,-1960,,,,,,,0x03,
830,-797,2,-647,34160,-3150,-560,,,,,,,0x03,
840,-796,-1,-643,36190,-2800,840,,,,,,,0x03,
850,-792,-3,-643,36960,-2310,1960,,,,,,,0x03,
859,-779,-4,-645,35980,-2170,2590,,,,,,,0x03,
869,-762,-9,-646,33180,-2030,2870,,,,,,,0x03,
879,-745,-18,-659,29960,-1400,3080,,,,,,,0x03,
888,-731,-30,-663,26460,-980,3290,,,,,,,0x03,
898,-719,-51,-660,23170,-490,3500,,,,,,,0x03,
908,-716,-83,-658,20790,560,3710,,,,,,,0x03,
917,-717,-110,-672,20020,1400,3850,,,,,,,0x03,
927,-721,-126,-667,20020,1750,3920,,,,,,,0x03,
937,-730,-139,-664,20580,2380,4130,,,,,,,0x03,
946,-743,-150,-658,22190,3150,4620,,,,,,,0x03,
956,-756,-141,-654,23170,3850,5040,,,,,,,0x03,
966,-763,-126,-651,22540,4270,4900,,,,,,,0x03,
975,-766,-108,-658,19180,4410,4340,,,,,,,0x03,
985,-769,-91,-664,14280,4340,3710,,,,,,,0x03,
995,-777,-80,-665,8400,4060,3220,,,,,,,0x03,
1004,-777,-76,-668,2310,3570,2660,,,,,,,0x03,
1014,-773,-79,-669,-3220,3010,2310,,,,,,,0x03,
1024,-770,-90,-674,-7560,2660,2170,,,,,,,0x03,
1033,-771,-98,-674,-10220,2310,2030,,,,,,,0x03,
1043,-771,-99,-676,-10850,2030,1890,,,,,,,0x03,
1053,-767,-95,-671,-10010,1750,1890,,,,,,,0x03,
1062,-770,-85,-668,-8750,1680,1960,,,,,,,0x03,
1072,-769,-72,-668,-6440,1680,2100,,,,,,,0x03,
1082,-762,-60,-668,-4200,1890,2450,,,,,,,0x03,
1091,-747,-39,-668,-2870,2100,2940,,,,,,,0x03,
1101,-739,-28,-669,-1610,2380,3430,,,,,,,0x03,
1110,-736,-25,-664,-1330,2660,4060,,,,,,,0x03,
1120,-733,-32,-664,-630,3010,4620,,,,,,,0x03,
1130,-735,-45,-670,2030,3500,5180,,,,,,,0x03,
1139,-737,-49,-677,4620,4130,5880,,,,,,,0x03,
1149,-736,-44,-684,6720,4550,6580,,,,,,,0x03,
1159,-735,-40,-685,7770,4760,6930,,,,,,,0x03,
1168,-733,-31,-689,7210,4690,6930,,,,,,,0x03,
1178,-730,-25,-697,5670,4410,6510,,,,,,,0x03,
1188,-731,-22,-702,3080,3990,6090,,,,,,,0x03,
1197,-735,-18,-702,-420,3500,5600,,,,,,,0x03,
1207,-730,-24,-700,-3570,2940,4830,,,,,,,0x03,
1217,-724,-35,-698,-5670,2660,4200,,,,,,,0x03,
1226,-721,-44,-698,-5880,2660,3990,,,,,,,0x03,
1236,-722,-49,-703,-5180,2520,3920,,,,,,,0x03,
1246,-714,-48,-705,-3570,2240,3920,,,,,,,0x03,
1255,-712,-44,-706,-2100,2240,4060,,,,,,,0x03,
1265,-715,-40,-705,-1050,2170,4270,,,,,,,0x03,
1275,-717,-35,-699,-210,1960,4270,,,,,,,0x03,
1284,-716,-34,-699,-70,1820,3990,,,,,,,0x03,
1294,-716,-36,-701,210,1610,3640,,,,,,,0x03,
1304,-721,-32,-704,490,1540,3430,,,,,,,0x03,
1313,-725,-31,-704,630,1330,3220,,,,,,,0x03,
1323,-724,-29,-703,420,980,2870,,,,,,,0x03,
1333,-726,-28,-694,490,840,2590,,,,,,,0x03,
1342,-728,-24,-695,560,770,2450,,,,,,,0x03,
1352,-724,-27,-693,1050,770,2450,,,,,,,0x03,
1362,-727,-28,-696,1190,910,2520,,,,,,,0x03,
1371,-733,-25,-702,1470,910,2240,,,,,,,0x03,
1381,-731,-22,-704,1960,560,1890,,,,,,,0x03,
1391,-731,-15,-703,1960,210,1750,,,,,,,0x03,
1400,-737,-17,-700,1190,-140,1680,,,,,,,0x03,
1410,-736,-18,-698,630,-420,1400,,,,,,,0x03,
1419,-730,-17,-698,490,-630,1120,,,,,,,0x03,
1429,-729,-20,-700,-210,-840,980,,,,,,,0x03,
1439,-723,-25,-698,-840,-980,910,,,,,,,0x03,
1448,-720,-25,-695,-980,-1120,700,,,,,,,0x03,
1458,-720,-31,-693,-700,-1050,560,,,,,,,0x03,
1468,-719,-31,-693,-70,-1050,560,,,,,,,0x03,
1477,-717,-36,-690,840,-840,560,,,,,,,0x03,
1487,-716,-38,-693,2310,-560,630,,,,,,,0x03,
1497,-718,-37,-694,4200,-210,700,,,,,,,0x03,
1506,-720,-34,-694,5320,0,770,,,,,,,0x03,
1516,-722,-30,-699,6510,140,630,,,,,,,0x03,
1526,-723,-28,-701,7350,140,420,,,,,,,0x03,
1535,-728,-25,-697,6790,140,350,,,,,,,0x03,
1545,-729,-21,-696,5670,210,210,,,,,,,0x03,
1555,-722,-24,-700,4480,0,-280,,,,,,,0x03,
1564,-711,-22,-701,3220,-210,-490,,,,,,,0x03,
1574,-706,-23,-705,1610,-210,-420,,,,,,,0x03,
1584,-703,-34,-709,910,-280,-420,,,,,,,0x03,
1593,-709,-39,-712,1260,-490,-490,,,,,,,0x03,
1603,-715,-45,-710,1190,-700,-560,,,,,,,0x03,
1613,-718,-49,-707,1190,-910,-630,,,,,,,0x03,
1622,-723,-55,-704,1400,-1120,-700,,,,,,,0x03,
1632,-731,-56,-698,1680,-1330,-700,,,,,,,0x03,
1642,-732,-56,-699,2520,-1470,-770,,,,,,,0x03,
1651,-728,-55,-696,3640,-1400,-700,,,,,,,0x03,
1661,-728,-51,-695,3990,-1260,-420,,,,,,,0x03,
1671,-724,-45,-696,4200,-1190,-420,,,,,,,0x03,
1680,-721,-43,-692,3640,-1190,-700,,,,,,,0x03,
1690,-718,-37,-692,2450,-1120,-840,,,,,,,0x03,
1700,-718,-39,-693,910,-980,-980,,,,,,,0x03,
1709,-723,-47,-690,-630,-840,-1050,,,,,,,0x03,
1719,-721,-54,-687,-1610,-630,-980,,,,,,,0x03,
1728,-719,-63,-686,-1750,-420,-1190,,,,,,,0x03,
1738,-722,-66,-686,-560,0,-1330,,,,,,,0x03,
1748,-722,-60,-688,700,350,-1260,,,,,,,0x03,
1757,-713,-51,-690,1610,700,-980,,,,,,,0x03,
1767,-708,-44,-695,2730,980,-840,,,,,,,0x03,
1777,-709,-38,-701,3430,1120,-490,,,,,,,0x03,
1786,-715,-35,-704,3710,1190,-350,,,,,,,0x03,
1796,-723,-37,-702,3080,1120,-140,,,,,,,0x03,
1806,-724,-38,-702,2660,980,-210,,,,,,,0x03,
1815,-727,-41,-703,2310,770,-420,,,,,,,0x03,
1825,-732,-41,-700,1680,420,-420,,,,,,,0x03,
1835,-738,-44,-702,1190,140,-280,,,,,,,0x03,
1844,-745,-45,-698,770,-210,-210,,,,,,,0x03,
1854,-745,-44,-692,-630,-560,-140,,,,,,,0x03,
1864,-744,-50,-688,-2450,-770,-210,,,,,,,0x03,
1873,-742,-56,-683,-3570,-840,-280,,,,,,,0x03,
1883,-736,-59,-676,-4900,-770,-280,,,,,,,0x03,
1893,-729,-65,-678,-5460,-490,-350,,,,,,,0x03,
1902,-726,-70,-684,-4130,-70,-280,,,,,,,0x03,
1912,-728,-65,-689,-2730,350,280,,,,,,,0x03,
1922,-730,-57,-693,-1750,630,700,,,,,,,0x03,
1931,-726,-55,-695,-770,770,770,,,,,,,0x03,
1941,-728,-49,-697,-490,700,980,,,,,,,0x03,
1951,-730,-46,-695,-560,700,1120,,,,,,,0x03,
1960,-729,-43,-697,-1120,630,980,,,,,,,0x03,
1970,-724,-41,-699,-2170,560,700,,,,,,,0x03,
1980,-724,-42,-699,-3570,490,560,,,,,,,0x03,
1989,-725,-42,-701,-4340,350,490,,,,,,,0x03,
1999,-725,-42,-699,-4830,210,420,,,,,,,0x03,
2009,-724,-41,-698,-5460,210,420,,,,,,,0x03,
2018,-727,-44,-688,-6020,280,560,,,,,,,0x03,
2028,-730,-45,-687,-6440,420,700,,,,,,,0x03,
2037,-726,-47,-686,-5600,630,630,,,,,,,0x03,
2047,-724,-48,-683,-4900,1050,840,,,,,,,0x03,
2057,-725,-44,-683,-4480,1610,1190,,,,,,,0x03,
2066,-726,-42,-683,-3640,2030,1330,,,,,,,0x03,
2076,-727,-36,-681,-3220,2380,1470,,,,,,,0x03,
2086,-724,-31,-683,-3500,2870,1610,,,,,,,0x03,
2095,-722,-31,-690,-3500,3220,1610,,,,,,,0x03,
2105,-722,-32,-693,-3430,3430,1750,,,,,,,0x03,
2115,-723,-33,-696,-3500,3640,1960,,,,,,,0x03,
2124,-725,-36,-700,-2940,3780,2170,,,,,,,0x03,
2134,-728,-34,-706,-2520,3640,2240,,,,,,,0x03,
2144,-728,-31,-709,-2240,3430,2100,,,,,,,0x03,
2153,-727,-29,-709,-2170,3220,2100,,,,,,,0x03,
2163,-721,-27,-711,-2030,3010,2100,,,,,,,0x03,
2173,-714,-29,-708,-1750,2800,2100,,,,,,,0x03,
2182,-713,-26,-710,-1400,2520,2240,,,,,,,0x03,
2192,-714,-31,-711,-1120,2380,2380,,,,,,,0x03,
2202,-716,-31,-707,-700,2380,2520,,,,,,,0x03,
2211,-713,-29,-706,-560,2310,2450,,,,,,,0x03,
2221,-708,-30,-705,-140,2310,2380,,,,,,,0x03,
2231,-707,-28,-712,280,2520,2310,,,,,,,0x03,
2240,-707,-24,-716,840,2450,2380,,,,,,,0x03,
2250,-708,-20,-718,980,2310,2520,,,,,,,0x03,
2260,-706,-18,-718,980,2100,2450,,,,,,,0x03,
2269,-704,-18,-718,700,1960,2310,,,,,,,0x03,
2279,-703,-21,-718,770,1820,2380,,,,,,,0x03,
2289,-700,-25,-722,1050,1680,2450,,,,,,,0x03,
2298,-703,-29,-729,1610,1400,2590,,,,,,,0x03,
2308,-706,-25,-729,2170,1120,2590,,,,,,,0x03,
2318,-711,-19,-727,1750,770,2520,,,,,,,0x03,
2327,-713,-16,-722,560,280,2310,,,,,,,0x03,
2337,-708,-18,-720,-840,-140,2030,,,,,,,0x03,
2346,-702,-23,-718,-1470,-420,1890,,,,,,,0x03,
2356,-700,-26,-719,-1820,-560,1960,,,,,,,0x03,
2366,-704,-29,-719,-1820,-630,2030,,,,,,,0x03,
2375,-708,-30,-717,-1540,-700,2100,,,,,,,0x03,
2385,-710,-26,-715,-1470,-840,2100,,,,,,,0x03,
2395,-707,-28,-715,-1260,-980,1960,,,,,,,0x03,
2404,-709,-28,-716,-840,-980,2030,,,,,,,0x03,
2414,-709,-26,-716,-840,-980,2170,,,,,,,0x03,
2424,-708,-26,-711,-840,-980,2170,,,,,,,0x03,
2433,-708,-23,-708,-1120,-980,2100,,,,,,,0x03,
2443,-709,-19,-705,-1540,-840,2100,,,,,,,0x03,
2453,-708,-20,-706,-1960,-770,2100,,,,,,,0x03,
2462,-709,-17,-712,-2240,-700,2240,,,,,,,0x03,
2472,-712,-17,-714,-2310,-770,2240,,,,,,,0x03,
2482,-716,-14,-715,-2380,-770,2240,,,,,,,0x03,
2491,-714,-13,-714,-2240,-980,2310,,,,,,,0x03,
2501,-714,-16,-710,-2030,-980,2380,,,,,,,0x03,
2511,-714,-19,-709,-2030,-1050,2520,,,,,,,0x03,
2520,-710,-26,-707,-1330,-1050,2660,,,,,,,0x03,
2530,-712,-27,-708,-280,-980,2940,,,,,,,0x03,
2540,-714,-21,-711,350,-910,3080,,,,,,,0x03,
2549,-716,-17,-714,630,-840,2940,,,,,,,0x03,
2559,-715,-8,-714,350,-980,2800,,,,,,,0x03,
2569,-716,-5,-713,-840,-1190,2660,,,,,,,0x03,
2578,-713,-6,-711,-1960,-1400,2660,,,,,,,0x03,
2588,-711,-7,-711,-2450,-1540,2520,,,,,,,0x03,
2598,-713,-13,-707,-2520,-1540,2730,,,,,,,0x03,
2607,-714,-17,-710,-2520,-1610,2870,,,,,,,0x03,
2617,-717,-23,-707,-1540,-1470,2870,,,,,,,0x03,
2627,-714,-17,-707,-630,-1400,2940,,,,,,,0x03,
2636,-709,-14,-711,70,-1260,2940,,,,,,,0x03,
2646,-708,-5,-713,280,-1260,2870,,,,,,,0x03,
2655,-710,0,-715,-420,-1330,2800,,,,,,,0x03,
2665,-711,1,-710,-1610,-1470,2660,,,,,,,0x03,
2675,-707,-1,-709,-2450,-1540,2450,,,,,,,0x03,
2684,-706,-8,-708,-3010,-1470,2380,,,,,,,0x03,
2694,-707,-11,-709,-3150,-1470,2450,,,,,,,0x03,
2704,-705,-14,-711,-2240,-1330,2520,,,,,,,0x03,
2713,-706,-12,-713,-770,-1260,2590,,,,,,,0x03,
2723,-714,-7,-711,140,-1120,2730,,,,,,,0x03,
2733,-718,-1,-710,350,-1190,2800,,,,,,,0x03,
2742,-717,0,-709,560,-1190,2800,,,,,,,0x03,
2752,-717,0,-708,0,-1260,2800,,,,,,,0x03,
2762,-717,-3,-705,-840,-1330,2870,,,,,,,0x03,
2771,-714,-6,-708,-980,-1330,2800,,,,,,,0x03,
2781,-716,-6,-707,-840,-1260,2730,,,,,,,0x03,
2791,-713,-3,-707,-980,-1190,2590,,,,,,,0x03,
2800,-714,0,-709,-910,-1120,2590,,,,,,,0x03,
2810,-715,2,-710,-980,-1260,2590,,,,,,,0x03,
2820,-717,0,-708,-1330,-1330,2590,,,,,,,0x03,
2829,-721,-1,-710,-1400,-1400,2660,,,,,,,0x03,
2839,-721,-3,-710,-840,-1610,2520,,,,,,,0x03,
2849,-722,1,-708,-490,-1610,2590,,,,,,,0x03,
2858,-718,4,-704,-420,-1610,2590,,,,,,,0x03,
2868,-715,4,-702,-280,-1610,2590,,,,,,,0x03,
2878,-714,4,-700,70,-1610,2660,,,,,,,0x03,
2887,-716,3,-702,140,-1470,2800,,,,,,,0x03,
2897,-721,0,-703,280,-1330,2800,,,,,,,0x03,
2907,-724,-2,-705,70,-1260,2730,,,,,,,0x03,
2916,-723,-1,-704,-70,-1330,2590,,,,,,,0x03,
2926,-720,0,-703,-420,-1260,2450,,,,,,,0x03,
2936,-716,2,-702,-700,-1190,2380,,,,,,,0x03,
2945,-714,3,-701,-1120,-1050,2380,,,,,,,0x03,
2955,-713,5,-703,-1400,-840,2450,,,,,,,0x03,
2964,-714,5,-705,-1400,-770,2520,,,,,,,0x03,
2974,-717,4,-704,-1820,-700,2590,,,,,,,0x03,
2984,-715,4,-705,-2030,-700,2520,,,,,,,0x03,
2993,-710,2,-704,-1750,-490,2450,,,,,,,0x03,
3003,-707,5,-711,-1400,-350,2450,,,,,,,0x03,
3013,-709,6,-716,-560,-350,2520,,,,,,,0x03,
3022,-712,9,-719,-560,-560,2520,,,,,,,0x03,
3032,-711,9,-712,-910,-700,2380,,,,,,,0x03,
3042,-710,5,-709,-1120,-840,2240,,,,,,,0x03,
3051,-707,2,-712,-420,-910,2310,,,,,,,0x03,
3061,-707,0,-716,350,-840,2450,,,,,,,0x03,
3071,-710,0,-711,770,-840,2590,,,,,,,0x03,
3080,-718,-2,-708,770,-840,2660,,,,,,,0x03,
3090,-724,-9,-705,910,-910,2450,,,,,,,0x03,
3100,-723,-8,-702,770,-980,2170,,,,,,,0x03,
3109,-717,0,-703,350,-840,1960,,,,,,,0x03,
3119,-717,3,-704,-350,-700,1890,,,,,,,0x03,
3129,-721,8,-708,-1820,-770,1960,,,,,,,0x03,
3138,-720,9,-707,-3290,-840,1680,,,,,,,0x03,
3148,-715,8,-711,-3850,-770,1190,,,,,,,0x03,
3158,-711,20,-711,-4690,-910,980,,,,,,,0x03,
3167,-712,21,-705,-5950,-980,840,,,,,,,0x03,
3177,-712,24,-707,-6720,-910,700,,,,,,,0x03,
3187,-713,21,-709,-6510,-980,630,,,,,,,0x03,
3196,-713,22,-708,-5950,-1050,700,,,,,,,0x03,
3206,-715,24,-710,-5110,-980,840,,,,,,,0x03,
3216,-715,23,-708,-4060,-1050,980,,,,,,,0x03,
3225,-716,23,-704,-2800,-1050,980,,,,,,,0x03,
3235,-719,21,-702,-1750,-980,1190,,,,,,,0x03,
3245,-720,16,-702,-980,-910,1260,,,,,,,0x03,
3254,-716,17,-704,140,-840,1190,,,,,,,0x03,
3264,-715,18,-707,840,-770,1120,,,,,,,0x03,
3273,-715,26,-708,700,-630,1120,,,,,,,0x03,
3283,-713,33,-709,-350,-630,910,,,,,,,0x03,
3293,-710,32,-706,-1540,-770,490,,,,,,,0x03,
3302,-708,33,-704,-2940,-770,210,,,,,,,0x03,
3312,-709,30,-703,-3850,-630,140,,,,,,,0x03,
3322,-709,23,-708,-3780,-560,70,,,,,,,0x03,
3331,-710,17,-713,-2730,-490,0,,,,,,,0x03,
3341,-709,21,-713,-910,-420,70,,,,,,,0x03,
3351,-713,20,-709,140,-560,420,,,,,,,0x03,
3360,-711,27,-714,1120,-700,560,,,,,,,0x03,
3370,-710,31,-713,2170,-840,490,,,,,,,0x03,
3380,-710,36,-712,1960,-910,560,,,,,,,0x03,
3389,-710,33,-714,1680,-1120,560,,,,,,,0x03,
3399,-711,24,-713,1960,-1260,490,,,,,,,0x03,
3409,-718,14,-709,2030,-1330,490,,,,,,,0x03,
3418,-720,11,-705,2310,-1400,420,,,,,,,0x03,
3428,-715,14,-703,3010,-1260,210,,,,,,,0x03,
3438,-713,19,-702,3150,-1260,280,,,,,,,0x03,
3447,-713,22,-704,2800,-1120,350,,,,,,,0x03,
3457,-715,17,-705,2660,-1120,420,,,,,,,0x03,
3467,-719,16,-704,2520,-1050,420,,,,,,,0x03,
3476,-724,15,-706,2660,-980,280,,,,,,,0x03,
3486,-723,14,-703,2660,-910,140,,,,,,,0x03,
3496,-721,22,-701,2170,-910,0,,,,,,,0x03,
3505,-722,25,-701,1470,-840,-70,,,,,,,0x03,
3515,-724,26,-700,350,-980,-210,,,,,,,0x03,
3525,-722,22,-700,-420,-910,-350,,,,,,,0x03,
3534,-719,18,-703,-280,-840,-280,,,,,,,0x03,
3544,-719,17,-701,-210,-700,-210,,,,,,,0x03,
3554,-717,16,-699,70,-560,-210,,,,,,,0x03,
3563,-712,16,-701,840,-490,-210,,,,,,,0x03,
3573,-713,19,-703,1470,-210,-70,,,,,,,0x03,
3582,-716,17,-705,1540,-140,70,,,,,,,0x03,
3592,-719,15,-708,2030,-70,0,,,,,,,0x03,
3602,-721,17,-707,2450,-70,-70,,,,,,,0x03,
3611,-720,20,-705,1890,-70,-140,,,,,,,0x03,
3621,-716,24,-704,1260,-140,-350,,,,,,,0x03,
3631,-708,24,-707,980,-210,-490,,,,,,,0x03,
3640,-709,21,-709,490,-210,-420,,,,,,,0x03,
3650,-712,16,-709,0,-210,-420,,,,,,,0x03,
3660,-709,14,-706,210,-140,-630,,,,,,,0x03,
3669,-707,11,-706,840,-70,-630,,,,,,,0x03,
3679,-708,9,-708,1750,140,-420,,,,,,,0x03,
3689,-711,8,-709,2660,210,-350,,,,,,,0x03,
3698,-714,11,-709,3500,210,-280,,,,,,,0x03,
3708,-713,10,-706,3850,210,-420,,,,,,,0x03,
3718,-719,13,-705,3570,280,-420,,,,,,,0x03,
3727,-722,14,-708,3780,210,-420,,,,,,,0x03,
3737,-723,12,-707,4270,140,-420,,,,,,,0x03,
3747,-727,16,-707,3920,140,-350,,,,,,,0x03,
3756,-725,12,-704,3850,0,-420,,,,,,,0x03,
3766,-724,9,-704,3570,-70,-490,,,,,,,0x03,
3776,-721,9,-704,3430,-70,-490,,,,,,,0x03,
3785,-720,9,-703,3010,0,-490,,,,,,,0x03,
3795,-716,10,-703,2520,70,-420,,,,,,,0x03,
3805,-716,10,-704,2240,140,-420,,,,,,,0x03,
3814,-714,10,-706,1890,140,-490,,,,,,,0x03,
3824,-714,10,-711,1610,210,-420,,,,,,,0x03,
3834,-710,10,-714,1540,140,-560,,,,,,,0x03,
3843,-707,11,-715,1260,70,-560,,,,,,,0x03,
3853,-706,13,-713,1050,70,-560,,,,,,,0x03,
3863,-705,11,-711,770,70,-560,,,,,,,0x03,
3872,-701,11,-715,840,70,-490,,,,,,,0x03,
3882,-699,7,-718,1190,70,-350,,,,,,,0x03,
3891,-703,7,-717,980,140,-210,,,,,,,0x03,
3901,-704,8,-715,630,140,-280,,,,,,,0x03,
3911,-703,8,-711,630,140,-490,,,,,,,0x03,
3920,-705,7,-704,-70,280,-490,,,,,,,0x03,
3930,-710,4,-703,-490,490,-280,,,,,,,0x03,
3940,-712,0,-703,-420,700,-210,,,,,,,0x03,
3949,-715,0,-705,-140,840,-210,,,,,,,0x03,
3959,-719,0,-709,560,910,-280,,,,,,,0x03,
3969,-724,4,-712,980,910,-350,,,,,,,0x03,
3978,-722,10,-715,1330,770,-490,,,,,,,0x03,
3988,-721,13,-715,1050,560,-560,,,,,,,0x03,
3998,-719,14,-714,490,210,-630,,,,,,,0x03,
4007,-717,12,-714,0,0,-770,,,,,,,0x03,
4017,-712,9,-712,-420,-210,-840,,,,,,,0x03,
4027,-712,8,-711,-700,-350,-840,,,,,,,0x03,
4036,-713,3,-712,-350,-350,-770,,,,,,,0x03,
4046,-711,0,-713,560,-420,-770,,,,,,,0x03,
4056,-711,6,-712,1400,-420,-630,,,,,,,0x03,
4065,-710,10,-714,1610,-420,-630,,,,,,,0x03,
4075,-707,13,-717,1890,-420,-700,,,,,,,0x03,
4085,-706,15,-720,1750,-560,-700,,,,,,,0x03,
4094,-706,17,-720,1120,-700,-630,,,,,,,0x03,
4104,-704,14,-720,490,-910,-700,,,,,,,0x03,
4114,-703,10,-718,-280,-1120,-840,,,,,,,0x03,
4123,-702,7,-713,-980,-1260,-910,,,,,,,0x03,
4133,-699,4,-710,-1260,-1120,-980,,,,,,,0x03,
4143,-698,4,-710,-1120,-980,-980,,,,,,,0x03,
4152,-700,3,-710,-910,-700,-840,,,,,,,0x03,
4162,-703,3,-709,-700,-490,-700,,,,,,,0x03,
4172,-703,0,-713,-280,-350,-770,,,,,,,0x03,
4181,-707,0,-711,350,-280,-700,,,,,,,0x03,
4191,-716,1,-717,700,-210,-560,,,,,,,0x03,
4200,-719,1,-719,1330,-280,-490,,,,,,,0x03,
4210,-721,6,-717,1540,-490,-700,,,,,,,0x03,
4220,-719,8,-712,490,-840,-980,,,,,,,0x03,
4229,-720,9,-709,-70,-1050,-1330,,,,,,,0x03,
4239,-722,8,-705,-420,-1190,-1470,,,,,,,0x03,
4249,-721,11,-705,-910,-1260,-1400,,,,,,,0x03,
4258,-716,12,-706,-630,-1190,-1330,,,,,,,0x03,
4268,-716,9,-706,-630,-1050,-1330,,,,,,,0x03,
4278,-718,6,-704,-630,-1120,-1260,,,,,,,0x03,
4287,-719,3,-700,-140,-980,-1330,,,,,,,0x03,
4297,-714,0,-701,910,-770,-1330,,,,,,,0x03,
4307,-709,1,-707,2030,-420,-1120,,,,,,,0x03,
4316,-708,5,-709,2800,-140,-840,,,,,,,0x03,
4326,-704,8,-710,3150,0,-770,,,,,,,0x03,
4336,-703,8,-711,3570,140,-630,,,,,,,0x03,
4345,-701,9,-711,3710,350,-420,,,,,,,0x03,
4355,-699,3,-714,3430,420,-140,,,,,,,0x03,
4365,-701,0,-717,3710,560,70,,,,,,,0x03,
4374,-704,-7,-723,3780,560,210,,,,,,,0x03,
4384,-705,-8,-723,3570,350,350,,,,,,,0x03,
4394,-705,-3,-720,2590,280,350,,,,,,,0x03,
4403,-703,2,-719,1120,140,280,,,,,,,0x03,
4413,-697,9,-720,-560,140,70,,,,,,,0x03,
4423,-697,9,-720,-3360,70,-280,,,,,,,0x03,
4432,-703,10,-723,-6510,-280,-560,,,,,,,0x03,
4442,-709,-4,-726,-8540,-700,-910,,,,,,,0x03,
4452,-711,-14,-725,-9240,-1050,-1260,,,,,,,0x03,
4461,-716,-22,-722,-9380,-1260,-1260,,,,,,,0x03,
4471,-722,-24,-716,-8680,-1540,-1330,,,,,,,0x03,
4481,-728,-22,-708,-7560,-1680,-1330,,,,,,,0x03,
4490,-734,-15,-702,-6720,-1610,-1120,,,,,,,0x03,
4500,-739,-5,-696,-5670,-1610,-1050,,,,,,,0x03,
4509,-737,7,-695,-5110,-1470,-910,,,,,,,0x03,
4519,-731,15,-694,-4830,-1400,-630,,,,,,,0x03,
4529,-722,21,-693,-4760,-1260,-420,,,,,,,0x03,
4538,-711,19,-695,-4620,-980,-210,,,,,,,0x03,
4548,-703,11,-698,-4270,-770,0,,,,,,,0x03,
4558,-702,4,-707,-2870,-420,280,,,,,,,0x03,
4567,-704,-2,-718,-490,-140,560,,,,,,,0x03,
4577,-709,-3,-722,1960,0,910,,,,,,,0x03,
4587,-710,7,-725,3780,-70,1120,,,,,,,0x03,
4596,-706,15,-725,5180,-280,1050,,,,,,,0x03,
4606,-706,20,-719,5040,-560,1050,,,,,,,0x03,
4616,-704,28,-717,3990,-700,980,,,,,,,0x03,
4625,-701,25,-716,2730,-840,700,,,,,,,0x03,
4635,-698,19,-715,1050,-980,560,,,,,,,0x03,
4645,-701,14,-712,-350,-840,350,,,,,,,0x03,
4654,-699,7,-713,-1190,-700,140,,,,,,,0x03,
4664,-696,4,-713,-1050,-630,70,,,,,,,0x03,
4674,-692,2,-709,-910,-420,280,,,,,,,0x03,
4683,-693,3,-710,-980,0,420,,,,,,,0x03,
4693,-695,0,-710,0,280,420,,,,,,,0x03,
4703,-700,-1,-712,980,560,490,,,,,,,0x03,
4712,-703,1,-717,2240,840,630,,,,,,,0x03,
4722,-707,8,-720,3290,980,630,,,,,,,0x03,
4732,-712,14,-719,3640,770,560,,,,,,,0x03,
4741,-716,16,-717,3360,420,490,,,,,,,0x03,
4751,-719,14,-720,2940,210,350,,,,,,,0x03,
4761,-721,9,-719,2590,-140,210,,,,,,,0x03,
4770,-718,4,-716,1610,-420,-70,,,,,,,0x03,
4780,-715,2,-712,910,-490,-140,,,,,,,0x03,
4790,-712,0,-710,700,-630,-350,,,,,,,0x03,
4799,-709,4,-709,560,-630,-350,,,,,,,0x03,
4809,-710,6,-712,350,-560,-350,,,,,,,0x03,
4818,-710,8,-714,700,-560,-350,,,,,,,0x03,
4828,-708,12,-714,840,-630,-350,,,,,,,0x03,
4838,-709,11,-712,1120,-630,-350,,,,,,,0x03,
4847,-711,10,-716,1820,-630,-70,,,,,,,0x03,
4857,-712,4,-712,2800,-630,70,,,,,,,0x03,
4867,-714,1,-708,3080,-560,350,,,,,,,0x03,
4876,-713,-1,-707,4200,-490,420,,,,,,,0x03,
4886,-715,-1,-705,4900,-280,490,,,,,,,0x03,
4896,-715,2,-709,4760,-70,560,,,,,,,0x03,
4905,-714,5,-713,4550,-140,420,,,,,,,0x03,
4915,-713,7,-713,3640,-70,280,,,,,,,0x03,
4925,-714,5,-711,2170,-140,210,,,,,,,0x03,
4934,-707,8,-713,1260,-210,0,,,,,,,0x03,
4944,-697,7,-711,770,-210,-70,,,,,,,0x03,
4954,-700,5,-713,280,-70,210,,,,,,,0x03,
4963,-708,-2,-717,420,70,490,,,,,,,0x03,
4973,-707,-7,-722,1050,-70,490,,,,,,,0x03,
4983,-703,-8,-721,1680,-70,350,,,,,,,0x03,
4992,-705,-3,-720,1750,-70,350,,,,,,,0x03,
5002,-701,2,-721,1820,-70,350,,,,,,,0x03,
5012,-697,4,-717,1400,-210,280,,,,,,,0x03,
5021,-702,5,-716,280,-280,490,,,,,,,0x03,
5031,-706,0,-716,-210,-280,490,,,,,,,0x03,
5041,-705,-5,-714,-420,-350,490,,,,,,,0x03,
5050,-708,-4,-711,-490,-280,630,,,,,,,0x03,
5060,-707,-7,-710,-350,0,630,,,,,,,0x03,
5070,-708,-4,-712,350,210,700,,,,,,,0x03,
5079,-710,-1,-713,630,350,700,,,,,,,0x03,
5089,-710,0,-713,210,350,700,,,,,,,0x03,
5099,-711,3,-709,210,490,700,,,,,,,0x03,
5108,-712,3,-708,-490,630,700,,,,,,,0x03,
5118,-712,1,-709,-980,700,630,,,,,,,0x03,
5128,-711,-1,-706,-1190,840,630,,,,,,,0x03,
5137,-712,0,-709,-1260,1050,700,,,,,,,0x03,
5147,-710,4,-713,-1050,1260,700,,,,,,,0x03,
5156,-710,8,-718,-980,1330,770,,,,,,,0x03,
5166,-710,9,-724,-910,1190,770,,,,,,,0x03,
5176,-707,14,-728,-770,910,770,,,,,,,0x03,
5185,-707,14,-729,-910,560,770,,,,,,,0x03,
5195,-706,10,-727,-1190,140,770,,,,,,,0x03,
5205,-707,8,-724,-980,-210,840,,,,,,,0x03,
5214,-704,3,-723,-630,-490,770,,,,,,,0x03,
5224,-701,1,-719,280,-700,910,,,,,,,0x03,
5234,-703,0,-717,630,-490,1050,,,,,,,0x03,
5243,-701,3,-718,1260,-490,1190,,,,,,,0x03,
5253,-699,0,-719,1750,-490,1190,,,,,,,0x03,
5263,-699,2,-720,1610,-350,1190,,,,,,,0x03,
5272,-699,5,-717,1470,-140,1190,,,,,,,0x03,
5282,-697,10,-717,910,-70,1120,,,,,,,0x03,
5292,-696,11,-720,140,-140,980,,,,,,,0x03,
5301,-701,5,-721,-490,-140,910,,,,,,,0x03,
5311,-700,4,-724,-630,-70,910,,,,,,,0x03,
5321,-696,4,-725,-490,-70,770,,,,,,,0x03,
5330,-695,8,-721,-490,-70,630,,,,,,,0x03,
5340,-694,10,-717,-910,-70,490,,,,,,,0x03,
5350,-695,13,-719,-1050,-70,490,,,,,,,0x03,
5359,-696,10,-717,-1050,70,490,,,,,,,0x03,
5369,-700,8,-723,-910,140,700,,,,,,,0x03,
5379,-704,5,-723,-280,210,770,,,,,,,0x03,
5388,-707,10,-727,350,140,700,,,,,,,0x03,
5398,-704,12,-732,980,-70,630,,,,,,,0x03,
5408,-702,17,-732,980,-350,630,,,,,,,0x03,
5417,-701,17,-731,770,-700,630,,,,,,,0x03,
5427,-703,14,-724,350,-1050,630,,,,,,,0x03,
5437,-704,12,-723,-210,-1330,630,,,,,,,0x03,
5446,-703,5,-721,-210,-1540,630,,,,,,,0x03,
5456,-706,0,-723,-70,-1610,700,,,,,,,0x03,
5465,-707,-2,-718,280,-1610,700,,,,,,,0x03,
5475,-706,2,-718,700,-1470,560,,,,,,,0x03,
5485,-708,7,-719,700,-1540,490,,,,,,,0x03,
5494,-706,8,-715,210,-1680,490,,,,,,,0x03,
5504,-705,9,-715,-490,-1610,420,,,,,,,0x03,
5514,-703,9,-715,-840,-1540,350,,,,,,,0x03,
5523,-700,10,-718,-1050,-1540,420,,,,,,,0x03,
5533,-701,7,-719,-1260,-1400,420,,,,,,,0x03,
5543,-703,7,-717,-1330,-1400,420,,,,,,,0x03,
5552,-705,11,-711,-1540,-1330,210,,,,,,,0x03,
5562,-701,12,-713,-1330,-1120,210,,,,,,,0x03,
5572,-700,12,-715,-630,-980,420,,,,,,,0x03,
5581,-706,10,-719,-420,-840,630,,,,,,,0x03,
5591,-708,7,-721,-70,-840,630,,,,,,,0x03,
5601,-706,11,-723,840,-980,490,,,,,,,0x03,
5610,-704,15,-721,630,-1050,350,,,,,,,0x03,
5620,-707,14,-722,-280,-1260,280,,,,,,,0x03,
5630,-707,14,-723,-840,-1470,140,,,,,,,0x03,
5639,-704,14,-722,-1540,-1680,-70,,,,,,,0x03,
5649,-701,17,-724,-2240,-1750,-210,,,,,,,0x03,
5659,-701,14,-726,-2870,-1960,-350,,,,,,,0x03,
5668,-705,13,-723,-3150,-2170,-420,,,,,,,0x03,
5678,-704,10,-719,-3010,-2240,-560,,,,,,,0x03,
5688,-707,7,-713,-2450,-2240,-490,,,,,,,0x03,
5697,-706,7,-709,-1680,-2100,-420,,,,,,,0x03,
5707,-704,7,-703,-770,-1890,-210,,,,,,,0x03,
5717,-705,6,-700,-70,-1470,0,,,,,,,0x03,
5726,-709,7,-702,630,-1050,70,,,,,,,0x03,
5736,-710,11,-707,1470,-630,140,,,,,,,0x03,
5746,-710,17,-709,1960,-350,0,,,,,,,0x03,
5755,-712,24,-711,1400,-140,140,,,,,,,0x03,
5765,-707,28,-716,630,-70,-70,,,,,,,0x03,
5774,-704,24,-721,70,-210,-280,,,,,,,0x03,
5784,-706,19,-723,-630,-350,-280,,,,,,,0x03,
5794,-708,14,-721,-700,-560,-280,,,,,,,0x03,
5803,-707,8,-717,-630,-700,-350,,,,,,,0x03,
5813,-706,4,-713,140,-700,-280,,,,,,,0x03,
5823,-707,2,-711,980,-420,-70,,,,,,,0x03,
5832,-711,2,-715,1890,-210,70,,,,,,,0x03,
5842,-708,9,-718,3010,-210,0,,,,,,,0x03,
5852,-705,16,-717,3150,-210,-70,,,,,,,0x03,
5861,-709,20,-717,2310,-280,0,,,,,,,0x03,
5871,-711,16,-718,1610,-490,-70,,,,,,,0x03,
5881,-709,12,-721,980,-630,-210,,,,,,,0x03,
5890,-706,7,-718,630,-770,-280,,,,,,,0x03,
5900,-706,3,-715,280,-770,-140,,,,,,,0x03,
5910,-703,1,-716,910,-700,-70,,,,,,,0x03,
5919,-703,-1,-716,1610,-630,0,,,,,,,0x03,
5929,-704,2,-718,1820,-560,140,,,,,,,0x03,
5939,-704,3,-718,2170,-560,280,,,,,,,0x03,
5948,-702,8,-718,1820,-490,280,,,,,,,0x03,
5958,-698,13,-717,1260,-490,210,,,,,,,0x03,
5968,-697,13,-719,630,-490,210,,,,,,,0x03,
5977,-702,8,-723,-70,-490,210,,,,,,,0x03,
5987,-704,3,-724,-490,-560,280,,,,,,,0x03,
5997,-704,0,-727,-350,-630,210,,,,,,,0x03,
6006,-703,0,-725,-70,-700,140,,,,,,,0x03,
6016,-701,5,-719,-770,-840,140,,,,,,,0x03,
6026,-698,8,-719,-1050,-1050,140,,,,,,,0x03,
6035,-699,5,-716,-1400,-980,280,,,,,,,0x03,
6045,-704,2,-718,-1680,-910,490,,,,,,,0x03,
6055,-705,1,-719,-840,-840,350,,,,,,,0x03,
6064,-703,7,-721,-700,-840,280,,,,,,,0x03,
6074,-705,15,-722,-630,-910,350,,,,,,,0x03,
6083,-706,19,-723,-770,-1050,420,,,,,,,0x03,
6093,-708,20,-720,-1610,-1330,420,,,,,,,0x03,
6103,-708,14,-717,-2310,-1470,350,,,,,,,0x03,
6112,-705,7,-711,-2660,-1540,280,,,,,,,0x03,
6122,-708,4,-708,-2310,-1400,350,,,,,,,0x03,
6132,-706,3,-707,-1260,-1260,560,,,,,,,0x03,
6141,-707,6,-712,350,-980,910,,,,,,,0x03,
6151,-711,7,-715,1680,-770,1120,,,,,,,0x03,
6161,-711,14,-719,2380,-770,1190,,,,,,,0x03,
6170,-711,20,-719,2800,-910,980,,,,,,,0x03,
6180,-706,24,-718,1960,-980,840,,,,,,,0x03,
6190,-702,22,-717,1050,-1120,910,,,,,,,0x03,
6199,-705,19,-718,420,-1190,980,,,,,,,0x03,
6209,-707,10,-717,0,-1400,980,,,,,,,0x03,
6219,-707,7,-716,420,-1400,980,,,,,,,0x03,
6228,-708,1,-719,1330,-1330,980,,,,,,,0x03,
6238,-711,4,-720,2800,-1400,1120,,,,,,,0x03,
6248,-712,9,-720,3780,-1470,1190,,,,,,,0x03,
6257,-707,13,-722,3780,-1610,1260,,,,,,,0x03,
6267,-703,16,-723,3640,-1750,1190,,,,,,,0x03,
6277,-704,13,-725,2450,-2030,1050,,,,,,,0x03,
6286,-704,11,-725,1470,-2310,840,,,,,,,0x03,
6296,-702,10,-725,770,-2520,770,,,,,,,0x03,
6306,-702,9,-722,-70,-2730,700,,,,,,,0x03,
6315,-698,10,-719,-770,-2800,560,,,,,,,0x03,
6325,-698,9,-718,-980,-2800,560,,,,,,,0x03,
6335,-698,8,-719,-980,-2730,490,,,,,,,0x03,
6344,-699,7,-714,-910,-2590,560,,,,,,,0x03,
6354,-700,6,-712,-1050,-2520,630,,,,,,,0x03,
6364,-696,7,-713,-980,-2240,560,,,,,,,0x03,
6373,-699,8,-714,-770,-2030,560,,,,,,,0x03,
6383,-702,14,-711,-980,-1890,560,,,,,,,0x03,
6392,-706,12,-718,-1260,-1820,630,,,,,,,0x03,
6402,-710,12,-722,-980,-1890,630,,,,,,,0x03,
6412,-707,16,-721,-1190,-1960,630,,,,,,,0x03,
6421,-706,16,-719,-1680,-2240,560,,,,,,,0x03,
6431,-702,15,-716,-1470,-2380,560,,,,,,,0x03,
6441,-703,14,-723,-980,-2590,630,,,,,,,0x03,
6450,-708,11,-725,-420,-2800,770,,,,,,,0x03,
6460,-709,15,-728,-210,-3010,840,,,,,,,0x03,
6470,-706,15,-728,0,-3290,630,,,,,,,0x03,
6479,-712,20,-734,-70,-3780,350,,,,,,,0x03,
6489,-715,19,-731,-1190,-4550,0,,,,,,,0x03,
6499,-715,17,-727,-2520,-5320,-210,,,,,,,0x03,
6508,-715,14,-720,-3080,-5810,-420,,,,,,,0x03,
6518,-713,12,-715,-3570,-6300,-490,,,,,,,0x03,
6528,-711,12,-713,-3850,-6510,-560,,,,,,,0x03,
6537,-712,13,-707,-4060,-6580,-560,,,,,,,0x03,
6547,-713,10,-698,-4270,-6370,-560,,,,,,,0x03,
6557,-715,9,-692,-4410,-6160,-490,,,,,,,0x03,
6566,-717,6,-690,-3570,-5740,-420,,,,,,,0x03,
6576,-723,7,-682,-2800,-5110,-350,,,,,,,0x03,
6586,-724,12,-683,-2590,-4410,0,,,,,,,0x03,
6595,-724,13,-681,-1680,-3850,140,,,,,,,0x03,
6605,-727,19,-680,-1400,-3220,420,,,,,,,0x03,
6615,-730,21,-678,-1400,-2520,630,,,,,,,0x03,
6624,-729,24,-677,-1820,-1960,630,,,,,,,0x03,
6634,-726,24,-681,-2240,-1540,560,,,,,,,0x03,
6644,-729,23,-685,-2590,-980,700,,,,,,,0x03,
6653,-733,21,-692,-3150,-630,770,,,,,,,0x03,
6663,-733,18,-695,-2870,-560,770,,,,,,,0x03,
6673,-729,19,-699,-2240,-350,770,,,,,,,0x03,
6682,-723,22,-702,-1540,-280,840,,,,,,,0x03,
6692,-720,27,-704,-980,-420,910,,,,,,,0x03,
6701,-717,33,-704,-490,-490,980,,,,,,,0x03,
6711,-718,30,-705,-490,-560,1050,,,,,,,0x03,
6721,-723,31,-704,-210,-700,1050,,,,,,,0x03,
6730,-722,28,-703,-210,-910,980,,,,,,,0x03,
6740,-718,26,-702,70,-910,980,,,,,,,0x03,
6750,-719,24,-703,700,-980,980,,,,,,,0x03,
6759,-718,21,-705,1820,-1050,1050,,,,,,,0x03,
6769,-721,18,-703,3150,-1050,1120,,,,,,,0x03,
6779,-723,23,-703,4060,-980,1190,,,,,,,0x03,
6788,-725,26,-699,4550,-1050,1050,,,,,,,0x03,
6798,-717,27,-700,4760,-1050,910,,,,,,,0x03,
6808,-716,33,-700,4410,-910,840,,,,,,,0x03,
6817,-718,35,-695,3290,-840,700,,,,,,,0x03,
6827,-709,33,-694,2310,-700,490,,,,,,,0x03,
6837,-707,29,-696,1890,-420,490,,,,,,,0x03,
6846,-710,25,-700,1820,-70,630,,,,,,,0x03,
6856,-712,15,-700,2940,140,770,,,,,,,0x03,
6866,-714,12,-708,4340,280,910,,,,,,,0x03,
6875,-719,5,-714,6440,210,980,,,,,,,0x03,
6885,-727,2,-714,8330,0,1050,,,,,,,0x03,
6895,-726,0,-709,9590,-280,910,,,,,,,0x03,
6904,-723,-6,-707,10990,-630,840,,,,,,,0x03,
6914,-719,-2,-709,12320,-700,840,,,,,,,0x03,
6924,-722,-2,-711,13090,-840,770,,,,,,,0x03,
6933,-724,0,-708,13300,-980,630,,,,,,,0x03,
6943,-727,2,-706,12950,-1120,280,,,,,,,0x03,
6953,-726,4,-704,12180,-1260,-140,,,,,,,0x03,
6962,-720,10,-700,10990,-1330,-490,,,,,,,0x03,
6972,-711,13,-697,9590,-1190,-630,,,,,,,0x03,
6982,-707,15,-701,8260,-1050,-700,,,,,,,0x03,
6991,-708,15,-703,7420,-770,-560,,,,,,,0x03,
7001,-712,15,-704,6370,-560,-560,,,,,,,0x03,
7010,-715,15,-703,5460,-420,-700,,,,,,,0x03,
7020,-715,16,-698,4130,-420,-770,,,,,,,0x03,
7030,-710,12,-704,3080,-420,-910,,,,,,,0x03,
7039,-709,7,-708,3010,-280,-910,,,,,,,0x03,
7049,-715,7,-712,2800,-140,-700,,,,,,,0x03,
7059,-715,9,-712,2870,-140,-770,,,,,,,0x03,
7068,-715,14,-709,2730,-210,-840,,,,,,,0x03,
7078,-710,20,-709,1890,-210,-840,,,,,,,0x03,
7088,-706,22,-707,1540,-210,-840,,,,,,,0x03,
7097,-710,21,-706,560,-210,-700,,,,,,,0x03,
7107,-714,12,-711,-350,-420,-700,,,,,,,0x03,
7117,-718,1,-709,-350,-560,-770,,,,,,,0x03,
7126,-722,-7,-710,-560,-560,-910,,,,,,,0x03,
7136,-724,-10,-711,-210,-700,-980,,,,,,,0x03,
7146,-720,-8,-710,350,-770,-1050,,,,,,,0x03,
7155,-720,-2,-705,-280,-910,-1050,,,,,,,0x03,
7165,-722,0,-701,-1260,-980,-1190,,,,,,,0x03,
7175,-727,-2,-695,-2450,-1120,-1400,,,,,,,0x03,
7184,-727,-3,-696,-3150,-1260,-1470,,,,,,,0x03,
7194,-723,-4,-698,-2590,-1120,-1540,,,,,,,0x03,
7204,-719,-3,-700,-2380,-980,-1470,,,,,,,0x03,
7213,-719,0,-704,-1680,-910,-1400,,,,,,,0x03,
7223,-718,0,-703,-980,-980,-1400,,,,,,,0x03,
7233,-717,-3,-704,-490,-840,-1330,,,,,,,0x03,
7242,-719,-7,-705,560,-770,-1120,,,,,,,0x03,
7252,-721,-5,-707,1470,-770,-980,,,,,,,0x03,
7262,-719,0,-708,2520,-700,-840,,,,,,,0x03,
7271,-721,4,-708,2730,-700,-840,,,,,,,0x03,
7281,-721,9,-708,2450,-980,-910,,,,,,,0x03,
7291,-717,11,-703,2030,-1120,-1120,,,,,,,0x03,
7300,-713,10,-702,1260,-1050,-1120,,,,,,,0x03,
7310,-711,3,-701,490,-980,-1050,,,,,,,0x03,
7319,-714,1,-699,-210,-770,-910,,,,,,,0x03,
7329,-716,-1,-701,-560,-630,-980,,,,,,,0x03,
7339,-718,-3,-702,-770,-490,-1050,,,,,,,0x03,
7348,-717,-3,-706,-560,-280,-1050,,,,,,,0x03,
7358,-717,-2,-707,140,-350,-1050,,,,,,,0x03,
7368,-716,-2,-708,700,-420,-980,,,,,,,0x03,
7377,-713,-3,-706,980,-420,-980,,,,,,,0x03,
7387,-714,-6,-704,1190,-350,-980,,,,,,,0x03,
7397,-712,-6,-705,1750,-280,-980,,,,,,,0x03,
7406,-712,-3,-702,1680,-210,-980,,,,,,,0x03,
7416,-714,0,-702,1610,-140,-910,,,,,,,0x03,
7426,-716,1,-703,1890,0,-770,,,,,,,0x03,
7435,-719,-1,-706,1820,0,-770,,,,,,,0x03,
7445,-721,-4,-707,1820,-70,-770,,,,,,,0x03,
7455,-723,-6,-706,2240,-140,-770,,,,,,,0x03,
7464,-724,-6,-707,2590,-210,-770,,,,,,,0x03,
7474,-721,-2,-707,2520,-280,-700,,,,,,,0x03,
7484,-718,0,-708,2240,-420,-630,,,,,,,0x03,
7493,-719,-1,-705,1750,-490,-630,,,,,,,0x03,
7503,-719,-1,-705,1400,-630,-630,,,,,,,0x03,
7513,-719,-10,-702,1120,-630,-700,,,,,,,0x03,
7522,-719,-12,-701,1050,-560,-630,,,,,,,0x03,
7532,-717,-14,-699,1540,-350,-630,,,,,,,0x03,
7542,-717,-13,-698,1680,-140,-560,,,,,,,0x03,
7551,-716,-11,-704,1890,70,-420,,,,,,,0x03,
7561,-715,-10,-709,2100,70,-420,,,,,,,0x03,
7571,-719,-9,-709,1540,0,-350,,,,,,,0x03,
7580,-720,-8,-711,1120,-140,-490,,,,,,,0x03,
7590,-720,-13,-709,840,-280,-630,,,,,,,0x03,
7600,-723,-10,-706,0,-420,-630,,,,,,,0x03,
7609,-716,-7,-707,-630,-630,-700,,,,,,,0x03,
7619,-714,-8,-709,-630,-630,-770,,,,,,,0x03,
7628,-715,-9,-710,-980,-630,-630,,,,,,,0x03,
7638,-714,-10,-709,-1050,-700,-630,,,,,,,0x03,
7648,-713,-10,-711,-560,-770,-700,,,,,,,0x03,
7657,-713,-10,-712,-350,-910,-770,,,,,,,0x03,
7667,-718,-5,-710,-630,-910,-630,,,,,,,0x03,
7677,-720,-9,-708,-910,-1120,-560,,,,,,,0x03,
7686,-715,-11,-708,-280,-1330,-700,,,,,,,0x03,
7696,-716,-11,-707,70,-1330,-560,,,,,,,0x03,
7706,-717,-10,-710,980,-1260,-210,,,,,,,0x03,
7715,-714,-13,-708,1890,-1400,-70,,,,,,,0x03,
7725,-714,-12,-709,2730,-1470,70,,,,,,,0x03,
7735,-721,-16,-711,3780,-1470,140,,,,,,,0x03,
7744,-723,-10,-708,4060,-1680,140,,,,,,,0x03,
7754,-722,-6,-705,3640,-1820,70,,,,,,,0x03,
7764,-718,-4,-703,3220,-1890,0,,,,,,,0x03,
7773,-719,-4,-706,2660,-1820,140,,,,,,,0x03,
7783,-719,-9,-706,2520,-1890,210,,,,,,,0x03,
7793,-719,-12,-704,2030,-1890,280,,,,,,,0x03,
7802,-717,-13,-705,1960,-1820,210,,,,,,,0x03,
7812,-717,-16,-704,1750,-1680,70,,,,,,,0x03,
7822,-718,-13,-699,630,-1680,140,,,,,,,0x03,
7831,-711,-11,-697,-560,-1540,140,,,,,,,0x03,
7841,-706,-15,-697,-1470,-1400,70,,,,,,,0x03,
7851,-709,-16,-702,-2520,-1190,140,,,,,,,0x03,
7860,-712,-20,-706,-3010,-1050,0,,,,,,,0x03,
7870,-715,-18,-712,-3150,-910,-210,,,,,,,0x03,
7880,-718,-13,-712,-3290,-1050,-280,,,,,,,0x03,
7889,-720,-7,-713,-3710,-1120,-420,,,,,,,0x03,
7899,-717,-3,-711,-4340,-1470,-560,,,,,,,0x03,
7909,-714,0,-706,-5460,-1750,-630,,,,,,,0x03,
7918,-715,-3,-700,-6230,-1820,-700,,,,,,,0x03,
7928,-717,-8,-697,-6510,-1680,-630,,,,,,,0x03,
7937,-714,-13,-698,-5460,-1540,-630,,,,,,,0x03,
7947,-718,-14,-699,-3920,-1190,-420,,,,,,,0x03,
7957,-723,-10,-699,-2590,-980,-210,,,,,,,0x03,
7966,-723,-1,-701,-1050,-840,-210,,,,,,,0x03,
7976,-724,2,-702,-420,-840,-280,,,,,,,0x03,
7986,-728,5,-699,-840,-910,-140,,,,,,,0x03,
7995,-723,3,-699,-770,-980,-280,,,,,,,0x03,
8005,-718,1,-699,140,-910,-210,,,,,,,0x03,
8015,-720,-2,-696,350,-770,0,,,,,,,0x03,
8024,-721,-4,-695,1190,-630,140,,,,,,,0x03,
8034,-725,-4,-696,2380,-490,210,,,,,,,0x03,
8044,-725,-5,-694,2800,-280,280,,,,,,,0x03,
8053,-722,-6,-699,3570,-70,280,,,,,,,0x03,
8063,-722,-7,-703,4200,70,350,,,,,,,0x03,
8073,-722,-9,-706,4270,0,420,,,,,,,0x03,
8082,-720,-8,-706,4340,-70,350,,,,,,,0x03,
8092,-719,-8,-702,3990,-70,210,,,,,,,0x03,
8102,-717,-9,-703,3360,-70,140,,,,,,,0x03,
8111,-715,-6,-703,3220,-140,70,,,,,,,0x03,
8121,-717,-5,-702,2450,0,70,,,,,,,0x03,
8131,-717,-6,-703,1330,70,70,,,,,,,0x03,
8140,-716,-9,-707,700,70,-140,,,,,,,0x03,
8150,-716,-12,-708,210,0,-420,,,,,,,0x03,
8160,-720,-14,-705,-560,-70,-420,,,,,,,0x03,
8169,-718,-11,-707,-980,-140,-490,,,,,,,0x03,
8179,-715,-10,-707,-560,-210,-560,,,,,,,0x03,
8189,-718,-7,-707,-490,-210,-350,,,,,,,0x03,
8198,-721,-7,-706,-210,-280,-280,,,,,,,0x03,
8208,-724,-11,-702,350,-420,-280,,,,,,,0x03,
8218,-725,-10,-703,1050,-490,-210,,,,,,,0x03,
8227,-722,-12,-702,1820,-420,-140,,,,,,,0x03,
8237,-721,-11,-704,2380,-350,70,,,,,,,0x03,
8246,-719,-9,-704,2520,-280,70,,,,,,,0x03,
8256,-717,-6,-705,2240,-350,0,,,,,,,0x03,
8266,-715,-6,-705,1680,-350,-70,,,,,,,0x03,
8275,-715,-10,-704,630,-420,-70,,,,,,,0x03,
8285,-713,-13,-704,210,-420,-70,,,,,,,0x03,
8295,-712,-12,-705,350,-350,-70,,,,,,,0x03,
8304,-714,-12,-709,770,-280,0,,,,,,,0x03,
8314,-717,-14,-712,1190,-350,140,,,,,,,0x03,
8324,-717,-16,-710,1470,-420,140,,,,,,,0x03,
8333,-713,-17,-708,2030,-490,70,,,,,,,0x03,
8343,-713,-16,-705,2310,-420,210,,,,,,,0x03,
8353,-712,-13,-708,2100,-490,210,,,,,,,0x03,
8362,-711,-11,-710,1750,-560,140,,,,,,,0x03,
8372,-715,-7,-710,980,-560,70,,,,,,,0x03,
8382,-717,-6,-711,-70,-700,-70,,,,,,,0x03,
8391,-715,-8,-709,-840,-700,-280,,,,,,,0x03,
8401,-712,-10,-705,-1750,-840,-420,,,,,,,0x03,
8411,-710,-8,-706,-2450,-770,-490,,,,,,,0x03,
8420,-713,-7,-705,-3010,-700,-420,,,,,,,0x03,
8430,-713,-3,-706,-3500,-490,-420,,,,,,,0x03,
8440,-716,0,-706,-5250,-560,-490,,,,,,,0x03,
8449,-719,-4,-708,-6650,-840,-770,,,,,,,0x03,
8459,-723,-12,-709,-7280,-980,-1120,,,,,,,0x03,
8469,-722,-16,-710,-7070,-1190,-1260,,,,,,,0x03,
8478,-724,-19,-710,-6440,-1330,-1190,,,,,,,0x03,
8488,-725,-18,-710,-4830,-1400,-1120,,,,,,,0x03,
8498,-722,-11,-707,-3710,-1540,-1120,,,,,,,0x03,
8507,-716,-5,-705,-2730,-1470,-910,,,,,,,0x03,
8517,-714,0,-704,-1960,-1470,-770,,,,,,,0x03,
8527,-712,4,-701,-1540,-1470,-770,,,,,,,0x03,
8536,-711,4,-701,-1120,-1400,-560,,,,,,,0x03,
8546,-717,0,-701,-700,-1330,-490,,,,,,,0x03,
8555,-721,-5,-701,-70,-1190,-420,,,,,,,0x03,
8565,-718,-10,-701,840,-980,-350,,,,,,,0x03,
8575,-716,-13,-702,1820,-840,-140,,,,,,,0x03,
8584,-720,-12,-704,2870,-770,0,,,,,,,0x03,
8594,-722,-10,-702,3150,-770,70,,,,,,,0x03,
8604,-721,-4,-702,2940,-700,70,,,,,,,0x03,
8613,-723,-1,-701,2520,-700,-70,,,,,,,0x03,
8623,-724,0,-702,1470,-840,-140,,,,,,,0x03,
8633,-721,-4,-702,350,-910,-210,,,,,,,0x03,
8642,-714,-11,-702,140,-840,-280,,,,,,,0x03,
8652,-712,-18,-701,280,-770,-280,,,,,,,0x03,
8662,-714,-19,-703,840,-490,-140,,,,,,,0x03,
8671,-715,-14,-705,1750,-350,-70,,,,,,,0x03,
8681,-715,-8,-710,1820,-420,0,,,,,,,0x03,
8691,-720,-3,-711,1190,-560,-70,,,,,,,0x03,
8700,-723,-3,-712,490,-840,-210,,,,,,,0x03,
8710,-720,-7,-712,-70,-1050,-490,,,,,,,0x03,
8720,-722,-11,-708,-1330,-1260,-700,,,,,,,0x03,
8729,-721,-12,-702,-2730,-1400,-980,,,,,,,0x03,
8739,-716,-10,-707,-3010,-1540,-1120,,,,,,,0x03,
8749,-713,-8,-701,-3640,-1540,-1120,,,,,,,0x03,
8758,-714,-5,-707,-5040,-1470,-980,,,,,,,0x03,
8768,-714,-9,-707,-4620,-1610,-1190,,,,,,,0x03,
8778,-717,-11,-707,-4480,-1540,-1120,,,,,,,0x03,
8787,-714,-11,-706,-3430,-1470,-1050,,,,,,,0x03,
8797,-715,-7,-711,-1890,-1330,-1050,,,,,,,0x03,
8807,-713,-5,-707,-840,-1470,-980,,,,,,,0x03,
8816,-714,2,-707,-560,-1540,-770,,,,,,,0x03,
8826,-712,1,-709,-70,-1540,-630,,,,,,,0x03,
8836,-715,0,-708,420,-1680,-560,,,,,,,0x03,
8845,-718,1,-707,420,-1750,-490,,,,,,,0x03,
8855,-716,-3,-704,280,-1540,-490,,,,,,,0x03,
8864,-715,-5,-701,140,-1540,-560,,,,,,,0x03,
8874,-715,-8,-701,70,-1610,-630,,,,,,,0x03,
8884,-716,-9,-697,-280,-1470,-630,,,,,,,0x03,
8893,-716,-11,-697,-420,-1190,-490,,,,,,,0x03,
8903,-712,-13,-694,70,-910,-490,,,,,,,0x03,
8913,-713,-11,-695,70,-560,-280,,,,,,,0x03,
8922,-716,-10,-696,0,-140,-210,,,,,,,0x03,
8932,-718,-6,-700,-70,70,-350,,,,,,,0x03,
8942,-720,-3,-701,-70,70,-420,,,,,,,0x03,
8951,-728,-2,-705,-770,140,-280,,,,,,,0x03,
8961,-729,-5,-703,-1610,-70,-420,,,,,,,0x03,
8971,-729,-12,-704,-1820,-280,-560,,,,,,,0x03,
8980,-728,-12,-702,-1960,-350,-560,,,,,,,0x03,
8990,-723,-12,-705,-1890,-420,-560,,,,,,,0x03,
9000,-719,-11,-704,-1610,-420,-490,,,,,,,0x03,
9009,-718,-5,-704,-1750,-490,-420,,,,,,,0x03,
9019,-717,-6,-705,-1750,-490,-490,,,,,,,0x03,
9029,-718,-5,-706,-1890,-490,-560,,,,,,,0x03,
9038,-720,-1,-705,-2310,-560,-560,,,,,,,0x03,
9048,-719,-2,-705,-3220,-700,-700,,,,,,,0x03,
9058,-719,-1,-706,-3640,-770,-770,,,,,,,0x03,
9067,-721,-7,-706,-3920,-910,-770,,,,,,,0x03,
9077,-722,-9,-705,-3710,-910,-840,,,,,,,0x03,
9087,-720,-7,-704,-2660,-840,-910,,,,,,,0x03,
9096,-719,-2,-701,-2170,-770,-910,,,,,,,0x03,
9106,-720,1,-701,-1820,-770,-980,,,,,,,0x03,
9116,-721,3,-701,-1680,-840,-840,,,,,,,0x03,
9125,-725,2,-698,-1960,-840,-560,,,,,,,0x03,
9135,-727,-1,-701,-1470,-840,-490,,,,,,,0x03,
9145,-727,-9,-700,-840,-840,-420,,,,,,,0x03,
9154,-726,-10,-697,-490,-700,-350,,,,,,,0x03,
9164,-724,-9,-696,350,-560,-420,,,,,,,0x03,
9173,-719,-3,-695,630,-420,-490,,,,,,,0x03,
9183,-718,3,-697,280,-280,-420,,,,,,,0x03,
9193,-719,7,-699,-140,-70,-280,,,,,,,0x03,
9202,-723,5,-701,-980,-70,-280,,,,,,,0x03,
9212,-724,0,-703,-1540,-210,-280,,,,,,,0x03,
9222,-719,-4,-706,-1260,-210,-420,,,,,,,0x03,
9231,-716,-5,-704,-700,-140,-420,,,,,,,0x03,
9241,-715,-5,-706,-70,-140,-280,,,,,,,0x03,
9251,-714,-4,-706,910,-70,-70,,,,,,,0x03,
9260,-715,0,-707,1260,-70,70,,,,,,,0x03,
9270,-713,1,-709,1470,-140,140,,,,,,,0x03,
9280,-716,0,-708,1330,-280,70,,,,,,,0x03,
9289,-718,-1,-708,770,-350,70,,,,,,,0x03,
9299,-718,-5,-708,770,-420,0,,,,,,,0x03,
9309,-717,-3,-711,840,-560,0,,,,,,,0x03,
9318,-717,-2,-711,140,-840,-70,,,,,,,0x03,
9328,-720,-5,-710,-630,-980,-140,,,,,,,0x03,
9338,-718,-3,-705,-1120,-1120,-280,,,,,,,0x03,
9347,-715,-4,-702,-1540,-1120,-350,,,,,,,0x03,
9357,-715,-6,-700,-1820,-1050,-210,,,,,,,0x03,
9367,-718,-11,-698,-2030,-910,-70,,,,,,,0x03,
9376,-719,-14,-698,-1610,-770,0,,,,,,,0x03,
9386,-717,-12,-699,-840,-490,-70,,,,,,,0x03,
9396,-718,-4,-697,-280,-280,0,,,,,,,0x03,
9405,-717,6,-706,-630,-140,140,,,,,,,0x03,
9415,-717,7,-706,-840,-140,210,,,,,,,0x03,
9425,-719,6,-710,-1470,-280,140,,,,,,,0x03,
9434,-720,10,-710,-1960,-420,70,,,,,,,0x03,
9444,-720,3,-710,-2310,-630,140,,,,,,,0x03,
9454,-720,-1,-708,-2590,-770,280,,,,,,,0x03,
9463,-720,-5,-706,-2380,-840,280,,,,,,,0x03,
9473,-717,-4,-705,-1470,-910,280,,,,,,,0x03,
9482,-718,0,-707,-1260,-910,420,,,,,,,0x03,
9492,-718,1,-705,-1120,-910,420,,,,,,,0x03,
9502,-717,2,-701,-1190,-910,420,,,,,,,0x03,
9511,-717,1,-703,-1680,-910,420,,,,,,,0x03,
9521,-718,-5,-704,-1680,-1050,350,,,,,,,0x03,
9531,-718,-7,-704,-1120,-980,350,,,,,,,0x03,
9540,-716,-5,-706,-490,-770,350,,,,,,,0x03,
9550,-711,-6,-707,210,-770,420,,,,,,,0x03,
9560,-713,-1,-709,770,-840,560,,,,,,,0x03,
9569,-718,1,-711,1050,-840,560,,,,,,,0x03,
9579,-722,4,-710,630,-1050,490,,,,,,,0x03,
9589,-722,8,-707,-280,-1330,350,,,,,,,0x03,
9598,-723,9,-704,-1400,-1470,140,,,,,,,0x03,
9608,-721,5,-700,-2730,-1610,0,,,,,,,0x03,
9618,-718,1,-697,-3430,-1610,0,,,,,,,0x03,
9627,-716,-2,-699,-3290,-1400,-70,,,,,,,0x03,
9637,-718,-5,-696,-2870,-1120,-70,,,,,,,0x03,
9647,-720,-1,-698,-2380,-910,0,,,,,,,0x03,
9656,-719,0,-699,-1120,-770,-70,,,,,,,0x03,
9666,-722,4,-701,-560,-490,70,,,,,,,0x03,
9676,-725,5,-702,-490,-490,140,,,,,,,0x03,
9685,-721,8,-707,210,-560,140,,,,,,,0x03,
9695,-718,9,-714,840,-700,70,,,,,,,0x03,
9705,-714,13,-718,1260,-910,70,,,,,,,0x03,
9714,-711,9,-718,1610,-1260,-70,,,,,,,0x03,
9724,-712,11,-714,1680,-1610,-70,,,,,,,0x03,
9734,-713,8,-712,1820,-1890,-70,,,,,,,0x03,
9743,-712,2,-709,1890,-2100,-140,,,,,,,0x03,
9753,-710,1,-707,1750,-2100,-70,,,,,,,0x03,
9763,-712,-1,-709,1750,-2170,0,,,,,,,0x03,
9772,-713,-1,-705,2170,-2170,-70,,,,,,,0x03,
9782,-718,1,-699,2240,-2030,-70,,,,,,,0x03,
9792,-723,5,-695,1610,-1960,-70,,,,,,,0x03,
9801,-722,1,-696,1610,-1890,-210,,,,,,,0x03,
9811,-722,4,-701,1680,-1750,-210,,,,,,,0x03,
9820,-722,2,-703,1050,-1680,-140,,,,,,,0x03,
9830,-716,6,-710,1260,-1750,-140,,,,,,,0x03,
9840,-719,9,-715,1470,-1890,-210,,,,,,,0x03,
9849,-723,10,-714,980,-2310,-350,,,,,,,0x03,
9859,-722,10,-713,350,-2660,-560,,,,,,,0x03,
9869,-718,6,-707,-70,-3010,-840,,,,,,,0x03,
9878,-717,2,-699,-630,-3080,-980,,,,,,,0x03,
9888,-715,-3,-698,-630,-3080,-910,,,,,,,0x03,
9898,-714,-8,-699,490,-3010,-770,,,,,,,0x03,
9907,-717,-7,-700,1890,-2800,-560,,,,,,,0x03,
9917,-722,-2,-703,3080,-2590,-420,,,,,,,0x03,
9927,-725,0,-699,3780,-2590,-350,,,,,,,0x03,
9936,-726,5,-699,3710,-2590,-420,,,,,,,0x03,
9946,-726,7,-702,3360,-2730,-490,,,,,,,0x03,
9956,-722,7,-704,2730,-2870,-560,,,,,,,0x03,
9965,-719,7,-706,1260,-3080,-700,,,,,,,0x03,
9975,-718,1,-705,420,-3220,-910,,,,,,,0x03,
9985,-721,-1,-711,-210,-3570,-1120,,,,,,,0x03,
9994,-725,1,-713,-1120,-4060,-1400,,,,,,,0x03,
10004,-725,-3,-708,-1820,-4480,-1540,,,,,,,0x03,
10014,-725,-4,-703,-2380,-4690,-1540,,,,,,,0x03,
10023,-722,-7,-703,-2100,-4830,-1540,,,,,,,0x03,
10033,-718,-13,-698,-910,-4830,-1470,,,,,,,0x03,
10043,-720,-11,-692,70,-4620,-1190,,,,,,,0x03,
10052,-722,-10,-687,840,-4340,-840,,,,,,,0x03,
10062,-721,-10,-683,1610,-3990,-840,,,,,,,0x03,
10072,-725,-6,-681,1960,-3570,-630,,,,,,,0x03,
10081,-733,-6,-684,1750,-3220,-630,,,,,,,0x03,
10091,-736,-6,-684,1190,-3010,-630,,,,,,,0x03,
10101,-736,-4,-683,210,-2870,-770,,,,,,,0x03,
10110,-737,-3,-677,-770,-2520,-910,,,,,,,0x03,
10120,-737,-2,-674,-1680,-2240,-910,,,,,,,0x03,
10129,-736,0,-672,-2450,-1890,-840,,,,,,,0x03,
10139,-735,-6,-675,-2660,-1400,-700,,,,,,,0x03,
10149,-740,-10,-674,-2730,-1050,-560,,,,,,,0x03,
10158,-742,-10,-680,-2240,-770,-490,,,,,,,0x03,
10168,-737,-12,-686,-560,-490,-490,,,,,,,0x03,
10178,-739,-6,-688,700,-280,-210,,,,,,,0x03,
10187,-747,-1,-687,1050,-140,0,,,,,,,0x03,
10197,-743,1,-683,1260,-280,0,,,,,,,0x03,
10207,-739,2,-682,700,-210,-70,,,,,,,0x03,
10216,-739,0,-682,350,0,70,,,,,,,0x03,
10226,-740,-3,-685,350,140,210,,,,,,,0x03,
10236,-737,-5,-682,140,210,280,,,,,,,0x03,
10245,-738,-7,-684,-140,420,420,,,,,,,0x03,
10255,-736,-8,-686,-140,630,280,,,,,,,0x03,
10265,-735,-6,-685,-560,630,210,,,,,,,0x03,
10274,-732,-4,-688,-1400,770,210,,,,,,,0x03,
10284,-733,-6,-686,-2240,840,140,,,,,,,0x03,
10294,-732,-7,-686,-3080,910,70,,,,,,,0x03,
10303,-729,-12,-684,-3080,1120,0,,,,,,,0x03,
10313,-728,-12,-686,-2520,1470,70,,,,,,,0x03,
10323,-725,-9,-688,-1540,1750,140,,,,,,,0x03,
10332,-723,-3,-690,-700,1960,210,,,,,,,0x03,
10342,-723,4,-694,-280,2240,350,,,,,,,0x03,
10352,-723,7,-699,-210,2310,490,,,,,,,0x03,
10361,-728,3,-700,-560,2170,490,,,,,,,0x03,
10371,-725,1,-697,-770,2100,560,,,,,,,0x03,
10381,-721,0,-698,-490,2100,490,,,,,,,0x03,
10390,-724,1,-697,-630,2030,490,,,,,,,0x03,
10400,-725,2,-699,-1050,1960,560,,,,,,,0x03,
10410,-720,0,-701,-770,1820,490,,,,,,,0x03,
10419,-721,0,-703,-490,1750,630,,,,,,,0x03,
10429,-726,-1,-703,-630,1680,840,,,,,,,0x03,
10438,-725,-3,-702,-560,1610,770,,,,,,,0x03,
10448,-721,0,-703,-560,1540,630,,,,,,,0x03,
10458,-725,5,-707,-1190,1400,630,,,,,,,0x03,
10467,-726,10,-707,-2520,1190,490,,,,,,,0x03,
10477,-719,11,-708,-4130,840,70,,,,,,,0x03,
10487,-717,7,-706,-5460,490,-210,,,,,,,0x03,
10496,-717,2,-701,-5880,420,-210,,,,,,,0x03,
10506,-716,-2,-699,-5600,420,-70,,,,,,,0x03,
10516,-717,-7,-700,-4130,560,140,,,,,,,0x03,
10525,-717,-6,-702,-2100,840,350,,,,,,,0x03,
10535,-718,1,-706,-770,980,560,,,,,,,0x03,
10545,-716,6,-701,140,1050,630,,,,,,,0x03,
10554,-714,13,-706,350,1050,700,,,,,,,0x03,
10564,-713,11,-709,630,910,560,,,,,,,0x03,
10574,-715,13,-704,210,840,630,,,,,,,0x03,
10583,-713,10,-706,-560,910,630,,,,,,,0x03,
10593,-711,6,-710,-70,840,350,,,,,,,0x03,
10603,-715,4,-710,350,700,350,,,,,,,0x03,
10612,-719,5,-709,210,560,420,,,,,,,0x03,
10622,-715,4,-713,980,420,490,,,,,,,0x03,
10632,-713,4,-713,2030,140,420,,,,,,,0x03,
10641,-714,9,-712,2310,-70,560,,,,,,,0x03,
10651,-714,9,-714,2450,-210,560,,,,,,,0x03,
10661,-713,10,-708,2240,-420,490,,,,,,,0x03,
10670,-715,7,-703,1610,-630,490,,,,,,,0x03,
10680,-717,3,-703,1540,-630,420,,,,,,,0x03,
10690,-718,0,-701,1680,-490,490,,,,,,,0x03,
10699,-719,0,-702,1400,-420,490,,,,,,,0x03,
10709,-721,-1,-702,1470,-350,490,,,,,,,0x03,
10719,-726,0,-701,1330,-350,420,,,,,,,0x03,
10728,-722,3,-702,980,-420,280,,,,,,,0x03,
10738,-721,3,-703,910,-420,280,,,,,,,0x03,
10747,-722,4,-704,630,-420,420,,,,,,,0x03,
10757,-720,6,-706,210,-560,350,,,,,,,0x03,
10767,-718,4,-702,70,-630,210,,,,,,,0x03,
10776,-723,9,-704,-630,-560,350,,,,,,,0x03,
10786,-719,5,-704,-490,-700,280,,,,,,,0x03,
10796,-720,4,-704,-420,-700,280,,,,,,,0x03,
10805,-722,5,-702,-280,-700,350,,,,,,,0x03,
10815,-721,3,-704,210,-630,420,,,,,,,0x03,
10825,-719,4,-703,630,-700,420,,,,,,,0x03,
10834,-722,2,-700,630,-700,490,,,,,,,0x03,
10844,-720,0,-699,770,-560,490,,,,,,,0x03,
10854,-715,0,-702,1120,-560,490,,,,,,,0x03,
10863,-714,3,-705,1190,-490,490,,,,,,,0x03,
10873,-717,8,-709,1260,-490,490,,,,,,,0x03,
10883,-720,8,-708,840,-630,490,,,,,,,0x03,
10892,-718,8,-707,70,-840,420,,,,,,,0x03,
10902,-714,4,-708,70,-980,280,,,,,,,0x03,
10912,-716,0,-706,70,-1050,280,,,,,,,0x03,
10921,-719,-1,-704,140,-980,420,,,,,,,0x03,
10931,-718,-1,-703,840,-980,420,,,,,,,0x03,
10941,-716,1,-702,1120,-910,420,,,,,,,0x03,
10950,-716,4,-704,1330,-840,420,,,,,,,0x03,
10960,-722,12,-707,1540,-770,490,,,,,,,0x03,
10970,-722,6,-701,840,-840,490,,,,,,,0x03,
10979,-717,8,-699,490,-770,420,,,,,,,0x03,
10989,-718,8,-700,840,-560,350,,,,,,,0x03,
10999,-721,5,-698,350,-560,350,,,,,,,0x03,
11008,-725,6,-697,-350,-630,420,,,,,,,0x03,
11018,-723,2,-697,210,-490,350,,,,,,,0x03,
11028,-720,4,-699,420,-350,420,,,,,,,0x03,
11037,-720,4,-704,910,-280,560,,,,,,,0x03,
11047,-724,5,-701,1260,-210,560,,,,,,,0x03,
11056,-727,9,-701,700,-280,630,,,,,,,0x03,
11066,-725,4,-700,560,-280,630,,,,,,,0x03,
11076,-727,1,-699,280,-350,630,,,,,,,0x03,
11085,-726,-1,-700,-210,-350,840,,,,,,,0x03,
11095,-725,-2,-698,-140,-280,840,,,,,,,0x03,
11105,-724,-1,-696,-630,-140,770,,,,,,,0x03,
11114,-723,0,-697,-1260,0,560,,,,,,,0x03,
11124,-721,0,-700,-1750,140,420,,,,,,,0x03,
11134,-719,3,-700,-2590,140,350,,,,,,,0x03,
11143,-723,4,-700,-3640,210,350,,,,,,,0x03,
11153,-724,3,-699,-4200,210,280,,,,,,,0x03,
11163,-721,1,-704,-4200,140,140,,,,,,,0x03,
11172,-720,2,-704,-3850,140,210,,,,,,,0x03,
11182,-720,5,-704,-3430,280,280,,,,,,,0x03,
11192,-717,6,-703,-2660,350,280,,,,,,,0x03,
11201,-709,10,-703,-1750,420,420,,,,,,,0x03,
11211,-705,10,-704,-1050,630,630,,,,,,,0x03,
11221,-708,9,-707,-350,770,840,,,,,,,0x03,
11230,-714,10,-715,280,840,1050,,,,,,,0x03,
11240,-716,12,-720,630,560,910,,,,,,,0x03,
11250,-718,17,-716,0,280,630,,,,,,,0x03,
11259,-716,21,-714,-1050,-70,280,,,,,,,0x03,
11269,-712,18,-711,-1750,-490,0,,,,,,,0x03,
11279,-712,14,-709,-2310,-630,-70,,,,,,,0x03,
11288,-712,7,-705,-2450,-560,0,,,,,,,0x03,
11298,-707,4,-706,-1820,-420,0,,,,,,,0x03,
11308,-708,5,-710,-560,-350,0,,,,,,,0x03,
11317,-712,8,-709,210,-280,-70,,,,,,,0x03,
11327,-714,17,-708,420,-280,-70,,,,,,,0x03,
11337,-717,18,-706,280,-350,-140,,,,,,,0x03,
11346,-717,19,-705,-280,-420,-140,,,,,,,0x03,
11356,-713,18,-707,-350,-350,-210,,,,,,,0x03,
11365,-709,16,-708,-350,-350,-140,,,,,,,0x03,
11375,-712,14,-708,-210,-420,-70,,,,,,,0x03,
11385,-715,12,-709,350,-420,-70,,,,,,,0x03,
11394,-719,9,-706,1120,-350,0,,,,,,,0x03,
11404,-721,8,-706,1610,-350,0,,,,,,,0x03,
11414,-718,8,-710,2380,-420,70,,,,,,,0x03,
11423,-719,8,-710,2730,-490,70,,,,,,,0x03,
11433,-720,10,-712,2310,-700,70,,,,,,,0x03,
11443,-723,9,-711,2240,-910,-70,,,,,,,0x03,
11452,-721,9,-709,1470,-1120,-210,,,,,,,0x03,
11462,-716,14,-711,770,-1260,-420,,,,,,,0x03,
11472,-712,12,-709,350,-1400,-560,,,,,,,0x03,
11481,-710,13,-708,-420,-1540,-560,,,,,,,0x03,
11491,-711,10,-709,-560,-1610,-630,,,,,,,0x03,
11501,-713,5,-709,-490,-1610,-770,,,,,,,0x03,
11510,-714,5,-713,-280,-1680,-700,,,,,,,0x03,
11520,-715,6,-709,560,-1820,-700,,,,,,,0x03,
11530,-719,9,-707,700,-1820,-700,,,,,,,0x03,
11539,-718,9,-703,910,-1820,-700,,,,,,,0x03,
11549,-716,7,-701,1050,-1680,-770,,,,,,,0x03,
11559,-711,5,-701,1260,-1610,-700,,,,,,,0x03,
11568,-710,5,-704,1820,-1470,-770,,,,,,,0x03,
11578,-713,8,-708,2170,-1330,-700,,,,,,,0x03,
11588,-717,12,-706,2030,-1260,-770,,,,,,,0x03,
11597,-716,13,-703,1540,-1190,-910,,,,,,,0x03,
11607,-718,12,-704,1120,-1190,-980,,,,,,,0x03,
11617,-723,9,-702,910,-1190,-1050,,,,,,,0x03,
11626,-723,6,-701,840,-1120,-980,,,,,,,0x03,
11636,-723,10,-702,1190,-1120,-910,,,,,,,0x03,
11646,-721,7,-701,1400,-1050,-910,,,,,,,0x03,
11655,-717,10,-699,1820,-980,-910,,,,,,,0x03,
11665,-716,8,-696,1890,-840,-770,,,,,,,0x03,
11674,-718,6,-699,2170,-700,-630,,,,,,,0x03,
11684,-721,3,-700,2730,-420,-490,,,,,,,0x03,
11694,-725,-1,-694,2520,-350,-420,,,,,,,0x03,
11703,-721,-7,-700,3150,-140,-490,,,,,,,0x03,
11713,-722,1,-701,4200,140,-560,,,,,,,0x03,
11723,-728,7,-705,3710,70,-280,,,,,,,0x03,
11732,-721,7,-704,3360,-70,-420,,,,,,,0x03,
11742,-722,11,-707,2380,-140,-630,,,,,,,0x03,
11752,-723,5,-712,1680,-350,-770,,,,,,,0x03,
11761,-719,1,-714,1120,-700,-980,,,,,,,0x03,
11771,-717,3,-718,770,-910,-980,,,,,,,0x03,
11781,-711,2,-715,910,-1190,-1050,,,,,,,0x03,
11790,-706,3,-718,840,-1470,-1120,,,,,,,0x03,
11800,-704,4,-719,1400,-1680,-1330,,,,,,,0x03,
11810,-707,1,-713,910,-1890,-1470,,,,,,,0x03,
11819,-708,0,-706,490,-1960,-1400,,,,,,,0x03,
11829,-712,-6,-703,630,-1820,-1400,,,,,,,0x03,
11839,-715,-11,-699,840,-1680,-1400,,,,,,,0x03,
11848,-714,-14,-696,700,-1400,-1260,,,,,,,0x03,
11858,-713,-21,-691,980,-980,-1260,,,,,,,0x03,
11868,-711,-13,-690,1050,-560,-1260,,,,,,,0x03,
11877,-711,-3,-691,1050,-140,-1120,,,,,,,0x03,
11887,-717,-2,-695,420,350,-1120,,,,,,,0x03,
11897,-722,-2,-699,-210,490,-1120,,,,,,,0x03,
11906,-725,1,-701,-560,560,-1050,,,,,,,0x03,
11916,-727,0,-705,-490,420,-980,,,,,,,0x03,
11926,-728,-1,-709,-490,420,-910,,,,,,,0x03,
11935,-729,-7,-708,0,210,-840,,,,,,,0x03,
11945,-726,-4,-710,770,0,-770,,,,,,,0x03,
11955,-725,2,-710,1610,-140,-630,,,,,,,0x03,
11964,-726,5,-708,1470,-350,-560,,,,,,,0x03,
11974,-726,6,-706,1120,-630,-490,,,,,,,0x03,
11983,-726,6,-702,700,-770,-490,,,,,,,0x03,
11993,-722,5,-699,70,-770,-490,,,,,,,0x03,
12003,-718,1,-703,-70,-630,-420,,,,,,,0x03,
12012,-717,0,-707,0,-630,-280,,,,,,,0x03,
12022,-712,1,-709,-70,-700,-140,,,,,,,0x03,
12032,-709,0,-712,-210,-700,-70,,,,,,,0x03,
12041,-710,-3,-714,-630,-770,0,,,,,,,0x03,
12051,-711,-6,-719,-1190,-980,0,,,,,,,0x03,
12061,-714,-12,-715,-2030,-1260,-140,,,,,,,0x03,
12070,-716,-14,-706,-3500,-1400,-210,,,,,,,0x03,
12080,-711,-17,-706,-4130,-1470,-490,,,,,,,0x03,
12090,-707,-21,-707,-4340,-1400,-700,,,,,,,0x03,
12099,-710,-13,-708,-4900,-1260,-560,,,,,,,0x03,
12109,-710,-9,-707,-5040,-1260,-700,,,,,,,0x03,
12119,-715,-5,-709,-5390,-1260,-840,,,,,,,0x03,
12128,-719,1,-705,-5880,-1260,-980,,,,,,,0x03,
12138,-720,4,-705,-6230,-1190,-1190,,,,,,,0x03,
12148,-723,2,-700,-6720,-1260,-1260,,,,,,,0x03,
12157,-723,1,-696,-7070,-1190,-1050,,,,,,,0x03,
12167,-721,-1,-695,-6090,-910,-840,,,,,,,0x03,
12177,-720,-2,-695,-4480,-630,-630,,,,,,,0x03,
12186,-722,2,-692,-3080,-280,-350,,,,,,,0x03,
12196,-725,9,-688,-2310,70,-140,,,,,,,0x03,
12206,-727,8,-684,-2030,420,0,,,,,,,0x03,
12215,-730,9,-689,-1610,770,70,,,,,,,0x03,
12225,-731,6,-698,-840,980,210,,,,,,,0x03,
12235,-729,9,-703,-280,1120,490,,,,,,,0x03,
12244,-726,14,-705,-70,1120,560,,,,,,,0x03,
12254,-721,14,-705,140,980,560,,,,,,,0x03,
12264,-716,14,-704,70,840,560,,,,,,,0x03,
12273,-716,10,-705,140,910,630,,,,,,,0x03,
12283,-714,5,-708,630,910,840,,,,,,,0x03,
12292,-714,5,-711,1050,840,1050,,,,,,,0x03,
12302,-714,5,-712,1260,840,1050,,,,,,,0x03,
12312,-711,4,-711,1190,700,840,,,,,,,0x03,
12321,-706,3,-709,1260,630,770,,,,,,,0x03,
12331,-704,4,-710,1470,630,840,,,,,,,0x03,
12341,-701,5,-714,1750,700,840,,,,,,,0x03,
12350,-708,6,-717,1540,700,770,,,,,,,0x03,
12360,-712,8,-719,1120,560,700,,,,,,,0x03,
12370,-710,9,-718,910,350,420,,,,,,,0x03,
12379,-711,8,-715,210,70,280,,,,,,,0x03,
12389,-712,11,-715,0,-70,210,,,,,,,0x03,
12399,-708,8,-715,70,-210,70,,,,,,,0x03,
12408,-708,12,-712,-210,-350,0,,,,,,,0x03,
12418,-711,11,-709,-560,-350,70,,,,,,,0x03,
12428,-716,7,-707,-420,-350,-70,,,,,,,0x03,
12437,-716,8,-706,-140,-350,-210,,,,,,,0x03,
12447,-717,8,-706,210,-280,0,,,,,,,0x03,
12457,-717,9,-711,700,-280,70,,,,,,,0x03,
12466,-717,9,-714,1190,-350,70,,,,,,,0x03,
12476,-716,10,-712,1330,-490,0,,,,,,,0x03,
12486,-714,8,-711,1330,-560,-70,,,,,,,0x03,
12495,-713,3,-709,1400,-700,-70,,,,,,,0x03,
12505,-711,0,-706,1610,-630,70,,,,,,,0x03,
12515,-711,-3,-705,1540,-490,140,,,,,,,0x03,
12524,-713,-2,-706,1750,-420,210,,,,,,,0x03,
12534,-714,-3,-707,1890,-280,70,,,,,,,0x03,
12544,-716,1,-712,1750,-210,70,,,,,,,0x03,
12553,-714,6,-712,1400,-280,-70,,,,,,,0x03,
12563,-711,9,-712,700,-420,-140,,,,,,,0x03,
12573,-711,6,-711,-280,-560,-210,,,,,,,0x03,
12582,-710,2,-710,-700,-630,-280,,,,,,,0x03,
12592,-709,-1,-712,-560,-630,-280,,,,,,,0x03,
12601,-711,-2,-711,70,-630,-140,,,,,,,0x03,
12611,-712,0,-708,210,-420,0,,,,,,,0x03,
12621,-712,4,-712,630,-420,-140,,,,,,,0x03,
12630,-710,7,-712,1260,-420,-210,,,,,,,0x03,
12640,-710,13,-714,980,-420,-140,,,,,,,0x03,
12650,-712,14,-714,490,-490,-140,,,,,,,0x03,
12659,-713,12,-711,-280,-700,-210,,,,,,,0x03,
12669,-712,10,-710,-770,-770,-350,,,,,,,0x03,
12679,-713,5,-704,-1190,-700,-280,,,,,,,0x03,
12688,-712,1,-702,-1540,-630,-210,,,,,,,0x03,
12698,-712,-2,-701,-980,-420,-70,,,,,,,0x03,
12708,-717,-1,-704,-210,-210,0,,,,,,,0x03,
12717,-722,0,-702,-140,0,70,,,,,,,0x03,
12727,-722,0,-706,-70,70,70,,,,,,,0x03,
12737,-722,1,-706,70,0,0,,,,,,,0x03,
12746,-721,4,-708,-350,-70,0,,,,,,,0x03,
12756,-716,8,-710,-280,-210,0,,,,,,,0x03,
12766,-714,5,-709,-560,-140,-70,,,,,,,0x03,
12775,-714,4,-711,-630,-70,-70,,,,,,,0x03,
12785,-713,0,-706,-210,-70,0,,,,,,,0x03,
12795,-712,1,-707,490,0,140,,,,,,,0x03,
12804,-713,1,-708,1190,140,280,,,,,,,0x03,
12814,-715,1,-708,1470,280,280,,,,,,,0x03,
12824,-714,3,-711,1400,280,350,,,,,,,0x03,
12833,-713,4,-714,1540,350,210,,,,,,,0x03,
12843,-708,10,-716,1470,210,70,,,,,,,0x03,
12853,-704,11,-716,910,140,70,,,,,,,0x03,
12862,-704,8,-713,140,0,210,,,,,,,0x03,
12872,-702,7,-719,280,-70,0,,,,,,,0x03,
12882,-703,4,-723,1120,-210,-70,,,,,,,0x03,
12891,-711,6,-722,840,-420,0,,,,,,,0x03,
12901,-712,6,-722,840,-630,-70,,,,,,,0x03,
12910,-711,8,-717,1120,-910,-350,,,,,,,0x03,
12920,-710,10,-712,420,-1120,-420,,,,,,,0x03,
12930,-707,8,-709,140,-1120,-350,,,,,,,0x03,
12939,-703,5,-708,140,-1050,-280,,,,,,,0x03,
12949,-704,0,-705,70,-840,-210,,,,,,,0x03,
12959,-705,-3,-711,910,-630,-140,,,,,,,0x03,
12968,-708,-2,-711,1750,-420,-140,,,,,,,0x03,
12978,-712,0,-711,1750,-210,-70,,,,,,,0x03,
12988,-716,3,-710,1750,-210,-140,,,,,,,0x03,
12997,-716,4,-709,1330,-280,-210,,,,,,,0x03,
13007,-717,5,-712,630,-420,-210,,,,,,,0x03,
13017,-719,0,-708,0,-560,-280,,,,,,,0x03,
13026,-720,0,-711,-280,-560,-280,,,,,,,0x03,
13036,-715,-3,-712,420,-630,-420,,,,,,,0x03,
13046,-718,0,-715,840,-700,-350,,,,,,,0x03,
13055,-718,5,-713,1120,-840,-210,,,,,,,0x03,
13065,-716,8,-715,1400,-980,-280,,,,,,,0x03,
13075,-713,8,-714,1330,-1190,-280,,,,,,,0x03,
13084,-711,7,-714,1050,-1400,-280,,,,,,,0x03,
13094,-707,2,-710,980,-1400,-210,,,,,,,0x03,
13104,-708,-3,-709,1050,-1330,-140,,,,,,,0x03,
13113,-707,-5,-708,1260,-1190,-70,,,,,,,0x03,
13123,-703,-4,-713,1890,-980,-140,,,,,,,0x03,
13133,-704,0,-717,2170,-840,-210,,,,,,,0x03,
13142,-706,5,-717,1330,-840,-280,,,,,,,0x03,
13152,-705,6,-715,350,-910,-420,,,,,,,0x03,
13162,-701,5,-716,-350,-980,-700,,,,,,,0x03,
13171,-700,6,-720,-980,-1050,-700,,,,,,,0x03,
13181,-705,2,-718,-1190,-1190,-490,,,,,,,0x03,
13191,-706,-2,-716,-1330,-1260,-490,,,,,,,0x03,
13200,-708,-3,-718,-490,-1330,-560,,,,,,,0x03,
13210,-711,-3,-715,560,-1400,-560,,,,,,,0x03,
13219,-714,1,-714,980,-1470,-420,,,,,,,0x03,
13229,-715,7,-712,1260,-1610,-280,,,,,,,0x03,
13239,-716,11,-711,840,-1680,-280,,,,,,,0x03,
13248,-717,14,-708,140,-1820,-350,,,,,,,0x03,
13258,-720,5,-708,-1120,-1960,-490,,,,,,,0x03,
13268,-719,-2,-705,-2030,-2240,-700,,,,,,,0x03,
13277,-716,-8,-705,-1750,-2170,-840,,,,,,,0x03,
13287,-711,-13,-711,-980,-2100,-770,,,,,,,0x03,
13297,-715,-11,-711,-350,-2030,-630,,,,,,,0x03,
13306,-718,-4,-709,210,-1960,-560,,,,,,,0x03,
13316,-717,-1,-708,280,-1960,-630,,,,,,,0x03,
13326,-716,5,-704,-280,-1960,-770,,,,,,,0x03,
13335,-713,4,-706,-840,-1960,-840,,,,,,,0x03,
13345,-712,3,-705,-1190,-1890,-840,,,,,,,0x03,
13355,-712,5,-704,-1400,-1750,-840,,,,,,,0x03,
13364,-708,3,-709,-1120,-1610,-840,,,,,,,0x03,
13374,-709,5,-715,-630,-1610,-840,,,,,,,0x03,
13384,-714,3,-713,-560,-1680,-840,,,,,,,0x03,
13393,-715,5,-712,-490,-1680,-840,,,,,,,0x03,
13403,-708,5,-709,-70,-1680,-910,,,,,,,0x03,
13413,-708,3,-710,70,-1610,-910,,,,,,,0x03,
13422,-709,0,-704,210,-1470,-700,,,,,,,0x03,
13432,-710,-2,-703,700,-1330,-630,,,,,,,0x03,
13442,-714,-3,-700,1750,-1120,-490,,,,,,,0x03,
13451,-718,-3,-695,1960,-840,-350,,,,,,,0x03,
13461,-718,0,-696,2030,-420,-280,,,,,,,0x03,
13471,-720,1,-700,2590,-210,-140,,,,,,,0x03,
13480,-727,7,-704,2520,-140,70,,,,,,,0x03,
13490,-730,7,-707,1330,-210,140,,,,,,,0x03,
13500,-726,1,-708,280,-490,-140,,,,,,,0x03,
13509,-724,-4,-711,-70,-700,-280,,,,,,,0x03,
13519,-721,-5,-713,770,-910,-140,,,,,,,0x03,
13528,-722,-11,-714,910,-1050,-140,,,,,,,0x03,
13538,-720,-8,-709,1050,-1260,-70,,,,,,,0x03,
13548,-713,-7,-709,1260,-1400,-70,,,,,,,0x03,
13557,-710,-10,-706,1330,-1470,-70,,,,,,,0x03,
13567,-712,-9,-706,1190,-1470,70,,,,,,,0x03,
13577,-708,-7,-707,1400,-1330,140,,,,,,,0x03,
13586,-709,-8,-704,1400,-1190,140,,,,,,,0x03,
13596,-714,-6,-709,980,-1120,140,,,,,,,0x03,
13606,-715,-7,-710,910,-1190,0,,,,,,,0x03,
13615,-717,-3,-713,490,-1260,-70,,,,,,,0x03,
13625,-719,-1,-713,-350,-1470,-140,,,,,,,0x03,
13635,-715,-1,-711,-1190,-1540,-280,,,,,,,0x03,
13644,-710,-1,-712,-1960,-1680,-350,,,,,,,0x03,
13654,-710,-2,-712,-2170,-1750,-350,,,,,,,0x03,
13664,-711,-5,-707,-2800,-1750,-350,,,,,,,0x03,
13673,-713,-8,-700,-3360,-1610,-420,,,,,,,0x03,
13683,-714,-11,-694,-3220,-1330,-560,,,,,,,0x03,
13693,-714,-10,-691,-3010,-910,-490,,,,,,,0x03,
13702,-713,-9,-691,-2660,-420,-280,,,,,,,0x03,
13712,-717,-7,-697,-2030,70,140,,,,,,,0x03,
13722,-724,-4,-702,-700,280,210,,,,,,,0x03,
13731,-728,1,-702,-420,350,140,,,,,,,0x03,
13741,-731,6,-704,-770,420,-210,,,,,,,0x03,
13751,-725,6,-705,-1190,280,-560,,,,,,,0x03,
13760,-722,6,-706,-2030,280,-770,,,,,,,0x03,
13770,-722,3,-701,-2380,210,-770,,,,,,,0x03,
13780,-720,-3,-706,-2240,280,-840,,,,,,,0x03,
13789,-714,-6,-703,-980,350,-840,,,,,,,0x03,
13799,-713,-1,-709,630,420,-770,,,,,,,0x03,
13809,-710,2,-711,2240,420,-630,,,,,,,0x03,
13818,-710,15,-709,3010,350,-490,,,,,,,0x03,
13828,-709,24,-709,3360,280,-420,,,,,,,0x03,
13837,-710,24,-708,3080,350,-280,,,,,,,0x03,
13847,-715,23,-710,2310,210,-140,,,,,,,0x03,
13857,-715,15,-703,1960,210,-70,,,,,,,0x03,
13866,-713,7,-698,1680,280,-140,,,,,,,0x03,
13876,-713,1,-695,2100,630,0,,,,,,,0x03,
13886,-710,-7,-696,3080,910,70,,,,,,,0x03,
13895,-707,-6,-704,4130,1190,210,,,,,,,0x03,
13905,-709,-3,-710,5180,1540,350,,,,,,,0x03,
13915,-714,0,-712,5110,1680,350,,,,,,,0x03,
13924,-712,7,-713,4620,1540,140,,,,,,,0x03,
13934,-709,4,-716,3920,1400,-70,,,,,,,0x03,
13944,-709,4,-723,3290,1260,-140,,,,,,,0x03,
13953,-710,-3,-726,2800,840,-210,,,,,,,0x03,
13963,-713,-6,-723,2590,490,-280,,,,,,,0x03,
13973,-711,-13,-718,2800,280,-490,,,,,,,0x03,
13982,-706,-14,-718,3290,210,-630,,,,,,,0x03,
13992,-705,-12,-719,3640,70,-630,,,,,,,0x03,
14002,-704,-7,-718,3430,-70,-490,,,,,,,0x03,
14011,-706,-2,-715,2730,-140,-560,,,,,,,0x03,
14021,-707,-2,-713,1260,-210,-770,,,,,,,0x03,
14031,-709,-2,-711,70,-420,-1050,,,,,,,0x03,
14040,-707,-6,-710,-700,-420,-1120,,,,,,,0x03,
14050,-709,-12,-710,-1120,-280,-980,,,,,,,0x03,
14060,-712,-17,-709,-840,-140,-910,,,,,,,0x03,
14069,-710,-16,-712,140,-70,-840,,,,,,,0x03,
14079,-711,-17,-714,1330,-70,-700,,,,,,,0x03,
14089,-712,-11,-715,2170,0,-630,,,,,,,0x03,
14098,-711,-8,-714,2520,70,-560,,,,,,,0x03,
14108,-708,-5,-711,2590,-70,-560,,,,,,,0x03,
14118,-707,-3,-711,2380,-140,-490,,,,,,,0x03,
14127,-709,-7,-717,2100,-140,-420,,,,,,,0x03,
14137,-713,-10,-717,2170,-280,-420,,,,,,,0x03,
14146,-713,-10,-718,1960,-350,-420,,,,,,,0x03,
14156,-710,-11,-716,1680,-420,-560,,,,,,,0x03,
14166,-709,-10,-715,1470,-490,-560,,,,,,,0x03,
14175,-709,-10,-712,910,-630,-560,,,,,,,0x03,
14185,-708,-9,-713,560,-630,-560,,,,,,,0x03,
14195,-706,-10,-714,350,-700,-560,,,,,,,0x03,
14204,-706,-11,-714,210,-630,-630,,,,,,,0x03,
14214,-704,-11,-715,280,-630,-700,,,,,,,0x03,
14224,-704,-9,-718,700,-630,-700,,,,,,,0x03,
14233,-708,-11,-718,770,-700,-560,,,,,,,0x03,
14243,-713,-10,-719,490,-840,-490,,,,,,,0x03,
14253,-711,-9,-712,350,-1050,-630,,,,,,,0x03,
14262,-710,-9,-715,350,-1050,-630,,,,,,,0x03,
14272,-708,-12,-715,560,-1120,-560,,,,,,,0x03,
14282,-707,-11,-717,770,-1190,-490,,,,,,,0x03,
14291,-707,-8,-717,1120,-1260,-420,,,,,,,0x03,
14301,-709,-8,-716,1260,-1400,-420,,,,,,,0x03,
14311,-705,-9,-714,770,-1540,-490,,,,,,,0x03,
14320,-705,-10,-715,770,-1470,-490,,,,,,,0x03,
14330,-708,-10,-713,630,-1400,-420,,,,,,,0x03,
14340,-710,-7,-713,-280,-1400,-280,,,,,,,0x03,
14349,-711,-7,-715,-980,-1400,-210,,,,,,,0x03,
14359,-713,-7,-715,-1470,-1330,-420,,,,,,,0x03,
14369,-714,1,-714,-2730,-1470,-490,,,,,,,0x03,
14378,-715,0,-710,-4760,-1680,-630,,,,,,,0x03,
14388,-721,-1,-707,-7700,-1890,-840,,,,,,,0x03,
14398,-719,-12,-703,-9800,-1960,-1120,,,,,,,0x03,
14407,-713,-20,-703,-10710,-1750,-1190,,,,,,,0x03,
14417,-711,-31,-701,-10850,-1540,-1050,,,,,,,0x03,
14427,-708,-35,-704,-9100,-1260,-840,,,,,,,0x03,
14436,-706,-32,-710,-6230,-980,-700,,,,,,,0x03,
14446,-712,-25,-711,-3710,-770,-280,,,,,,,0x03,
14455,-713,-12,-716,-1540,-630,-70,,,,,,,0x03,
14465,-712,-4,-715,70,-490,70,,,,,,,0x03,
14475,-715,2,-715,140,-630,210,,,,,,,0x03,
14484,-716,6,-711,0,-700,350,,,,,,,0x03,
14494,-712,3,-707,-840,-840,420,,,,,,,0x03,
14504,-713,-2,-704,-1750,-980,560,,,,,,,0x03,
14513,-715,-14,-707,-1470,-910,560,,,,,,,0x03,
14523,-715,-19,-705,-1050,-910,490,,,,,,,0x03,
14533,-715,-17,-705,-700,-630,490,,,,,,,0x03,
14542,-715,-15,-708,-840,-350,560,,,,,,,0x03,
14552,-711,-7,-710,-840,-210,700,,,,,,,0x03,
14562,-711,-6,-713,-1330,-140,700,,,,,,,0x03,
14571,-708,-2,-714,-1680,-210,700,,,,,,,0x03,
14581,-706,0,-717,-1960,-350,700,,,,,,,0x03,
14591,-708,-8,-711,-2660,-490,560,,,,,,,0x03,
14600,-711,-11,-709,-3150,-420,490,,,,,,,0x03,
14610,-710,-8,-707,-3850,-70,280,,,,,,,0x03,
