#Format version: 1.0
time[ms],accX[mg],accY[mg],accZ[mg],gyroX[mdps],gyroY[mdps],gyroZ[mdps],magnX[mG],magnY[mG],magnZ[mG],press[hPa],temp[°C],hum[0,-320,-952,9,-70,-630,-280,,,,,,,0x03,
10,-321,-953,9,-140,-630,-350,,,,,,,0x03,
19,-319,-953,8,-70,-630,-490,,,,,,,0x03,
29,-320,-954,9,-140,-630,-490,,,,,,,0x03,
39,-319,-955,8,-140,-700,-560,,,,,,,0x03,
48,-319,-957,8,-280,-700,-560,,,,,,,0x03,
58,-318,-954,8,-140,-700,-560,,,,,,,0x03,
67,-320,-958,8,-210,-630,-490,,,,,,,0x03,
77,-318,-956,8,-210,-700,-420,,,,,,,0x03,
87,-320,-957,8,-70,-700,-280,,,,,,,0x03,
96,-320,-956,9,-70,-700,-210,,,,,,,0x03,
106,-320,-956,8,-70,-700,-140,,,,,,,0x03,
116,-320,-956,8,-140,-700,-140,,,,,,,0x03,
125,-319,-955,7,-70,-770,-70,,,,,,,0x03,
135,-319,-956,8,-70,-770,0,,,,,,,0x03,
145,-320,-955,8,0,-770,-70,,,,,,,0x03,
154,-320,-954,9,0,-770,0,,,,,,,0x03,
164,-320,-956,8,70,-840,-70,,,,,,,0x03,
173,-320,-955,8,70,-840,-70,,,,,,,0x03,
183,-319,-955,7,0,-840,-70,,,,,,,0x03,
193,-319,-955,8,70,-840,-140,,,,,,,0x03,
202,-320,-956,9,70,-770,-140,,,,,,,0x03,
212,-321,-953,8,70,-770,-140,,,,,,,0x03,
222,-320,-958,10,-140,-770,-140,,,,,,,0x03,
231,-320,-954,8,-70,-770,-210,,,,,,,0x03,
241,-320,-956,9,70,-770,-70,,,,,,,0x03,
251,-319,-955,9,-70,-770,0,,,,,,,0x03,
260,-320,-954,9,70,-700,0,,,,,,,0x03,
270,-320,-954,9,0,-700,0,,,,,,,0x03,
279,-320,-954,9,-70,-700,70,,,,,,,0x03,
289,-320,-957,10,-140,-700,0,,,,,,,0x03,
299,-320,-955,8,-140,-700,0,,,,,,,0x03,
308,-319,-955,8,-70,-700,-70,,,,,,,0x03,
318,-319,-955,8,-70,-700,0,,,,,,,0x03,
328,-319,-954,8,70,-700,-70,,,,,,,0x03,
337,-319,-955,8,70,-700,-70,,,,,,,0x03,
347,-321,-955,8,70,-700,-140,,,,,,,0x03,
357,-320,-954,8,70,-700,-140,,,,,,,0x03,
366,-319,-954,8,0,-770,-140,,,,,,,0x03,
376,-320,-954,8,-70,-770,-140,,,,,,,0x03,
385,-320,-954,8,-70,-770,-140,,,,,,,0x03,
395,-318,-955,8,-140,-770,-140,,,,,,,0x03,
405,-320,-954,8,-70,-770,-140,,,,,,,0x03,
414,-319,-955,8,-140,-770,-140,,,,,,,0x03,
424,-320,-955,8,-140,-840,-210,,,,,,,0x03,
434,-320,-955,8,-140,-840,-210,,,,,,,0x03,
443,-320,-954,9,-70,-770,-210,,,,,,,0x03,
453,-319,-954,9,0,-770,-210,,,,,,,0x03,
463,-319,-955,10,-70,-770,-210,,,,,,,0x03,
472,-320,-955,9,-140,-770,-210,,,,,,,0x03,
482,-319,-955,9,-70,-700,-140,,,,,,,0x03,
492,-318,-956,9,-70,-630,-140,,,,,,,0x03,
501,-319,-955,9,0,-630,-140,,,,,,,0x03,
511,-319,-955,9,0,-560,-140,,,,,,,0x03,
520,-320,-955,9,-70,-560,-140,,,,,,,0x03,
530,-319,-953,9,-210,-490,-140,,,,,,,0x03,
540,-320,-955,9,-210,-560,-140,,,,,,,0x03,
549,-319,-955,8,-210,-560,-140,,,,,,,0x03,
559,-320,-957,9,-210,-560,-140,,,,,,,0x03,
569,-320,-955,7,-140,-560,-210,,,,,,,0x03,
578,-320,-955,7,0,-560,-140,,,,,,,0x03,
588,-319,-955,7,0,-630,-140,,,,,,,0x03,
598,-320,-955,8,0,-630,-140,,,,,,,0x03,
607,-320,-955,8,0,-700,-210,,,,,,,0x03,
617,-320,-955,7,-70,-700,-140,,,,,,,0x03,
626,-320,-955,8,-140,-770,-140,,,,,,,0x03,
636,-320,-955,7,-140,-770,-140,,,,,,,0x03,
646,-321,-955,7,-70,-700,-210,,,,,,,0x03,
655,-319,-956,7,0,-770,-140,,,,,,,0x03,
665,-320,-955,8,0,-770,-70,,,,,,,0x03,
675,-319,-955,8,70,-770,-70,,,,,,,0x03,
684,-320,-955,9,0,-840,-70,,,,,,,0x03,
694,-320,-954,8,70,-840,-70,,,,,,,0x03,
704,-320,-955,8,70,-840,-70,,,,,,,0x03,
713,-319,-955,8,0,-840,-70,,,,,,,0x03,
723,-320,-954,8,0,-840,-140,,,,,,,0x03,
732,-320,-955,9,-70,-840,-140,,,,,,,0x03,
742,-319,-953,8,-140,-770,-140,,,,,,,0x03,
752,-319,-954,8,-140,-770,-210,,,,,,,0x03,
761,-320,-955,9,-210,-770,-210,,,,,,,0x03,
771,-319,-955,9,-210,-770,-280,,,,,,,0x03,
781,-319,-956,8,-140,-770,-280,,,,,,,0x03,
790,-319,-955,9,-70,-700,-210,,,,,,,0x03,
800,-318,-955,9,-70,-700,-210,,,,,,,0x03,
810,-319,-955,8,-70,-700,-280,,,,,,,0x03,
819,-319,-955,9,0,-630,-210,,,,,,,0x03,
829,-319,-955,8,70,-630,-210,,,,,,,0x03,
838,-320,-956,9,0,-630,-140,,,,,,,0x03,
848,-318,-954,8,0,-630,-140,,,,,,,0x03,
858,-320,-955,8,-140,-630,-70,,,,,,,0x03,
867,-319,-956,8,-210,-630,-70,,,,,,,0x03,
877,-320,-954,8,-210,-630,-140,,,,,,,0x03,
887,-319,-955,8,-210,-630,-140,,,,,,,0x03,
896,-320,-955,8,-140,-630,-70,,,,,,,0x03,
906,-319,-955,9,-140,-630,-140,,,,,,,0x03,
916,-319,-956,8,-70,-630,-140,,,,,,,0x03,
925,-321,-955,8,0,-700,-140,,,,,,,0x03,
935,-320,-955,8,0,-630,-210,,,,,,,0x03,
944,-321,-955,8,0,-630,-210,,,,,,,0x03,
954,-320,-955,7,0,-700,-140,,,,,,,0x03,
964,-319,-954,8,0,-700,-210,,,,,,,0x03,
973,-320,-954,8,-140,-770,-140,,,,,,,0x03,
983,-320,-954,8,-140,-770,-210,,,,,,,0x03,
993,-321,-955,8,-140,-700,-210,,,,,,,0x03,
1002,-319,-954,8,-140,-700,-280,,,,,,,0x03,
1012,-319,-955,9,-140,-700,-280,,,,,,,0x03,
1022,-318,-956,9,-140,-770,-280,,,,,,,0x03,
1031,-320,-956,9,-70,-700,-280,,,,,,,0x03,
1041,-319,-955,9,0,-770,-280,,,,,,,0x03,
1050,-319,-956,8,140,-700,-210,,,,,,,0x03,
1060,-319,-956,8,140,-700,-210,,,,,,,0x03,
1070,-319,-955,8,140,-700,-140,,,,,,,0x03,
1079,-320,-955,9,0,-630,-140,,,,,,,0x03,
1089,-319,-954,9,0,-630,-140,,,,,,,0x03,
1099,-319,-956,9,-70,-630,-140,,,,,,,0x03,
1108,-319,-955,9,-140,-700,-70,,,,,,,0x03,
1118,-317,-955,10,-140,-700,-70,,,,,,,0x03,
1128,-319,-955,8,-140,-700,-70,,,,,,,0x03,
1137,-320,-954,8,-70,-700,-140,,,,,,,0x03,
1147,-320,-955,9,-70,-700,-140,,,,,,,0x03,
1156,-320,-954,8,-70,-700,-210,,,,,,,0x03,
1166,-320,-954,8,-70,-700,-280,,,,,,,0x03,
1176,-320,-954,9,-140,-700,-350,,,,,,,0x03,
1185,-319,-955,9,-210,-700,-350,,,,,,,0x03,
1195,-319,-955,8,-210,-630,-350,,,,,,,0x03,
1205,-319,-954,8,-210,-630,-420,,,,,,,0x03,
1214,-320,-956,8,-280,-700,-420,,,,,,,0x03,
1224,-320,-956,8,-210,-700,-420,,,,,,,0x03,
1234,-318,-955,8,-140,-700,-420,,,,,,,0x03,
1243,-320,-955,8,-140,-630,-420,,,,,,,0x03,
1253,-318,-955,9,-140,-630,-420,,,,,,,0x03,
1262,-319,-955,9,-210,-560,-350,,,,,,,0x03,
1272,-319,-956,8,-210,-560,-350,,,,,,,0x03,
1282,-319,-956,8,-140,-630,-280,,,,,,,0x03,
1291,-319,-956,8,-140,-630,-280,,,,,,,0x03,
1301,-318,-956,9,-140,-630,-210,,,,,,,0x03,
1311,-319,-955,9,-140,-560,-140,,,,,,,0x03,
1320,-318,-954,8,-140,-560,-210,,,,,,,0x03,
1330,-318,-954,8,-280,-560,-140,,,,,,,0x03,
1340,-319,-955,7,-280,-630,-210,,,,,,,0x03,
1349,-319,-955,7,-280,-630,-210,,,,,,,0x03,
1359,-319,-957,7,-210,-630,-280,,,,,,,0x03,
1369,-318,-956,7,-140,-630,-210,,,,,,,0x03,
1378,-318,-955,7,-70,-700,-280,,,,,,,0x03,
1388,-319,-955,8,0,-700,-280,,,,,,,0x03,
1397,-319,-956,7,-70,-700,-280,,,,,,,0x03,
1407,-318,-955,7,-140,-770,-210,,,,,,,0x03,
1417,-319,-956,7,-140,-840,-210,,,,,,,0x03,
1426,-318,-957,7,-140,-840,-210,,,,,,,0x03,
1436,-318,-956,8,-70,-910,-210,,,,,,,0x03,
1446,-319,-957,7,-70,-910,-140,,,,,,,0x03,
1455,-319,-957,7,-70,-910,-140,,,,,,,0x03,
1465,-319,-956,8,-70,-840,0,,,,,,,0x03,
1475,-319,-958,8,0,-840,0,,,,,,,0x03,
1484,-319,-957,8,70,-910,70,,,,,,,0x03,
1494,-318,-956,9,140,-910,140,,,,,,,0x03,
1503,-318,-956,9,140,-840,140,,,,,,,0x03,
1513,-317,-955,9,140,-840,140,,,,,,,0x03,
1523,-319,-954,8,70,-840,140,,,,,,,0x03,
1532,-318,-955,9,0,-770,140,,,,,,,0x03,
1542,-319,-953,9,-70,-770,70,,,,,,,0x03,
1552,-320,-954,8,-70,-770,0,,,,,,,0x03,
1561,-318,-954,9,-70,-700,-70,,,,,,,0x03,
1571,-319,-954,10,-70,-630,-70,,,,,,,0x03,
1581,-318,-954,8,-70,-630,-140,,,,,,,0x03,
1590,-319,-955,7,-70,-630,-140,,,,,,,0x03,
1600,-319,-954,9,0,-630,-210,,,,,,,0x03,
1609,-319,-954,9,0,-700,-210,,,,,,,0x03,
1619,-320,-955,8,-70,-700,-280,,,,,,,0x03,
1629,-319,-954,9,-140,-700,-280,,,,,,,0x03,
1638,-319,-954,8,-140,-700,-280,,,,,,,0x03,
1648,-318,-954,9,-140,-700,-280,,,,,,,0x03,
1658,-318,-955,8,-210,-700,-280,,,,,,,0x03,
1667,-319,-956,8,-140,-700,-280,,,,,,,0x03,
1677,-320,-957,8,-140,-630,-280,,,,,,,0x03,
1687,-319,-957,9,-70,-700,-210,,,,,,,0x03,
1696,-319,-956,9,0,-630,-140,,,,,,,0x03,
1706,-318,-956,8,0,-700,-140,,,,,,,0x03,
1715,-319,-955,8,70,-630,-70,,,,,,,0x03,
1725,-318,-955,8,0,-630,-70,,,,,,,0x03,
1735,-319,-955,8,0,-700,-70,,,,,,,0x03,
1744,-319,-955,8,-70,-700,-70,,,,,,,0x03,
1754,-319,-955,8,0,-630,-70,,,,,,,0x03,
1764,-319,-955,9,-140,-700,-140,,,,,,,0x03,
1773,-319,-954,8,-70,-700,-140,,,,,,,0x03,
1783,-319,-955,8,-70,-700,-140,,,,,,,0x03,
1793,-319,-955,8,-70,-700,-210,,,,,,,0x03,
1802,-318,-955,9,-70,-700,-210,,,,,,,0x03,
1812,-319,-954,8,0,-700,-210,,,,,,,0x03,
1821,-318,-954,9,0,-700,-280,,,,,,,0x03,
1831,-318,-955,9,0,-770,-280,,,,,,,0x03,
1841,-319,-955,8,0,-770,-280,,,,,,,0x03,
1850,-318,-955,8,0,-700,-280,,,,,,,0x03,
1860,-319,-955,8,-70,-770,-280,,,,,,,0x03,
1870,-318,-956,8,-70,-700,-210,,,,,,,0x03,
1879,-318,-955,9,-70,-700,-210,,,,,,,0x03,
1889,-319,-957,9,-70,-630,-140,,,,,,,0x03,
1899,-318,-957,8,-70,-700,-70,,,,,,,0x03,
1908,-318,-956,8,-70,-700,-70,,,,,,,0x03,
1918,-319,-955,9,-70,-630,-70,,,,,,,0x03,
1927,-319,-955,8,0,-630,-70,,,,,,,0x03,
1937,-320,-955,9,0,-700,-70,,,,,,,0x03,
1947,-319,-955,9,0,-630,-70,,,,,,,0x03,
1956,-318,-954,8,-70,-630,-140,,,,,,,0x03,
1966,-318,-955,7,-70,-630,-140,,,,,,,0x03,
1976,-320,-954,8,0,-700,-210,,,,,,,0x03,
1985,-320,-955,8,0,-700,-210,,,,,,,0x03,
1995,-318,-955,8,70,-700,-210,,,,,,,0x03,
2005,-319,-955,9,0,-700,-280,,,,,,,0x03,
2014,-318,-955,8,-70,-770,-280,,,,,,,0x03,
2024,-319,-955,8,-140,-700,-280,,,,,,,0x03,
2033,-319,-955,8,-140,-770,-280,,,,,,,0x03,
2043,-318,-956,9,-140,-770,-280,,,,,,,0x03,
2053,-317,-956,9,-210,-700,-280,,,,,,,0x03,
2062,-318,-956,8,-210,-630,-280,,,,,,,0x03,
2072,-318,-956,8,-140,-700,-210,,,,,,,0x03,
2082,-318,-956,8,-140,-630,-210,,,,,,,0x03,
2091,-319,-955,8,-70,-630,-140,,,,,,,0x03,
2101,-319,-956,8,-70,-560,-210,,,,,,,0x03,
2111,-319,-954,8,0,-560,-140,,,,,,,0x03,
2120,-318,-956,7,-70,-560,-140,,,,,,,0x03,
2130,-319,-955,8,-70,-630,-140,,,,,,,0x03,
2139,-320,-955,8,-70,-630,-140,,,,,,,0x03,
2149,-318,-955,7,-140,-700,-140,,,,,,,0x03,
2159,-318,-955,8,-210,-700,-210,,,,,,,0x03,
2168,-317,-956,9,-210,-630,-210,,,,,,,0x03,
2178,-317,-954,8,-210,-700,-280,,,,,,,0x03,
2188,-318,-956,8,-140,-700,-280,,,,,,,0x03,
2197,-317,-955,8,-140,-700,-280,,,,,,,0x03,
2207,-317,-955,8,-70,-700,-280,,,,,,,0x03,
2217,-317,-955,8,-70,-630,-350,,,,,,,0x03,
2226,-317,-955,8,-210,-630,-420,,,,,,,0x03,
2236,-317,-957,8,-210,-630,-420,,,,,,,0x03,
2246,-319,-956,8,-210,-560,-350,,,,,,,0x03,
2255,-317,-957,8,-210,-560,-350,,,,,,,0x03,
2265,-318,-958,8,-140,-560,-350,,,,,,,0x03,
2274,-319,-956,7,-70,-630,-280,,,,,,,0x03,
2284,-318,-956,7,0,-630,-210,,,,,,,0x03,
2294,-317,-956,7,-70,-630,-140,,,,,,,0x03,
2303,-318,-956,8,-70,-630,-70,,,,,,,0x03,
2313,-317,-956,8,-70,-630,-70,,,,,,,0x03,
2323,-318,-956,7,-70,-700,0,,,,,,,0x03,
2332,-318,-955,8,-70,-700,0,,,,,,,0x03,
2342,-317,-954,8,-70,-630,0,,,,,,,0x03,
2352,-318,-955,8,-70,-700,0,,,,,,,0x03,
2361,-318,-955,8,-140,-700,0,,,,,,,0x03,
2371,-318,-955,8,-140,-700,-70,,,,,,,0x03,
2380,-319,-954,7,-140,-700,-70,,,,,,,0x03,
2390,-319,-955,8,-70,-770,-70,,,,,,,0x03,
2400,-319,-955,8,-140,-840,-140,,,,,,,0x03,
2409,-318,-954,7,-140,-770,-140,,,,,,,0x03,
2419,-318,-955,8,-140,-770,-140,,,,,,,0x03,
2429,-319,-955,8,-210,-770,-210,,,,,,,0x03,
2438,-319,-956,7,-210,-770,-140,,,,,,,0x03,
2448,-319,-956,8,-140,-840,-210,,,,,,,0x03,
2458,-318,-957,9,-70,-840,-210,,,,,,,0x03,
2467,-317,-956,7,-70,-840,-140,,,,,,,0x03,
2477,-318,-955,8,0,-840,-140,,,,,,,0x03,
2486,-317,-956,7,0,-770,-140,,,,,,,0x03,
2496,-317,-957,9,-140,-770,-70,,,,,,,0x03,
2506,-318,-955,8,-140,-770,-70,,,,,,,0x03,
2515,-318,-956,8,-70,-700,-70,,,,,,,0x03,
2525,-318,-955,8,-70,-630,-70,,,,,,,0x03,
2535,-318,-956,8,-140,-700,-70,,,,,,,0x03,
2544,-317,-956,9,-140,-630,-140,,,,,,,0x03,
2554,-317,-955,8,0,-560,-210,,,,,,,0x03,
2564,-317,-955,8,0,-560,-280,,,,,,,0x03,
2573,-318,-954,8,-140,-560,-280,,,,,,,0x03,
2583,-318,-955,8,-140,-560,-280,,,,,,,0x03,
2592,-318,-954,8,-140,-560,-350,,,,,,,0x03,
2602,-318,-955,8,-140,-560,-350,,,,,,,0x03,
2612,-318,-957,7,-210,-560,-280,,,,,,,0x03,
2621,-317,-955,9,-140,-560,-350,,,,,,,0x03,
2631,-318,-955,7,-140,-490,-280,,,,,,,0x03,
2641,-318,-957,8,-210,-490,-350,,,,,,,0x03,
2650,-317,-956,8,-140,-560,-350,,,,,,,0x03,
2660,-317,-956,8,-70,-490,-280,,,,,,,0x03,
2670,-318,-957,7,-70,-490,-210,,,,,,,0x03,
2679,-318,-957,8,-70,-560,-140,,,,,,,0x03,
2689,-319,-955,6,-70,-630,-140,,,,,,,0x03,
2698,-317,-957,6,0,-630,-70,,,,,,,0x03,
2708,-318,-956,6,0,-770,-70,,,,,,,0x03,
2718,-318,-956,7,70,-700,0,,,,,,,0x03,
2727,-318,-955,6,70,-770,-140,,,,,,,0x03,
2737,-318,-955,6,0,-840,-70,,,,,,,0x03,
2747,-319,-953,8,0,-910,-140,,,,,,,0x03,
2756,-317,-954,8,-140,-910,-210,,,,,,,0x03,
2766,-316,-953,8,-70,-840,-280,,,,,,,0x03,
2776,-317,-955,9,-210,-840,-350,,,,,,,0x03,
2785,-318,-954,9,-280,-840,-420,,,,,,,0x03,
2795,-317,-954,9,-210,-770,-490,,,,,,,0x03,
2804,-316,-957,9,-350,-700,-490,,,,,,,0x03,
2814,-317,-958,7,-350,-700,-490,,,,,,,0x03,
2824,-317,-957,8,-140,-630,-420,,,,,,,0x03,
2833,-316,-958,8,-70,-560,-420,,,,,,,0x03,
2843,-318,-959,8,0,-490,-350,,,,,,,0x03,
2853,-318,-957,8,140,-490,-210,,,,,,,0x03,
2862,-317,-955,7,70,-490,-140,,,,,,,0x03,
2872,-317,-956,7,-140,-560,-70,,,,,,,0x03,
2882,-318,-956,7,-210,-560,0,,,,,,,0x03,
2891,-318,-956,7,-210,-630,0,,,,,,,0x03,
2901,-318,-956,7,-210,-630,0,,,,,,,0x03,
2910,-318,-955,7,-210,-700,0,,,,,,,0x03,
2920,-317,-955,7,-140,-770,0,,,,,,,0x03,
2930,-318,-955,8,-140,-770,0,,,,,,,0x03,
2939,-319,-956,8,-70,-770,-70,,,,,,,0x03,
2949,-317,-955,8,0,-770,-140,,,,,,,0x03,
2959,-317,-955,7,0,-770,-140,,,,,,,0x03,
2968,-317,-955,8,-70,-770,-280,,,,,,,0x03,
2978,-317,-955,8,-70,-770,-280,,,,,,,0x03,
2988,-317,-956,8,-70,-770,-280,,,,,,,0x03,
2997,-318,-956,8,-70,-770,-280,,,,,,,0x03,
3007,-317,-955,9,70,-700,-350,,,,,,,0x03,
3016,-317,-955,9,0,-700,-350,,,,,,,0x03,
3026,-317,-954,8,-70,-630,-350,,,,,,,0x03,
3036,-317,-954,8,-210,-630,-350,,,,,,,0x03,
3045,-317,-956,8,-350,-630,-350,,,,,,,0x03,
3055,-317,-957,8,-280,-630,-350,,,,,,,0x03,
3065,-317,-958,7,-140,-560,-350,,,,,,,0x03,
3074,-317,-958,7,0,-630,-350,,,,,,,0x03,
3084,-317,-956,7,140,-630,-210,,,,,,,0x03,
3094,-317,-958,8,140,-630,-140,,,,,,,0x03,
3103,-317,-956,7,140,-630,-140,,,,,,,0x03,
3113,-317,-955,7,140,-630,-70,,,,,,,0x03,
3122,-316,-955,7,70,-630,-70,,,,,,,0x03,
3132,-318,-955,7,0,-700,-70,,,,,,,0x03,
3142,-317,-954,7,-70,-700,-140,,,,,,,0x03,
3151,-317,-953,8,-210,-700,-140,,,,,,,0x03,
3161,-318,-954,7,-350,-700,-210,,,,,,,0x03,
3171,-317,-954,7,-350,-700,-210,,,,,,,0x03,
3180,-316,-957,8,-350,-700,-280,,,,,,,0x03,
3190,-317,-956,7,-280,-700,-350,,,,,,,0x03,
3200,-318,-954,7,-70,-700,-350,,,,,,,0x03,
3209,-317,-956,8,-140,-700,-420,,,,,,,0x03,
3219,-316,-955,6,-140,-700,-490,,,,,,,0x03,
3229,-317,-953,9,0,-700,-560,,,,,,,0x03,
3238,-317,-954,9,-140,-630,-490,,,,,,,0x03,
3248,-316,-954,9,-420,-630,-560,,,,,,,0x03,
3257,-316,-956,9,-630,-560,-490,,,,,,,0x03,
3267,-315,-957,8,-770,-560,-490,,,,,,,0x03,
3277,-316,-958,8,-700,-490,-490,,,,,,,0x03,
3286,-316,-956,8,-490,-420,-420,,,,,,,0x03,
3296,-315,-956,9,-350,-420,-350,,,,,,,0x03,
3306,-317,-957,7,-350,-350,-350,,,,,,,0x03,
3315,-316,-959,7,-350,-350,-210,,,,,,,0x03,
3325,-317,-959,7,-280,-350,-210,,,,,,,0x03,
3335,-317,-957,8,0,-350,-140,,,,,,,0x03,
3344,-316,-954,8,70,-350,-70,,,,,,,0x03,
3354,-317,-957,8,-280,-350,0,,,,,,,0x03,
3363,-316,-955,3,-210,-420,-70,,,,,,,0x03,
3373,-317,-953,7,-210,-280,-70,,,,,,,0x03,
3383,-318,-954,7,-630,-420,-70,,,,,,,0x03,
3392,-315,-958,5,-770,-490,-70,,,,,,,0x03,
3402,-318,-957,5,-490,-490,-210,,,,,,,0x03,
3412,-317,-956,5,-140,-630,-210,,,,,,,0x03,
3421,-316,-955,5,-140,-630,-210,,,,,,,0x03,
3431,-316,-956,5,0,-770,-280,,,,,,,0x03,
3441,-317,-957,4,0,-910,-280,,,,,,,0x03,
3450,-318,-956,5,70,-980,-280,,,,,,,0x03,
3460,-318,-956,5,0,-1120,-280,,,,,,,0x03,
3469,-317,-955,5,-70,-1120,-210,,,,,,,0x03,
3479,-317,-957,6,-210,-1190,-210,,,,,,,0x03,
3489,-316,-957,6,-280,-1260,-140,,,,,,,0x03,
3498,-315,-956,6,-280,-1190,-210,,,,,,,0x03,
3508,-315,-955,8,-280,-1190,-140,,,,,,,0x03,
3518,-316,-957,8,-420,-1120,-70,,,,,,,0x03,
3527,-315,-958,8,-420,-1050,-70,,,,,,,0x03,
3537,-315,-958,9,-280,-910,-70,,,,,,,0x03,
3547,-315,-957,9,-140,-770,0,,,,,,,0x03,
3556,-315,-957,10,70,-560,0,,,,,,,0x03,
3566,-315,-957,9,210,-490,70,,,,,,,0x03,
3575,-314,-956,8,280,-280,70,,,,,,,0x03,
3585,-316,-956,8,280,-210,140,,,,,,,0x03,
3595,-316,-955,7,280,-140,140,,,,,,,0x03,
3604,-317,-956,7,210,-210,140,,,,,,,0x03,
3614,-316,-956,6,70,-140,210,,,,,,,0x03,
3624,-318,-955,6,0,-210,210,,,,,,,0x03,
3633,-317,-957,5,-70,-280,210,,,,,,,0x03,
3643,-318,-957,5,-70,-350,140,,,,,,,0x03,
3653,-318,-957,5,0,-420,140,,,,,,,0x03,
3662,-317,-957,4,0,-560,210,,,,,,,0x03,
3672,-317,-956,4,70,-700,210,,,,,,,0x03,
3681,-319,-956,3,70,-840,210,,,,,,,0x03,
3691,-318,-955,4,70,-910,280,,,,,,,0x03,
3701,-317,-956,4,70,-1050,210,,,,,,,0x03,
3710,-318,-955,6,70,-1120,140,,,,,,,0x03,
3720,-319,-954,6,70,-1260,140,,,,,,,0x03,
3730,-318,-955,6,70,-1260,140,,,,,,,0x03,
3739,-317,-956,7,0,-1330,140,,,,,,,0x03,
3749,-317,-955,7,0,-1330,70,,,,,,,0x03,
3759,-317,-955,8,0,-1260,70,,,,,,,0x03,
3768,-317,-956,8,0,-1260,0,,,,,,,0x03,
3778,-317,-956,8,70,-1190,70,,,,,,,0x03,
3787,-317,-956,8,70,-1120,0,,,,,,,0x03,
3797,-315,-953,9,70,-1050,0,,,,,,,0x03,
3807,-316,-955,8,-70,-980,0,,,,,,,0x03,
3816,-317,-955,8,-70,-910,-140,,,,,,,0x03,
3826,-316,-953,9,0,-770,-140,,,,,,,0x03,
3836,-315,-955,9,-210,-630,-140,,,,,,,0x03,
3845,-317,-956,9,-210,-630,-210,,,,,,,0x03,
3855,-318,-954,8,0,-490,-210,,,,,,,0x03,
3865,-316,-955,8,-70,-420,-210,,,,,,,0x03,
3874,-317,-955,8,-140,-420,-280,,,,,,,0x03,
3884,-317,-954,8,0,-350,-350,,,,,,,0x03,
3893,-316,-954,7,0,-350,-350,,,,,,,0x03,
3903,-317,-954,6,-140,-350,-350,,,,,,,0x03,
3913,-319,-955,6,-70,-350,-420,,,,,,,0x03,
3922,-317,-954,6,-140,-420,-490,,,,,,,0x03,
3932,-317,-954,5,-280,-490,-490,,,,,,,0x03,
3942,-317,-955,6,-350,-490,-630,,,,,,,0x03,
3951,-318,-955,5,-280,-560,-630,,,,,,,0x03,
3961,-317,-957,6,-350,-630,-700,,,,,,,0x03,
3971,-317,-956,6,-280,-630,-700,,,,,,,0x03,
3980,-316,-956,6,-210,-700,-700,,,,,,,0x03,
3990,-315,-956,5,-210,-770,-700,,,,,,,0x03,
3999,-317,-957,6,-140,-770,-700,,,,,,,0x03,
4009,-316,-957,6,-140,-840,-560,,,,,,,0x03,
4019,-316,-956,6,-140,-840,-490,,,,,,,0x03,
4028,-316,-957,7,-140,-840,-420,,,,,,,0x03,
4038,-316,-957,8,-140,-770,-350,,,,,,,0x03,
4048,-315,-956,7,-210,-770,-210,,,,,,,0x03,
4057,-316,-956,7,-210,-770,-140,,,,,,,0x03,
4067,-315,-956,7,-210,-700,-140,,,,,,,0x03,
4077,-315,-957,7,-210,-700,-70,,,,,,,0x03,
4086,-315,-956,7,-140,-630,-70,,,,,,,0x03,
4096,-316,-956,7,-140,-560,-70,,,,,,,0x03,
4106,-316,-956,7,-140,-560,-70,,,,,,,0x03,
4115,-316,-955,6,-140,-560,-70,,,,,,,0x03,
4125,-316,-956,6,-140,-560,-140,,,,,,,0x03,
4134,-317,-955,6,0,-490,-210,,,,,,,0x03,
4144,-316,-955,6,-70,-560,-210,,,,,,,0x03,
4154,-316,-955,6,-70,-560,-280,,,,,,,0x03,
4163,-316,-955,6,-140,-560,-350,,,,,,,0x03,
4173,-317,-955,5,-140,-630,-350,,,,,,,0x03,
4183,-317,-957,5,-140,-700,-350,,,,,,,0x03,
4192,-316,-957,5,-70,-770,-420,,,,,,,0x03,
4202,-317,-956,6,-70,-770,-350,,,,,,,0x03,
4212,-315,-957,6,0,-840,-350,,,,,,,0x03,
4221,-316,-956,6,-70,-840,-280,,,,,,,0x03,
4231,-316,-957,6,-70,-840,-140,,,,,,,0x03,
4240,-316,-957,7,-140,-770,-140,,,,,,,0x03,
4250,-315,-958,6,-140,-840,-70,,,,,,,0x03,
4260,-314,-958,6,-70,-770,0,,,,,,,0x03,
4269,-315,-959,7,0,-770,140,,,,,,,0x03,
4279,-315,-958,7,70,-700,210,,,,,,,0x03,
4289,-315,-957,6,140,-700,280,,,,,,,0x03,
4298,-316,-957,7,210,-700,350,,,,,,,0x03,
4308,-316,-956,7,210,-630,350,,,,,,,0x03,
4318,-317,-956,6,210,-700,420,,,,,,,0x03,
4327,-317,-955,6,70,-700,420,,,,,,,0x03,
4337,-318,-955,6,0,-770,420,,,,,,,0x03,
4346,-317,-955,6,-140,-770,280,,,,,,,0x03,
4356,-316,-955,7,-140,-770,210,,,,,,,0x03,
4366,-318,-955,7,-140,-770,140,,,,,,,0x03,
4375,-316,-955,7,-70,-840,70,,,,,,,0x03,
4385,-317,-954,7,0,-840,0,,,,,,,0x03,
4395,-316,-954,7,0,-840,-140,,,,,,,0x03,
4404,-316,-955,8,0,-840,-280,,,,,,,0x03,
4414,-315,-954,7,0,-840,-350,,,,,,,0x03,
4424,-316,-955,6,0,-770,-350,,,,,,,0x03,
4433,-316,-956,7,-70,-770,-420,,,,,,,0x03,
4443,-317,-956,7,0,-770,-420,,,,,,,0x03,
4452,-317,-955,7,0,-770,-350,,,,,,,0x03,
4462,-318,-957,6,-70,-770,-280,,,,,,,0x03,
4472,-316,-956,7,-70,-770,-210,,,,,,,0x03,
4481,-317,-957,7,-70,-770,-140,,,,,,,0x03,
4491,-316,-957,7,-140,-770,-70,,,,,,,0x03,
4501,-317,-957,8,-140,-770,-70,,,,,,,0x03,
4510,-315,-957,7,-70,-770,0,,,,,,,0x03,
4520,-317,-956,7,-140,-770,70,,,,,,,0x03,
4530,-316,-956,7,-70,-700,70,,,,,,,0x03,
4539,-316,-955,7,-70,-700,70,,,,,,,0x03,
4549,-316,-955,7,-70,-630,0,,,,,,,0x03,
4558,-317,-954,7,-70,-630,-70,,,,,,,0x03,
4568,-317,-954,6,-70,-630,-140,,,,,,,0x03,
4578,-316,-956,6,-140,-630,-210,,,,,,,0x03,
4587,-316,-955,7,-140,-630,-280,,,,,,,0x03,
4597,-317,-956,7,-210,-700,-280,,,,,,,0x03,
4607,-315,-955,6,-210,-700,-350,,,,,,,0x03,
4616,-316,-955,7,-210,-630,-350,,,,,,,0x03,
4626,-317,-957,7,-210,-700,-350,,,,,,,0x03,
4636,-316,-955,6,-140,-700,-350,,,,,,,0x03,
4645,-316,-956,6,-140,-770,-350,,,,,,,0x03,
4655,-316,-957,7,-140,-700,-280,,,,,,,0x03,
4664,-315,-957,6,-140,-700,-280,,,,,,,0x03,
4674,-316,-956,6,-140,-700,-210,,,,,,,0x03,
4684,-317,-956,7,-140,-700,-210,,,,,,,0x03,
4693,-315,-957,6,-70,-700,-140,,,,,,,0x03,
4703,-315,-957,6,-70,-700,-140,,,,,,,0x03,
4713,-316,-957,6,-140,-700,-140,,,,,,,0x03,
4722,-316,-958,7,-70,-700,-70,,,,,,,0x03,
4732,-317,-956,7,-70,-700,-70,,,,,,,0x03,
4742,-316,-955,6,-70,-770,-70,,,,,,,0x03,
4751,-316,-956,6,0,-700,-70,,,,,,,0x03,
4761,-316,-956,6,0,-700,-70,,,,,,,0x03,
4770,-316,-955,6,-70,-700,-140,,,,,,,0x03,
4780,-317,-955,7,-70,-700,-140,,,,,,,0x03,
4790,-316,-956,7,-70,-770,-210,,,,,,,0x03,
4799,-317,-955,6,-70,-770,-210,,,,,,,0x03,
4809,-316,-956,7,-70,-770,-210,,,,,,,0x03,
4819,-317,-955,7,-70,-770,-210,,,,,,,0x03,
4828,-317,-956,7,-70,-770,-210,,,,,,,0x03,
4838,-316,-956,7,-70,-770,-210,,,,,,,0x03,
4848,-316,-956,7,-140,-700,-210,,,,,,,0x03,
4857,-316,-957,7,-140,-770,-140,,,,,,,0x03,
4867,-315,-957,7,-70,-700,-140,,,,,,,0x03,
4876,-316,-956,7,-70,-700,-140,,,,,,,0x03,
4886,-316,-955,6,-70,-700,-140,,,,,,,0x03,
4896,-316,-955,6,-140,-700,-140,,,,,,,0x03,
4905,-316,-956,6,-70,-700,-140,,,,,,,0x03,
4915,-317,-956,7,-140,-700,-140,,,,,,,0x03,
4925,-316,-955,6,-140,-700,-70,,,,,,,0x03,
4934,-316,-956,7,-140,-700,-140,,,,,,,0x03,
4944,-316,-956,7,-70,-700,-140,,,,,,,0x03,
4954,-316,-955,7,-70,-700,-140,,,,,,,0x03,
4963,-316,-956,6,-70,-700,-210,,,,,,,0x03,
4973,-316,-955,7,-70,-700,-210,,,,,,,0x03,
4983,-316,-955,7,-140,-700,-210,,,,,,,0x03,
4992,-315,-956,7,-140,-700,-210,,,,,,,0x03,
5002,-316,-955,7,-210,-700,-210,,,,,,,0x03,
5011,-316,-956,6,-210,-700,-210,,,,,,,0x03,
5021,-315,-957,6,-210,-630,-210,,,,,,,0x03,
5031,-315,-957,7,-140,-560,-140,,,,,,,0x03,
5040,-317,-957,6,0,-560,-140,,,,,,,0x03,
5050,-317,-956,6,0,-560,-70,,,,,,,0x03,
5060,-316,-957,6,0,-560,-70,,,,,,,0x03,
5069,-316,-957,6,0,-560,-70,,,,,,,0x03,
5079,-317,-956,6,-70,-560,0,,,,,,,0x03,
5089,-316,-956,5,-140,-700,0,,,,,,,0x03,
5098,-315,-956,6,-210,-630,0,,,,,,,0x03,
5108,-317,-956,5,-140,-770,0,,,,,,,0x03,
5117,-317,-956,6,-140,-770,0,,,,,,,0x03,
5127,-317,-956,6,-140,-840,0,,,,,,,0x03,
5137,-317,-956,7,-70,-840,0,,,,,,,0x03,
5146,-317,-954,6,0,-840,-70,,,,,,,0x03,
5156,-317,-955,6,0,-840,-140,,,,,,,0x03,
5166,-317,-956,7,0,-840,-140,,,,,,,0x03,
5175,-316,-955,7,0,-840,-140,,,,,,,0x03,
5185,-316,-956,7,-70,-840,-140,,,,,,,0x03,
5195,-316,-954,7,-70,-770,-210,,,,,,,0x03,
5204,-316,-956,7,-70,-840,-210,,,,,,,0x03,
5214,-316,-955,7,-70,-770,-280,,,,,,,0x03,
5223,-316,-956,7,-70,-770,-280,,,,,,,0x03,
5233,-316,-956,7,-70,-770,-280,,,,,,,0x03,
5243,-316,-957,7,-140,-700,-280,,,,,,,0x03,
5252,-315,-956,7,-140,-700,-280,,,,,,,0x03,
5262,-315,-955,6,-140,-630,-280,,,,,,,0x03,
5272,-317,-956,7,-140,-630,-280,,,,,,,0x03,
5281,-315,-957,6,-70,-630,-280,,,,,,,0x03,
5291,-316,-956,6,-70,-630,-210,,,,,,,0x03,
5301,-316,-956,6,-140,-630,-210,,,,,,,0x03,
5310,-316,-956,6,-140,-630,-210,,,,,,,0x03,
5320,-316,-956,7,-140,-560,-210,,,,,,,0x03,
5329,-315,-957,6,-140,-560,-210,,,,,,,0x03,
5339,-316,-957,6,-210,-630,-210,,,,,,,0x03,
5349,-317,-956,6,-140,-630,-140,,,,,,,0x03,
5358,-317,-957,7,-140,-630,-140,,,,,,,0x03,
5368,-317,-957,6,-70,-700,-140,,,,,,,0x03,
5378,-316,-956,6,-70,-700,-140,,,,,,,0x03,
5387,-317,-956,7,-70,-700,-140,,,,,,,0x03,
5397,-316,-957,6,-70,-700,-140,,,,,,,0x03,
5407,-317,-956,6,0,-700,-140,,,,,,,0x03,
5416,-316,-956,6,0,-700,-70,,,,,,,0x03,
5426,-317,-956,6,0,-770,-70,,,,,,,0x03,
5435,-315,-956,6,-70,-770,-70,,,,,,,0x03,
5445,-317,-956,6,-70,-770,-70,,,,,,,0x03,
5455,-316,-956,6,-70,-770,0,,,,,,,0x03,
5464,-316,-956,6,-70,-770,-70,,,,,,,0x03,
5474,-317,-956,6,-70,-840,-70,,,,,,,0x03,
5484,-316,-956,7,-70,-770,-70,,,,,,,0x03,
5493,-317,-956,6,0,-770,-70,,,,,,,0x03,
5503,-317,-955,6,0,-840,-70,,,,,,,0x03,
5513,-315,-955,6,0,-770,-70,,,,,,,0x03,
5522,-316,-956,7,-70,-840,-140,,,,,,,0x03,
5532,-317,-956,7,-70,-840,-140,,,,,,,0x03,
5541,-316,-955,7,-70,-770,-140,,,,,,,0x03,
5551,-316,-955,7,-140,-770,-140,,,,,,,0x03,
5561,-315,-956,6,-70,-770,-210,,,,,,,0x03,
5570,-315,-957,7,-70,-700,-210,,,,,,,0x03,
5580,-316,-956,7,-70,-700,-210,,,,,,,0x03,
5590,-316,-956,8,-140,-700,-210,,,,,,,0x03,
5599,-317,-957,6,-70,-700,-210,,,,,,,0x03,
5609,-316,-957,7,-70,-700,-140,,,,,,,0x03,
5619,-317,-955,7,-70,-700,-140,,,,,,,0x03,
5628,-315,-956,6,-140,-700,-70,,,,,,,0x03,
5638,-316,-956,6,-140,-630,-70,,,,,,,0x03,
5647,-316,-955,6,-70,-630,-70,,,,,,,0x03,
5657,-315,-956,6,-70,-630,-140,,,,,,,0x03,
5667,-317,-955,6,0,-630,-140,,,,,,,0x03,
5676,-317,-955,7,-70,-630,-140,,,,,,,0x03,
5686,-316,-955,7,-140,-700,-140,,,,,,,0x03,
5696,-316,-956,6,-70,-630,-210,,,,,,,0x03,
5705,-316,-957,7,-140,-700,-210,,,,,,,0x03,
5715,-316,-956,7,-140,-700,-280,,,,,,,0x03,
5725,-316,-956,6,-70,-700,-280,,,,,,,0x03,
5734,-316,-956,7,-70,-700,-210,,,,,,,0x03,
5744,-316,-956,6,-70,-770,-280,,,,,,,0x03,
5753,-316,-956,6,-70,-770,-280,,,,,,,0x03,
5763,-316,-956,7,-70,-770,-210,,,,,,,0x03,
5773,-316,-957,7,0,-700,-210,,,,,,,0x03,
5782,-316,-956,7,-70,-700,-140,,,,,,,0x03,
5792,-315,-956,7,-140,-700,-140,,,,,,,0x03,
5802,-316,-957,7,-140,-700,-140,,,,,,,0x03,
5811,-316,-957,6,-140,-630,-70,,,,,,,0x03,
5821,-315,-957,7,-70,-630,-70,,,,,,,0x03,
5831,-315,-956,7,0,-560,-70,,,,,,,0x03,
5840,-317,-955,7,-70,-560,-70,,,,,,,0x03,
5850,-316,-955,7,-70,-560,-70,,,,,,,0x03,
5860,-316,-955,7,-140,-560,-70,,,,,,,0x03,
5869,-317,-955,7,-140,-630,-140,,,,,,,0x03,
5879,-317,-956,5,-140,-560,-70,,,,,,,0x03,
5888,-316,-956,6,-140,-630,-140,,,,,,,0x03,
5898,-316,-955,6,-70,-630,-140,,,,,,,0x03,
5908,-317,-956,6,-70,-630,-140,,,,,,,0x03,
5917,-315,-956,5,-70,-700,-140,,,,,,,0x03,
5927,-316,-956,6,0,-700,-140,,,,,,,0x03,
5937,-315,-956,6,-70,-700,-210,,,,,,,0x03,
5946,-315,-956,6,-140,-770,-210,,,,,,,0x03,
5956,-315,-957,6,-140,-770,-210,,,,,,,0x03,
5966,-315,-956,6,-70,-770,-210,,,,,,,0x03,
5975,-316,-957,6,-70,-770,-140,,,,,,,0x03,
5985,-316,-957,6,-70,-770,-140,,,,,,,0x03,
5994,-316,-956,6,70,-770,-140,,,,,,,0x03,
6004,-315,-955,7,70,-770,-140,,,,,,,0x03,
6014,-317,-955,7,0,-770,-140,,,,,,,0x03,
6023,-315,-954,7,-140,-770,-210,,,,,,,0x03,
6033,-315,-955,7,-210,-770,-210,,,,,,,0x03,
6043,-315,-956,7,-350,-770,-280,,,,,,,0x03,
6052,-317,-957,6,-280,-700,-280,,,,,,,0x03,
6062,-315,-957,6,-210,-700,-210,,,,,,,0x03,
6072,-314,-957,6,-140,-630,-210,,,,,,,0x03,
6081,-316,-958,6,-70,-630,-140,,,,,,,0x03,
6091,-316,-958,5,70,-700,-140,,,,,,,0x03,
6100,-316,-955,6,0,-700,-70,,,,,,,0x03,
6110,-316,-956,6,-140,-700,0,,,,,,,0x03,
6120,-317,-956,7,-210,-770,0,,,,,,,0x03,
6129,-317,-956,7,-350,-770,0,,,,,,,0x03,
6139,-316,-957,7,-350,-770,0,,,,,,,0x03,
6149,-315,-956,6,-280,-770,0,,,,,,,0x03,
6158,-315,-957,6,-140,-770,-70,,,,,,,0x03,
6168,-316,-955,7,0,-770,-70,,,,,,,0x03,
6178,-316,-955,6,0,-770,-140,,,,,,,0x03,
6187,-316,-956,7,-70,-700,-210,,,,,,,0x03,
6197,-316,-955,7,-70,-700,-280,,,,,,,0x03,
6206,-315,-955,7,-70,-630,-350,,,,,,,0x03,
6216,-315,-956,6,-140,-700,-420,,,,,,,0x03,
6226,-316,-955,6,-70,-630,-420,,,,,,,0x03,
6235,-316,-955,6,-70,-630,-490,,,,,,,0x03,
6245,-315,-955,5,-140,-630,-560,,,,,,,0x03,
6255,-315,-955,5,-210,-630,-560,,,,,,,0x03,
6264,-315,-956,5,-280,-700,-490,,,,,,,0x03,
6274,-316,-957,7,-280,-700,-350,,,,,,,0x03,
6284,-315,-958,6,-280,-700,-350,,,,,,,0x03,
6293,-316,-958,6,-210,-700,-280,,,,,,,0x03,
6303,-315,-958,6,-140,-700,-210,,,,,,,0x03,
6312,-315,-958,5,0,-700,-210,,,,,,,0x03,
6322,-315,-957,6,70,-700,-140,,,,,,,0x03,
6332,-315,-955,6,70,-630,-140,,,,,,,0x03,
6341,-314,-955,6,0,-700,-70,,,,,,,0x03,
6351,-316,-956,7,-140,-630,-140,,,,,,,0x03,
6361,-315,-956,7,-140,-630,-210,,,,,,,0x03,
6370,-315,-955,6,-210,-560,-210,,,,,,,0x03,
6380,-316,-955,6,-210,-560,-280,,,,,,,0x03,
6390,-315,-957,7,-280,-490,-350,,,,,,,0x03,
6399,-316,-956,6,-210,-490,-420,,,,,,,0x03,
6409,-315,-956,6,-210,-490,-420,,,,,,,0x03,
6418,-316,-956,6,-210,-560,-420,,,,,,,0x03,
6428,-315,-956,6,-210,-490,-420,,,,,,,0x03,
6438,-315,-957,5,-140,-560,-490,,,,,,,0x03,
6447,-315,-958,5,-70,-560,-490,,,,,,,0x03,
6457,-315,-958,5,-140,-630,-350,,,,,,,0x03,
6467,-315,-958,5,-70,-630,-280,,,,,,,0x03,
6476,-315,-957,5,0,-630,-280,,,,,,,0x03,
6486,-315,-957,5,-70,-770,-210,,,,,,,0x03,
6496,-315,-957,6,-140,-770,-70,,,,,,,0x03,
6505,-316,-957,6,-70,-770,-140,,,,,,,0x03,
6515,-315,-957,6,-140,-840,-70,,,,,,,0x03,
6524,-314,-956,6,-210,-840,0,,,,,,,0x03,
6534,-315,-956,6,-140,-770,0,,,,,,,0x03,
6544,-315,-956,7,-210,-770,0,,,,,,,0x03,
6553,-315,-957,7,-210,-770,-70,,,,,,,0x03,
6563,-315,-956,6,-210,-700,-140,,,,,,,0x03,
6573,-315,-956,6,-210,-630,-140,,,,,,,0x03,
6582,-315,-958,7,-70,-630,-140,,,,,,,0x03,
6592,-315,-957,6,70,-560,-140,,,,,,,0x03,
6602,-315,-956,6,70,-630,-210,,,,,,,0x03,
6611,-315,-957,6,70,-630,-210,,,,,,,0x03,
6621,-316,-955,5,0,-560,-140,,,,,,,0x03,
6630,-314,-957,6,-140,-630,-140,,,,,,,0x03,
6640,-314,-957,5,-210,-700,-140,,,,,,,0x03,
6650,-314,-957,5,-210,-700,0,,,,,,,0x03,
6659,-316,-957,5,-140,-700,-70,,,,,,,0x03,
6669,-315,-957,5,-140,-700,0,,,,,,,0x03,
6679,-314,-957,5,-140,-770,0,,,,,,,0x03,
6688,-315,-957,6,-140,-770,70,,,,,,,0x03,
6698,-314,-956,6,-70,-770,0,,,,,,,0x03,
6708,-314,-956,6,-70,-770,0,,,,,,,0x03,
6717,-315,-955,6,70,-700,0,,,,,,,0x03,
6727,-315,-956,5,0,-700,-70,,,,,,,0x03,
6737,-315,-956,6,0,-700,-140,,,,,,,0x03,
6746,-315,-956,6,0,-700,-210,,,,,,,0x03,
6756,-315,-956,6,0,-700,-210,,,,,,,0x03,
6765,-315,-956,5,-70,-700,-280,,,,,,,0x03,
6775,-316,-957,5,-70,-700,-280,,,,,,,0x03,
6785,-315,-955,5,-140,-700,-280,,,,,,,0x03,
6794,-315,-957,6,-140,-770,-210,,,,,,,0x03,
6804,-315,-958,6,-140,-770,-140,,,,,,,0x03,
6814,-315,-957,6,-70,-770,-140,,,,,,,0x03,
6823,-315,-957,7,-70,-770,-140,,,,,,,0x03,
6833,-314,-958,6,0,-700,-140,,,,,,,0x03,
6843,-315,-957,6,-70,-700,-140,,,,,,,0x03,
6852,-315,-956,6,-70,-700,-70,,,,,,,0x03,
6862,-314,-956,6,-70,-700,-70,,,,,,,0x03,
6871,-315,-956,6,-70,-700,-70,,,,,,,0x03,
6881,-315,-955,6,-70,-700,-140,,,,,,,0x03,
6891,-315,-956,6,-140,-700,-70,,,,,,,0x03,
6900,-314,-957,6,-140,-700,-70,,,,,,,0x03,
6910,-315,-957,6,-70,-700,-70,,,,,,,0x03,
6920,-314,-957,6,-70,-700,-70,,,,,,,0x03,
6929,-314,-956,6,0,-630,-140,,,,,,,0x03,
6939,-315,-957,6,0,-630,-140,,,,,,,0x03,
6949,-315,-956,6,0,-700,-140,,,,,,,0x03,
6958,-315,-956,6,-70,-700,-140,,,,,,,0x03,
6968,-315,-956,6,-210,-700,-210,,,,,,,0x03,
6977,-315,-956,6,-210,-700,-210,,,,,,,0x03,
6987,-315,-957,6,-210,-700,-210,,,,,,,0x03,
6997,-314,-957,5,-140,-700,-210,,,,,,,0x03,
7006,-315,-958,6,-140,-700,-210,,,,,,,0x03,
7016,-315,-958,6,-70,-700,-280,,,,,,,0x03,
7026,-314,-957,5,0,-700,-210,,,,,,,0x03,
7035,-314,-957,6,70,-700,-210,,,,,,,0x03,
7045,-314,-958,5,70,-700,-140,,,,,,,0x03,
7055,-315,-958,6,0,-700,-140,,,,,,,0x03,
7064,-316,-957,5,-70,-700,-140,,,,,,,0x03,
7074,-315,-956,6,0,-700,-70,,,,,,,0x03,
7083,-315,-957,6,-70,-700,-70,,,,,,,0x03,
7093,-315,-956,5,0,-700,-70,,,,,,,0x03,
7103,-315,-957,5,-70,-700,-70,,,,,,,0x03,
7112,-315,-956,6,-140,-700,-70,,,,,,,0x03,
7122,-315,-956,6,-140,-700,-140,,,,,,,0x03,
7132,-315,-957,6,-70,-770,-70,,,,,,,0x03,
7141,-315,-956,6,0,-700,-140,,,,,,,0x03,
7151,-314,-956,6,0,-700,-140,,,,,,,0x03,
7161,-314,-955,6,-70,-700,-210,,,,,,,0x03,
7170,-316,-956,6,-70,-770,-210,,,,,,,0x03,
7180,-314,-956,6,-140,-700,-210,,,,,,,0x03,
7189,-315,-956,5,-140,-700,-210,,,,,,,0x03,
7199,-314,-956,5,-210,-770,-280,,,,,,,0x03,
7209,-315,-956,5,-140,-700,-280,,,,,,,0x03,
7218,-315,-957,5,-70,-700,-280,,,,,,,0x03,
7228,-315,-957,6,-70,-700,-140,,,,,,,0x03,
7238,-315,-958,6,-140,-770,-140,,,,,,,0x03,
7247,-314,-958,6,0,-770,-140,,,,,,,0x03,
7257,-314,-957,6,0,-770,-70,,,,,,,0x03,
7267,-315,-956,7,-70,-770,-70,,,,,,,0x03,
7276,-315,-955,7,-70,-770,-70,,,,,,,0x03,
7286,-315,-956,6,-140,-700,0,,,,,,,0x03,
7295,-315,-955,7,-210,-700,-70,,,,,,,0x03,
7305,-315,-956,7,-350,-700,-70,,,,,,,0x03,
7315,-315,-957,7,-280,-630,-70,,,,,,,0x03,
7324,-315,-958,6,-280,-630,-70,,,,,,,0x03,
7334,-313,-959,4,-140,-560,-70,,,,,,,0x03,
7344,-314,-957,6,140,-490,-140,,,,,,,0x03,
7353,-316,-956,5,280,-560,-140,,,,,,,0x03,
7363,-316,-956,5,140,-560,-70,,,,,,,0x03,
7373,-314,-956,5,70,-560,0,,,,,,,0x03,
7382,-315,-956,5,-140,-630,0,,,,,,,0x03,
7392,-316,-956,5,-210,-700,0,,,,,,,0x03,
7401,-316,-956,6,-210,-700,0,,,,,,,0x03,
7411,-315,-956,5,-280,-770,0,,,,,,,0x03,
7421,-315,-957,5,-280,-770,-70,,,,,,,0x03,
7430,-315,-957,5,-210,-770,0,,,,,,,0x03,
7440,-315,-957,6,-70,-770,-70,,,,,,,0x03,
7450,-316,-957,5,70,-770,-70,,,,,,,0x03,
7459,-314,-956,6,70,-770,-140,,,,,,,0x03,
7469,-316,-956,6,70,-770,-210,,,,,,,0x03,
7479,-314,-956,6,0,-840,-210,,,,,,,0x03,
7488,-315,-955,6,0,-770,-280,,,,,,,0x03,
7498,-315,-954,6,0,-770,-280,,,,,,,0x03,
7507,-315,-957,6,0,-840,-280,,,,,,,0x03,
7517,-314,-956,6,-70,-840,-210,,,,,,,0x03,
7527,-314,-957,5,-70,-770,-210,,,,,,,0x03,
7536,-315,-957,5,-70,-770,-210,,,,,,,0x03,
7546,-315,-957,6,-140,-700,-210,,,,,,,0x03,
7556,-315,-957,6,-140,-700,-210,,,,,,,0x03,
7565,-315,-957,6,-70,-700,-140,,,,,,,0x03,
7575,-314,-957,6,-70,-700,-140,,,,,,,0x03,
7585,-315,-958,6,-70,-700,-140,,,,,,,0x03,
7594,-314,-957,6,-70,-630,-140,,,,,,,0x03,
7604,-315,-956,6,0,-630,-140,,,,,,,0x03,
7613,-315,-956,6,-70,-630,-140,,,,,,,0x03,
7623,-315,-955,6,-140,-630,-140,,,,,,,0x03,
7633,-314,-957,6,-140,-630,-140,,,,,,,0x03,
7642,-314,-956,5,-140,-630,-140,,,,,,,0x03,
7652,-315,-956,5,-70,-630,-140,,,,,,,0x03,
7662,-315,-956,5,-70,-630,-210,,,,,,,0x03,
7671,-315,-957,5,-70,-700,-140,,,,,,,0x03,
7681,-315,-956,6,-70,-700,-140,,,,,,,0x03,
7691,-315,-956,5,-140,-700,-140,,,,,,,0x03,
7700,-315,-957,6,-140,-700,-140,,,,,,,0x03,
7710,-315,-957,7,-70,-630,-140,,,,,,,0x03,
7720,-315,-956,6,-140,-700,-140,,,,,,,0x03,
7729,-315,-957,6,-140,-700,-140,,,,,,,0x03,
7739,-314,-957,5,-70,-700,-140,,,,,,,0x03,
7748,-313,-958,6,-70,-770,-210,,,,,,,0x03,
7758,-314,-957,5,-70,-700,-210,,,,,,,0x03,
7768,-314,-957,5,0,-770,-140,,,,,,,0x03,
7777,-316,-956,6,0,-700,-140,,,,,,,0x03,
7787,-315,-957,5,-70,-770,-140,,,,,,,0x03,
7797,-315,-957,5,-70,-770,-140,,,,,,,0x03,
7806,-314,-957,6,-70,-770,-70,,,,,,,0x03,
7816,-316,-956,6,0,-770,-70,,,,,,,0x03,
7826,-315,-957,6,-70,-770,-70,,,,,,,0x03,
7835,-315,-957,6,-70,-770,-70,,,,,,,0x03,
7845,-316,-956,6,-70,-770,-70,,,,,,,0x03,
7854,-316,-955,7,0,-770,-70,,,,,,,0x03,
7864,-314,-958,6,-70,-770,-70,,,,,,,0x03,
7874,-314,-957,6,-70,-770,-70,,,,,,,0x03,
7883,-315,-957,7,-70,-700,-70,,,,,,,0x03,
7893,-315,-956,7,-70,-700,-140,,,,,,,0x03,
7903,-314,-956,6,-70,-700,-140,,,,,,,0x03,
7912,-315,-957,6,0,-630,-140,,,,,,,0x03,
7922,-314,-957,6,-70,-630,-140,,,,,,,0x03,
7932,-313,-957,6,0,-700,-140,,,,,,,0x03,
7941,-315,-957,5,-70,-630,-140,,,,,,,0x03,
7951,-315,-956,6,-70,-700,-70,,,,,,,0x03,
7960,-316,-956,5,-140,-630,-70,,,,,,,0x03,
7970,-315,-957,5,-70,-630,-140,,,,,,,0x03,
7980,-315,-957,6,-70,-630,-70,,,,,,,0x03,
7989,-316,-956,6,-70,-700,-70,,,,,,,0x03,
7999,-315,-957,6,0,-700,-70,,,,,,,0x03,
8009,-315,-957,5,0,-700,0,,,,,,,0x03,
8018,-315,-957,5,0,-770,0,,,,,,,0x03,
8028,-315,-957,6,0,-770,-70,,,,,,,0x03,
8038,-315,-957,6,0,-770,0,,,,,,,0x03,
8047,-315,-957,5,-70,-770,0,,,,,,,0x03,
8057,-315,-956,6,-70,-770,0,,,,,,,0x03,
8066,-316,-957,6,0,-770,0,,,,,,,0x03,
8076,-315,-956,6,-70,-770,0,,,,,,,0x03,
8086,-315,-956,7,-70,-700,0,,,,,,,0x03,
8095,-315,-955,7,-140,-700,70,,,,,,,0x03,
8105,-314,-956,6,-140,-700,70,,,,,,,0x03,
8115,-314,-958,6,-70,-630,140,,,,,,,0x03,
8124,-316,-957,6,0,-630,140,,,,,,,0x03,
8134,-315,-956,6,140,-560,140,,,,,,,0x03,
8144,-315,-956,5,70,-560,70,,,,,,,0x03,
8153,-316,-955,6,70,-560,70,,,,,,,0x03,
8163,-316,-955,5,0,-560,70,,,,,,,0x03,
8172,-315,-955,6,-70,-630,70,,,,,,,0x03,
8182,-316,-955,6,-140,-630,0,,,,,,,0x03,
8192,-316,-955,6,-210,-630,-70,,,,,,,0x03,
8201,-315,-956,5,-140,-700,-70,,,,,,,0x03,
8211,-315,-955,5,-210,-700,-140,,,,,,,0x03,
8221,-316,-953,6,-140,-700,-210,,,,,,,0x03,
8230,-316,-955,6,-70,-700,-280,,,,,,,0x03,
8240,-316,-956,6,-140,-770,-350,,,,,,,0x03,
8250,-316,-956,6,-140,-770,-420,,,,,,,0x03,
8259,-315,-957,6,-140,-770,-420,,,,,,,0x03,
8269,-313,-957,6,-70,-770,-350,,,,,,,0x03,
8278,-315,-958,5,-70,-700,-350,,,,,,,0x03,
8288,-315,-958,6,0,-700,-350,,,,,,,0x03,
8298,-315,-958,6,70,-700,-280,,,,,,,0x03,
8307,-315,-958,6,140,-700,-210,,,,,,,0x03,
8317,-316,-956,6,70,-700,-210,,,,,,,0x03,
8327,-315,-957,6,0,-700,-140,,,,,,,0x03,
8336,-315,-956,6,-70,-770,-70,,,,,,,0x03,
8346,-314,-956,7,-140,-770,-70,,,,,,,0x03,
8356,-315,-957,6,-140,-700,-70,,,,,,,0x03,
8365,-315,-957,7,-140,-700,-70,,,,,,,0x03,
8375,-315,-955,6,-140,-700,-140,,,,,,,0x03,
8384,-315,-955,6,-140,-700,-140,,,,,,,0x03,
8394,-315,-956,6,-140,-700,-210,,,,,,,0x03,
8404,-314,-957,6,-70,-630,-210,,,,,,,0x03,
8413,-315,-956,6,0,-700,-280,,,,,,,0x03,
8423,-315,-956,6,-70,-700,-280,,,,,,,0x03,
8433,-315,-957,5,-70,-630,-280,,,,,,,0x03,
8442,-315,-956,5,-70,-700,-350,,,,,,,0x03,
8452,-315,-957,6,-140,-700,-350,,,,,,,0x03,
8462,-314,-957,5,-140,-700,-210,,,,,,,0x03,
8471,-314,-957,5,-140,-700,-210,,,,,,,0x03,
8481,-316,-958,6,-210,-700,-210,,,,,,,0x03,
8490,-315,-958,6,-140,-770,-140,,,,,,,0x03,
8500,-315,-956,6,-140,-700,-140,,,,,,,0x03,
8510,-314,-957,6,-140,-630,-210,,,,,,,0x03,
8519,-314,-957,5,-140,-700,-70,,,,,,,0x03,
8529,-315,-956,6,-70,-700,-70,,,,,,,0x03,
8539,-315,-957,6,0,-700,-70,,,,,,,0x03,
8548,-315,-955,6,70,-700,0,,,,,,,0x03,
8558,-314,-955,6,70,-700,-70,,,,,,,0x03,
8568,-315,-954,5,-70,-770,-70,,,,,,,0x03,
8577,-315,-955,6,-70,-700,-70,,,,,,,0x03,
8587,-316,-957,6,-140,-700,-210,,,,,,,0x03,
8597,-315,-955,5,0,-700,-210,,,,,,,0x03,
8606,-314,-955,7,70,-770,-140,,,,,,,0x03,
8616,-314,-957,6,-140,-770,-210,,,,,,,0x03,
8625,-315,-955,5,-70,-770,-210,,,,,,,0x03,
8635,-314,-957,6,-210,-770,-210,,,,,,,0x03,
8645,-315,-957,5,-280,-770,-210,,,,,,,0x03,
8654,-315,-957,6,-140,-770,-280,,,,,,,0x03,
8664,-315,-958,6,-140,-700,-210,,,,,,,0x03,
8674,-315,-957,6,-140,-770,-140,,,,,,,0x03,
8683,-315,-956,6,-140,-700,-140,,,,,,,0x03,
8693,-314,-956,6,-140,-700,-70,,,,,,,0x03,
8703,-315,-957,7,-210,-700,-70,,,,,,,0x03,
8712,-315,-956,6,-210,-700,-70,,,,,,,0x03,
8722,-315,-958,5,-140,-700,-70,,,,,,,0x03,
8731,-315,-957,5,-70,-700,-70,,,,,,,0x03,
8741,-315,-957,6,0,-700,-70,,,,,,,0x03,
8751,-314,-956,6,70,-630,-70,,,,,,,0x03,
8760,-315,-956,5,70,-700,-70,,,,,,,0x03,
8770,-315,-956,5,140,-700,-70,,,,,,,0x03,
8780,-314,-956,5,140,-700,-70,,,,,,,0x03,
8789,-315,-956,6,70,-700,-70,,,,,,,0x03,
8799,-315,-957,4,0,-700,-70,,,,,,,0x03,
8809,-315,-957,5,0,-770,0,,,,,,,0x03,
8818,-315,-955,5,0,-770,0,,,,,,,0x03,
8828,-315,-958,5,0,-840,70,,,,,,,0x03,
8837,-315,-958,6,-70,-770,0,,,,,,,0x03,
8847,-316,-957,6,0,-770,0,,,,,,,0x03,
8857,-316,-957,5,-70,-770,70,,,,,,,0x03,
8866,-317,-957,7,0,-840,140,,,,,,,0x03,
8876,-316,-958,7,70,-770,140,,,,,,,0x03,
8886,-315,-956,6,70,-770,140,,,,,,,0x03,
8895,-316,-956,8,70,-770,210,,,,,,,0x03,
8905,-315,-957,6,0,-770,210,,,,,,,0x03,
8915,-316,-957,7,70,-700,140,,,,,,,0x03,
8924,-315,-957,7,70,-630,210,,,,,,,0x03,
8934,-315,-955,7,0,-630,210,,,,,,,0x03,
8943,-315,-956,6,0,-560,140,,,,,,,0x03,
8953,-316,-955,7,0,-490,140,,,,,,,0x03,
8963,-316,-955,6,0,-560,70,,,,,,,0x03,
8972,-315,-956,6,0,-560,70,,,,,,,0x03,
8982,-316,-955,5,-70,-490,-70,,,,,,,0x03,
8992,-317,-954,6,-140,-560,-70,,,,,,,0x03,
9001,-316,-956,6,-210,-560,-210,,,,,,,0x03,
9011,-316,-956,6,-280,-560,-210,,,,,,,0x03,
9021,-315,-956,6,-210,-630,-280,,,,,,,0x03,
9030,-316,-956,6,-210,-630,-350,,,,,,,0x03,
9040,-316,-956,6,-140,-770,-420,,,,,,,0x03,
9049,-315,-956,6,-70,-770,-420,,,,,,,0x03,
9059,-315,-957,5,-140,-770,-350,,,,,,,0x03,
9069,-316,-956,5,-140,-700,-420,,,,,,,0x03,
9078,-315,-956,6,-140,-840,-350,,,,,,,0x03,
9088,-315,-957,7,-140,-840,-350,,,,,,,0x03,
9098,-314,-957,6,-70,-840,-280,,,,,,,0x03,
9107,-315,-958,6,-70,-770,-280,,,,,,,0x03,
9117,-315,-957,7,0,-770,-210,,,,,,,0x03,
9127,-314,-956,7,70,-770,-140,,,,,,,0x03,
9136,-315,-956,6,0,-770,-70,,,,,,,0x03,
9146,-315,-957,7,0,-700,-70,,,,,,,0x03,
9155,-316,-957,5,0,-770,0,,,,,,,0x03,
9165,-316,-957,7,0,-700,0,,,,,,,0x03,
9175,-316,-955,5,0,-700,0,,,,,,,0x03,
9184,-316,-956,6,0,-700,0,,,,,,,0x03,
9194,-315,-956,5,0,-700,0,,,,,,,0x03,
9204,-315,-956,5,0,-700,-70,,,,,,,0x03,
9213,-317,-956,6,0,-700,-70,,,,,,,0x03,
9223,-315,-955,7,-70,-770,-70,,,,,,,0x03,
9233,-316,-955,6,-140,-700,-140,,,,,,,0x03,
9242,-315,-955,7,-140,-700,-140,,,,,,,0x03,
9252,-315,-956,7,-140,-700,-140,,,,,,,0x03,
9261,-316,-956,6,-140,-700,-210,,,,,,,0x03,
9271,-316,-956,6,-210,-700,-210,,,,,,,0x03,
9281,-314,-958,5,-140,-630,-210,,,,,,,0x03,
9290,-315,-957,6,-70,-700,-140,,,,,,,0x03,
9300,-315,-956,6,-70,-700,-210,,,,,,,0x03,
9310,-315,-957,6,-70,-630,-210,,,,,,,0x03,
9319,-315,-957,5,-70,-630,-210,,,,,,,0x03,
9329,-315,-956,6,-70,-630,-140,,,,,,,0x03,
9339,-315,-957,6,-70,-700,-140,,,,,,,0x03,
9348,-315,-957,6,-70,-700,-70,,,,,,,0x03,
9358,-314,-957,6,-70,-630,-70,,,,,,,0x03,
9367,-316,-956,6,-70,-700,-70,,,,,,,0x03,
9377,-315,-957,6,0,-700,0,,,,,,,0x03,
9387,-315,-957,6,0,-700,0,,,,,,,0x03,
9396,-316,-956,7,70,-700,0,,,,,,,0x03,
9406,-316,-956,6,0,-770,0,,,,,,,0x03,
9416,-316,-955,7,0,-700,0,,,,,,,0x03,
9425,-315,-955,6,0,-700,-70,,,,,,,0x03,
9435,-315,-956,7,-70,-770,-70,,,,,,,0x03,
9445,-315,-955,7,-70,-700,-140,,,,,,,0x03,
9454,-316,-956,6,-70,-770,-140,,,,,,,0x03,
9464,-316,-956,6,-70,-770,-140,,,,,,,0x03,
9474,-316,-956,6,-70,-770,-210,,,,,,,0x03,
9483,-315,-957,6,-70,-700,-210,,,,,,,0x03,
9493,-315,-957,6,-140,-770,-210,,,,,,,0x03,
9502,-315,-956,6,-70,-700,-210,,,,,,,0x03,
9512,-315,-956,5,-70,-630,-140,,,,,,,0x03,
9522,-315,-957,7,-70,-700,-140,,,,,,,0x03,
9531,-316,-957,6,-70,-700,-140,,,,,,,0x03,
9541,-315,-956,6,-70,-700,-70,,,,,,,0x03,
9551,-315,-958,7,-140,-700,-70,,,,,,,0x03,
9560,-316,-957,6,-70,-630,-70,,,,,,,0x03,
9570,-315,-956,6,-70,-630,0,,,,,,,0x03,
9580,-315,-956,6,-70,-630,0,,,,,,,0x03,
9589,-316,-957,6,-70,-630,0,,,,,,,0x03,
9599,-315,-956,5,-70,-630,0,,,,,,,0x03,
9608,-316,-956,6,-70,-700,-70,,,,,,,0x03,
9618,-315,-956,6,0,-700,-70,,,,,,,0x03,
9628,-316,-956,5,0,-700,-140,,,,,,,0x03,
9637,-316,-956,6,-70,-700,-140,,,,,,,0x03,
9647,-316,-956,6,-70,-700,-210,,,,,,,0x03,
9657,-316,-956,6,-70,-700,-210,,,,,,,0x03,
9666,-315,-956,6,0,-700,-140,,,,,,,0x03,
9676,-316,-956,6,-70,-770,-210,,,,,,,0x03,
9686,-316,-955,6,-70,-770,-210,,,,,,,0x03,
9695,-315,-956,6,-70,-770,-140,,,,,,,0x03,
9705,-315,-957,6,-70,-770,-210,,,,,,,0x03,
9714,-315,-956,6,-70,-770,-210,,,,,,,0x03,
9724,-315,-957,6,-70,-770,-140,,,,,,,0x03,
9734,-314,-957,7,-70,-770,-140,,,,,,,0x03,
9743,-316,-957,6,0,-770,-70,,,,,,,0x03,
9753,-315,-957,6,70,-770,-70,,,,,,,0x03,
9763,-315,-957,6,0,-770,-70,,,,,,,0x03,
9772,-315,-956,6,0,-770,-140,,,,,,,0x03,
9782,-316,-955,6,-70,-770,-210,,,,,,,0x03,
9792,-315,-955,7,-140,-770,-140,,,,,,,0x03,
9801,-316,-956,8,-140,-770,-210,,,,,,,0x03,
9811,-314,-956,7,-210,-700,-210,,,,,,,0x03,
9820,-315,-957,6,-210,-630,-210,,,,,,,0x03,
9830,-315,-958,6,-210,-630,-210,,,,,,,0x03,
9840,-316,-958,6,-70,-560,-210,,,,,,,0x03,
9849,-316,-957,6,0,-630,-140,,,,,,,0x03,
9859,-316,-957,6,0,-560,-140,,,,,,,0x03,
9869,-316,-956,6,-70,-560,-140,,,,,,,0x03,
9878,-316,-957,5,-70,-560,-140,,,,,,,0x03,
9888,-315,-956,6,-140,-630,-70,,,,,,,0x03,
9898,-316,-956,5,-210,-560,-70,,,,,,,0x03,
9907,-316,-957,7,-210,-630,-140,,,,,,,0x03,
9917,-316,-957,6,-210,-700,-140,,,,,,,0x03,
9926,-315,-957,5,-140,-700,-140,,,,,,,0x03,
9936,-315,-955,7,-70,-700,-140,,,,,,,0x03,
9946,-316,-956,6,-70,-700,-140,,,,,,,0x03,
9955,-316,-956,6,-70,-700,-210,,,,,,,0x03,
9965,-315,-957,6,-70,-700,-210,,,,,,,0x03,
9975,-315,-956,7,-70,-700,-140,,,,,,,0x03,
9984,-315,-956,6,0,-770,-210,,,,,,,0x03,
9994,-316,-956,6,70,-770,-210,,,,,,,0x03,
10004,-315,-956,6,0,-770,-210,,,,,,,0x03,
10013,-315,-955,5,0,-770,-210,,,,,,,0x03,
10023,-317,-956,6,-70,-770,-210,,,,,,,0x03,
10032,-315,-956,7,-140,-840,-210,,,,,,,0x03,
10042,-315,-957,7,-140,-770,-140,,,,,,,0x03,
10052,-315,-956,6,-140,-840,-140,,,,,,,0x03,
10061,-315,-957,7,-70,-770,-140,,,,,,,0x03,
10071,-315,-956,7,-140,-700,-140,,,,,,,0x03,
10081,-316,-956,7,-140,-700,-70,,,,,,,0x03,
10090,-316,-956,6,-140,-700,-70,,,,,,,0x03,
10100,-316,-957,6,-70,-700,-70,,,,,,,0x03,
10110,-315,-956,7,-70,-700,-140,,,,,,,0x03,
10119,-316,-956,6,-70,-700,-70,,,,,,,0x03,
10129,-316,-956,6,-70,-630,-70,,,,,,,0x03,
10138,-316,-956,5,-70,-630,-70,,,,,,,0x03,
10148,-316,-955,6,-70,-700,-140,,,,,,,0x03,
10158,-316,-955,6,-140,-630,-140,,,,,,,0x03,
10167,-316,-957,6,-140,-630,-70,,,,,,,0x03,
10177,-316,-957,6,-140,-630,-140,,,,,,,0x03,
10187,-315,-957,6,-140,-630,-140,,,,,,,0x03,
10196,-315,-956,6,-70,-700,-140,,,,,,,0x03,
10206,-315,-957,6,0,-700,-70,,,,,,,0x03,
10216,-316,-956,6,0,-700,-70,,,,,,,0x03,
10225,-315,-956,6,0,-700,-70,,,,,,,0x03,
10235,-315,-957,6,0,-700,-70,,,,,,,0x03,
10244,-315,-957,6,0,-700,-70,,,,,,,0x03,
10254,-316,-956,6,-70,-630,-70,,,,,,,0x03,
10264,-316,-956,6,0,-630,0,,,,,,,0x03,
10273,-316,-955,7,0,-700,0,,,,,,,0x03,
10283,-314,-957,6,-70,-700,0,,,,,,,0x03,
10293,-316,-956,6,0,-700,-70,,,,,,,0x03,
10302,-316,-957,7,-70,-700,0,,,,,,,0x03,
10312,-316,-958,6,-140,-700,0,,,,,,,0x03,
10322,-315,-958,6,70,-700,0,,,,,,,0x03,
10331,-314,-956,6,280,-700,70,,,,,,,0x03,
10341,-316,-955,7,210,-700,140,,,,,,,0x03,
10351,-314,-956,7,70,-700,70,,,,,,,0x03,
10360,-316,-957,7,70,-630,70,,,,,,,0x03,
10370,-316,-956,7,70,-630,70,,,,,,,0x03,
10379,-316,-954,6,0,-630,70,,,,,,,0x03,
10389,-316,-955,6,-70,-630,0,,,,,,,0x03,
10399,-315,-955,7,-140,-700,-70,,,,,,,0x03,
10408,-315,-955,6,-210,-700,-140,,,,,,,0x03,
10418,-316,-956,6,-140,-630,-140,,,,,,,0x03,
10428,-316,-955,6,-70,-700,-140,,,,,,,0x03,
10437,-317,-955,6,-70,-700,-280,,,,,,,0x03,
10447,-316,-956,5,0,-700,-280,,,,,,,0x03,
10457,-316,-954,6,0,-700,-280,,,,,,,0x03,
10466,-315,-956,7,-70,-700,-350,,,,,,,0x03,
10476,-315,-955,7,-70,-700,-350,,,,,,,0x03,
10485,-316,-955,6,-140,-700,-420,,,,,,,0x03,
10495,-316,-956,6,-140,-700,-420,,,,,,,0x03,
10505,-316,-957,6,-210,-700,-420,,,,,,,0x03,
10514,-315,-957,6,-140,-700,-420,,,,,,,0x03,
10524,-315,-957,6,-140,-700,-350,,,,,,,0x03,
10534,-316,-958,6,-70,-700,-350,,,,,,,0x03,
10543,-316,-958,6,0,-630,-280,,,,,,,0x03,
10553,-316,-958,7,70,-630,-210,,,,,,,0x03,
10563,-316,-957,7,70,-700,-210,,,,,,,0x03,
10572,-315,-958,6,70,-630,-140,,,,,,,0x03,
10582,-315,-956,7,0,-630,-70,,,,,,,0x03,
10591,-316,-955,6,0,-700,-70,,,,,,,0x03,
10601,-315,-956,5,-70,-700,-140,,,,,,,0x03,
10611,-316,-957,6,-140,-700,-70,,,,,,,0x03,
10620,-316,-956,5,-210,-700,-140,,,,,,,0x03,
10630,-315,-957,6,-70,-700,-140,,,,,,,0x03,
10640,-315,-956,6,-70,-700,-140,,,,,,,0x03,
10649,-316,-955,7,-70,-770,-140,,,,,,,0x03,
10659,-316,-956,6,-70,-770,-140,,,,,,,0x03,
10669,-316,-956,6,0,-700,-140,,,,,,,0x03,
10678,-315,-956,6,0,-700,-210,,,,,,,0x03,
10688,-316,-956,7,-70,-700,-280,,,,,,,0x03,
10697,-314,-955,7,-140,-700,-280,,,,,,,0x03,
10707,-315,-955,6,-210,-700,-280,,,,,,,0x03,
10717,-315,-957,7,-420,-700,-210,,,,,,,0x03,
10726,-316,-958,6,-490,-700,-280,,,,,,,0x03,
10736,-315,-958,7,-350,-700,-210,,,,,,,0x03,
10746,-315,-958,6,-210,-630,-210,,,,,,,0x03,
10755,-314,-958,7,-70,-700,-140,,,,,,,0x03,
10765,-315,-957,6,70,-630,-140,,,,,,,0x03,
10775,-315,-958,5,0,-700,-70,,,,,,,0x03,
10784,-315,-957,4,70,-630,0,,,,,,,0x03,
10794,-316,-956,5,0,-700,70,,,,,,,0x03,
10803,-317,-957,7,0,-700,70,,,,,,,0x03,
10813,-315,-956,6,-70,-630,70,,,,,,,0x03,
10823,-316,-955,5,0,-700,0,,,,,,,0x03,
10832,-316,-955,5,-70,-770,70,,,,,,,0x03,
10842,-315,-956,5,-70,-770,0,,,,,,,0x03,
10852,-316,-955,5,-70,-770,-70,,,,,,,0x03,
10861,-316,-955,6,0,-840,-70,,,,,,,0x03,
10871,-316,-955,7,-70,-770,-210,,,,,,,0x03,
10881,-315,-955,7,-70,-770,-210,,,,,,,0x03,
10890,-316,-956,6,-70,-770,-210,,,,,,,0x03,
10900,-315,-957,6,0,-770,-350,,,,,,,0x03,
10909,-315,-956,6,70,-770,-280,,,,,,,0x03,
10919,-315,-957,7,70,-770,-280,,,,,,,0x03,
10929,-316,-957,6,0,-770,-350,,,,,,,0x03,
10938,-315,-955,7,-70,-770,-350,,,,,,,0x03,
10948,-315,-956,7,-70,-770,-350,,,,,,,0x03,
10958,-315,-957,7,-210,-770,-280,,,,,,,0x03,
10967,-315,-958,6,-280,-770,-280,,,,,,,0x03,
10977,-316,-957,7,-280,-770,-280,,,,,,,0x03,
10987,-314,-957,7,-140,-770,-280,,,,,,,0x03,
10996,-315,-957,7,-70,-770,-210,,,,,,,0x03,
11006,-316,-956,7,0,-700,-210,,,,,,,0x03,
11015,-316,-956,7,0,-700,-210,,,,,,,0x03,
11025,-315,-957,7,-70,-630,-210,,,,,,,0x03,
11035,-316,-957,6,-70,-700,-140,,,,,,,0x03,
11044,-315,-956,6,-70,-630,-140,,,,,,,0x03,
11054,-316,-956,6,-140,-700,-140,,,,,,,0x03,
11064,-315,-957,7,-140,-630,-140,,,,,,,0x03,
11073,-315,-957,7,-210,-700,-210,,,,,,,0x03,
11083,-315,-956,6,-210,-700,-210,,,,,,,0x03,
11093,-315,-956,6,-210,-700,-210,,,,,,,0x03,
11102,-315,-956,6,-210,-700,-210,,,,,,,0x03,
11112,-315,-957,6,-140,-630,-210,,,,,,,0x03,
11121,-316,-956,5,-70,-630,-210,,,,,,,0x03,
11131,-316,-956,5,-70,-700,-280,,,,,,,0x03,
11141,-315,-957,6,-70,-630,-280,,,,,,,0x03,
11150,-316,-956,6,0,-630,-280,,,,,,,0x03,
11160,-315,-956,7,-70,-700,-280,,,,,,,0x03,
11170,-315,-957,5,-140,-700,-280,,,,,,,0x03,
11179,-314,-956,6,-140,-700,-280,,,,,,,0x03,
11189,-314,-957,7,-70,-700,-280,,,,,,,0x03,
11199,-315,-957,6,-140,-700,-210,,,,,,,0x03,
11208,-315,-957,6,-70,-700,-210,,,,,,,0x03,
11218,-315,-958,6,0,-700,-210,,,,,,,0x03,
11228,-314,-956,7,0,-700,-140,,,,,,,0x03,
11237,-315,-956,6,70,-700,-140,,,,,,,0x03,
11247,-315,-955,7,0,-700,-140,,,,,,,0x03,
11256,-315,-957,6,-70,-700,-140,,,,,,,0x03,
11266,-315,-955,7,-70,-700,-70,,,,,,,0x03,
11276,-316,-956,6,-70,-700,-140,,,,,,,0x03,
11285,-314,-955,6,-140,-700,-210,,,,,,,0x03,
11295,-314,-957,6,-140,-700,-210,,,,,,,0x03,
11305,-315,-956,6,-140,-700,-210,,,,,,,0x03,
11314,-314,-957,6,-140,-700,-280,,,,,,,0x03,
11324,-315,-957,6,-70,-630,-280,,,,,,,0x03,
11334,-315,-956,6,0,-630,-280,,,,,,,0x03,
11343,-315,-957,6,-70,-700,-210,,,,,,,0x03,
11353,-314,-957,6,-140,-700,-210,,,,,,,0x03,
11362,-315,-957,6,-70,-700,-210,,,,,,,0x03,
11372,-314,-956,6,-70,-700,-140,,,,,,,0x03,
11382,-314,-957,6,-70,-700,-140,,,,,,,0x03,
11391,-316,-957,6,-70,-700,-140,,,,,,,0x03,
11401,-315,-955,6,-70,-700,-210,,,,,,,0x03,
11411,-315,-956,6,-210,-700,-140,,,,,,,0x03,
11420,-315,-955,6,-210,-700,-140,,,,,,,0x03,
11430,-315,-956,6,-280,-700,-210,,,,,,,0x03,
11440,-315,-956,5,-280,-630,-210,,,,,,,0x03,
11449,-314,-956,6,-210,-700,-210,,,,,,,0x03,
11459,-314,-956,5,-140,-700,-280,,,,,,,0x03,
11468,-315,-957,6,-140,-700,-350,,,,,,,0x03,
11478,-315,-957,5,-140,-700,-420,,,,,,,0x03,
11488,-316,-956,6,-70,-700,-420,,,,,,,0x03,
11497,-315,-955,5,-140,-770,-490,,,,,,,0x03,
11507,-314,-956,5,-210,-770,-560,,,,,,,0x03,
11517,-315,-956,6,-280,-840,-630,,,,,,,0x03,
11526,-313,-955,6,-280,-770,-630,,,,,,,0x03,
11536,-314,-957,7,-350,-840,-630,,,,,,,0x03,
11546,-313,-957,6,-350,-770,-630,,,,,,,0x03,
11555,-314,-958,6,-280,-770,-630,,,,,,,0x03,
11565,-315,-958,6,-280,-700,-560,,,,,,,0x03,
11574,-315,-958,6,-280,-700,-560,,,,,,,0x03,
11584,-313,-960,6,-210,-700,-490,,,,,,,0x03,
11594,-313,-959,6,-280,-630,-420,,,,,,,0x03,
11603,-312,-959,6,-210,-560,-280,,,,,,,0x03,
11613,-313,-958,6,-140,-560,-210,,,,,,,0x03,
11623,-313,-958,6,-70,-490,-70,,,,,,,0x03,
11632,-313,-959,5,-70,-490,0,,,,,,,0x03,
11642,-313,-957,6,-70,-490,70,,,,,,,0x03,
11652,-314,-957,5,-70,-490,140,,,,,,,0x03,
11661,-314,-957,5,-70,-490,140,,,,,,,0x03,
11671,-315,-956,6,-140,-490,140,,,,,,,0x03,
11680,-315,-955,5,-210,-560,140,,,,,,,0x03,
11690,-314,-956,4,-140,-560,0,,,,,,,0x03,
11700,-314,-958,5,-140,-560,-70,,,,,,,0x03,
11709,-314,-956,4,-70,-630,-140,,,,,,,0x03,
11719,-314,-955,5,-70,-700,-210,,,,,,,0x03,
11729,-315,-955,5,-140,-770,-280,,,,,,,0x03,
11738,-314,-956,6,-210,-770,-350,,,,,,,0x03,
11748,-314,-957,4,-210,-770,-420,,,,,,,0x03,
11758,-314,-957,5,-210,-770,-420,,,,,,,0x03,
11767,-314,-958,5,-140,-840,-420,,,,,,,0x03,
11777,-315,-958,5,-70,-840,-420,,,,,,,0x03,
11786,-314,-957,6,0,-840,-350,,,,,,,0x03,
11796,-312,-958,5,-140,-840,-350,,,,,,,0x03,
11806,-313,-958,5,-140,-910,-280,,,,,,,0x03,
11815,-315,-958,5,-140,-840,-280,,,,,,,0x03,
11825,-314,-958,5,-140,-910,-210,,,,,,,0x03,
11835,-313,-958,6,-70,-840,-210,,,,,,,0x03,
11844,-314,-957,6,-140,-770,-210,,,,,,,0x03,
11854,-313,-958,6,-210,-770,-210,,,,,,,0x03,
11864,-313,-957,6,-210,-770,-210,,,,,,,0x03,
11873,-313,-957,6,-140,-700,-140,,,,,,,0x03,
11883,-313,-957,6,-140,-630,-210,,,,,,,0x03,
11892,-313,-958,5,-140,-630,-210,,,,,,,0x03,
11902,-315,-957,5,-70,-560,-210,,,,,,,0x03,
11912,-314,-956,6,0,-560,-280,,,,,,,0x03,
11921,-314,-955,6,-70,-560,-280,,,,,,,0x03,
11931,-314,-956,5,-140,-490,-350,,,,,,,0x03,
11941,-315,-955,5,-210,-560,-350,,,,,,,0x03,
11950,-313,-957,4,-210,-560,-350,,,,,,,0x03,
11960,-314,-958,5,-280,-560,-420,,,,,,,0x03,
11970,-314,-958,5,-280,-560,-420,,,,,,,0x03,
11979,-314,-957,5,-280,-630,-420,,,,,,,0x03,
11989,-313,-957,5,-280,-630,-490,,,,,,,0x03,
11998,-314,-958,5,-280,-630,-490,,,,,,,0x03,
12008,-313,-958,5,-280,-630,-420,,,,,,,0x03,
12018,-312,-957,4,-210,-630,-420,,,,,,,0x03,
12027,-313,-958,5,-140,-560,-350,,,,,,,0x03,
12037,-312,-958,5,-140,-630,-350,,,,,,,0x03,
12047,-312,-958,4,-70,-630,-280,,,,,,,0x03,
12056,-312,-958,5,-70,-700,-280,,,,,,,0x03,
12066,-313,-958,5,-140,-700,-280,,,,,,,0x03,
12076,-313,-957,5,-210,-630,-210,,,,,,,0x03,
12085,-312,-957,5,-280,-630,-210,,,,,,,0x03,
12095,-313,-958,4,-210,-630,-140,,,,,,,0x03,
12104,-313,-958,4,-210,-630,-140,,,,,,,0x03,
12114,-314,-958,3,-70,-700,-140,,,,,,,0x03,
12124,-313,-956,5,0,-700,-140,,,,,,,0x03,
12133,-313,-955,5,0,-700,-140,,,,,,,0x03,
12143,-312,-957,5,-140,-700,-210,,,,,,,0x03,
12153,-312,-956,5,-210,-700,-140,,,,,,,0x03,
12162,-312,-957,5,-280,-700,-140,,,,,,,0x03,
12172,-312,-957,4,-210,-700,-210,,,,,,,0x03,
12182,-312,-957,5,-140,-700,-280,,,,,,,0x03,
12191,-313,-956,6,-210,-700,-280,,,,,,,0x03,
12201,-312,-956,5,-280,-700,-350,,,,,,,0x03,
12211,-312,-956,4,-280,-700,-350,,,,,,,0x03,
12220,-312,-957,5,-350,-630,-420,,,,,,,0x03,
12230,-313,-957,5,-350,-630,-420,,,,,,,0x03,
12239,-312,-957,4,-280,-630,-420,,,,,,,0x03,
12249,-313,-957,5,-280,-630,-420,,,,,,,0x03,
12259,-313,-958,5,-280,-560,-420,,,,,,,0x03,
12268,-312,-958,5,-350,-560,-490,,,,,,,0x03,
12278,-312,-959,4,-280,-560,-490,,,,,,,0x03,
12288,-312,-957,5,-280,-560,-490,,,,,,,0x03,
12297,-312,-959,5,-420,-560,-420,,,,,,,0x03,
12307,-312,-958,1,-280,-630,-490,,,,,,,0x03,
12317,-311,-956,4,-70,-560,-490,,,,,,,0x03,
12326,-312,-956,5,-560,-560,-490,,,,,,,0x03,
12336,-311,-958,5,-630,-630,-350,,,,,,,0x03,
12345,-313,-962,0,-630,-700,-350,,,,,,,0x03,
12355,-311,-958,4,-280,-630,-420,,,,,,,0x03,
12365,-316,-957,8,-70,-560,-280,,,,,,,0x03,
12374,-312,-956,4,-280,-700,-210,,,,,,,0x03,
12384,-311,-959,3,-420,-560,-140,,,,,,,0x03,
12394,-311,-959,5,-350,-630,-140,,,,,,,0x03,
12403,-311,-958,5,-210,-560,-140,,,,,,,0x03,
12413,-311,-957,4,-280,-560,-70,,,,,,,0x03,
12423,-312,-957,4,-350,-490,0,,,,,,,0x03,
12432,-311,-957,4,-350,-490,70,,,,,,,0x03,
12442,-310,-959,5,-210,-420,70,,,,,,,0x03,
12451,-312,-960,3,-140,-350,0,,,,,,,0x03,
12461,-311,-958,4,0,-350,0,,,,,,,0x03,
12471,-313,-957,4,70,-420,0,,,,,,,0x03,
12480,-313,-957,3,-70,-420,0,,,,,,,0x03,
12490,-313,-957,3,-210,-490,-70,,,,,,,0x03,
12500,-312,-956,2,-280,-560,-70,,,,,,,0x03,
12509,-312,-958,2,-280,-630,-140,,,,,,,0x03,
12519,-313,-958,3,-280,-700,-210,,,,,,,0x03,
12529,-313,-957,1,-280,-770,-280,,,,,,,0x03,
12538,-312,-958,2,-280,-910,-280,,,,,,,0x03,
12548,-312,-958,3,-280,-910,-350,,,,,,,0x03,
12557,-312,-957,5,-210,-840,-420,,,,,,,0x03,
12567,-311,-957,3,-210,-980,-420,,,,,,,0x03,
12577,-311,-957,4,-210,-980,-490,,,,,,,0x03,
12586,-311,-959,3,-280,-910,-490,,,,,,,0x03,
12596,-311,-959,2,-70,-910,-420,,,,,,,0x03,
12606,-310,-959,4,70,-840,-490,,,,,,,0x03,
12615,-312,-957,4,70,-840,-420,,,,,,,0x03,
12625,-311,-958,5,0,-840,-350,,,,,,,0x03,
12635,-312,-959,4,-140,-770,-350,,,,,,,0x03,
12644,-311,-958,4,-210,-700,-350,,,,,,,0x03,
12654,-310,-957,4,-210,-700,-280,,,,,,,0x03,
12663,-311,-958,4,-210,-630,-280,,,,,,,0x03,
12673,-312,-958,4,-140,-630,-280,,,,,,,0x03,
12683,-310,-958,3,-140,-560,-350,,,,,,,0x03,
12692,-311,-958,4,-140,-560,-280,,,,,,,0x03,
12702,-311,-958,3,-140,-490,-210,,,,,,,0x03,
12712,-311,-958,4,-210,-490,-210,,,,,,,0x03,
12721,-310,-959,2,-210,-490,-210,,,,,,,0x03,
12731,-310,-959,2,-70,-490,-210,,,,,,,0x03,
12741,-312,-959,2,0,-490,-210,,,,,,,0x03,
12750,-311,-957,2,-70,-490,-140,,,,,,,0x03,
12760,-311,-958,3,-70,-560,-140,,,,,,,0x03,
12769,-311,-958,2,-140,-630,-70,,,,,,,0x03,
12779,-312,-958,2,-210,-700,-70,,,,,,,0x03,
12789,-311,-959,3,-210,-700,-70,,,,,,,0x03,
12798,-311,-957,3,-210,-700,-70,,,,,,,0x03,
12808,-311,-956,2,-280,-770,-70,,,,,,,0x03,
12818,-311,-958,2,-280,-770,-70,,,,,,,0x03,
12827,-312,-958,3,-280,-840,-70,,,,,,,0x03,
12837,-311,-958,3,-70,-840,-70,,,,,,,0x03,
12847,-311,-958,3,0,-770,-140,,,,,,,0x03,
12856,-312,-957,5,0,-770,-140,,,,,,,0x03,
12866,-311,-956,3,-70,-770,-140,,,,,,,0x03,
12875,-311,-958,3,-140,-700,-140,,,,,,,0x03,
12885,-311,-958,4,-70,-700,-140,,,,,,,0x03,
12895,-311,-958,3,-70,-700,-140,,,,,,,0x03,
12904,-312,-957,2,-70,-700,-140,,,,,,,0x03,
12914,-311,-956,4,-70,-700,-140,,,,,,,0x03,
12924,-310,-958,3,-140,-700,-70,,,,,,,0x03,
12933,-311,-958,2,-70,-700,-140,,,,,,,0x03,
12943,-311,-958,3,-70,-700,-70,,,,,,,0x03,
12953,-311,-958,3,-70,-700,-70,,,,,,,0x03,
12962,-311,-958,2,-70,-770,-140,,,,,,,0x03,
12972,-310,-958,2,-70,-700,-140,,,,,,,0x03,
12981,-312,-957,3,-70,-770,-140,,,,,,,0x03,
12991,-311,-956,3,-70,-770,-140,,,,,,,0x03,
13001,-311,-957,3,-140,-700,-210,,,,,,,0x03,
13010,-311,-958,3,-210,-770,-280,,,,,,,0x03,
13020,-312,-959,2,-210,-700,-210,,,,,,,0x03,
13030,-310,-957,4,-140,-700,-280,,,,,,,0x03,
13039,-311,-959,3,-140,-700,-280,,,,,,,0x03,
13049,-311,-958,4,-70,-700,-280,,,,,,,0x03,
13059,-311,-957,3,0,-630,-280,,,,,,,0x03,
13068,-311,-958,3,-70,-630,-210,,,,,,,0x03,
13078,-311,-958,3,-140,-630,-210,,,,,,,0x03,
13088,-311,-959,2,-70,-630,-210,,,,,,,0x03,
13097,-310,-958,1,-70,-630,-140,,,,,,,0x03,
13107,-311,-958,2,-70,-700,-140,,,,,,,0x03,
13116,-311,-958,2,-140,-700,-70,,,,,,,0x03,
13126,-312,-958,1,-140,-700,-70,,,,,,,0x03,
13136,-311,-959,2,-140,-700,0,,,,,,,0x03,
13145,-312,-959,2,-70,-770,0,,,,,,,0x03,
13155,-311,-959,2,0,-770,0,,,,,,,0x03,
13165,-311,-958,3,0,-770,0,,,,,,,0x03,
13174,-312,-957,3,0,-770,-70,,,,,,,0x03,
13184,-311,-957,3,0,-840,-70,,,,,,,0x03,
13194,-310,-956,3,-70,-770,-70,,,,,,,0x03,
13203,-311,-956,3,-140,-770,-140,,,,,,,0x03,
13213,-311,-957,4,-210,-770,-210,,,,,,,0x03,
13222,-311,-958,3,-280,-700,-280,,,,,,,0x03,
13232,-311,-959,3,-280,-700,-210,,,,,,,0x03,
13242,-312,-958,4,-210,-700,-210,,,,,,,0x03,
13251,-311,-960,4,-70,-630,-210,,,,,,,0x03,
13261,-311,-960,2,0,-630,-140,,,,,,,0x03,
13271,-312,-958,2,140,-630,-70,,,,,,,0x03,
13280,-311,-959,2,140,-700,0,,,,,,,0x03,
13290,-311,-957,3,0,-700,0,,,,,,,0x03,
13300,-311,-957,4,-70,-700,70,,,,,,,0x03,
13309,-312,-957,3,-210,-770,140,,,,,,,0x03,
13319,-311,-957,2,-280,-770,70,,,,,,,0x03,
13328,-312,-959,3,-210,-770,70,,,,,,,0x03,
13338,-312,-957,3,-210,-770,70,,,,,,,0x03,
13348,-311,-957,3,-140,-770,0,,,,,,,0x03,
13357,-312,-956,3,-140,-770,0,,,,,,,0x03,
13367,-311,-956,4,-140,-770,-70,,,,,,,0x03,
13377,-311,-960,4,-140,-770,-70,,,,,,,0x03,
13386,-310,-958,3,0,-770,-140,,,,,,,0x03,
13396,-310,-957,4,140,-700,-210,,,,,,,0x03,
13406,-311,-958,3,70,-700,-210,,,,,,,0x03,
13415,-311,-957,4,-70,-700,-140,,,,,,,0x03,
13425,-312,-958,4,-140,-630,-210,,,,,,,0x03,
13434,-311,-958,4,-140,-560,-140,,,,,,,0x03,
13444,-310,-957,4,-210,-490,-140,,,,,,,0x03,
13454,-310,-958,3,-140,-490,-140,,,,,,,0x03,
13463,-311,-958,3,-210,-420,-140,,,,,,,0x03,
13473,-312,-958,3,-140,-490,-140,,,,,,,0x03,
13483,-311,-957,2,-70,-490,-210,,,,,,,0x03,
13492,-311,-958,3,-70,-490,-210,,,,,,,0x03,
13502,-313,-957,2,-70,-560,-280,,,,,,,0x03,
13512,-311,-957,2,-140,-560,-280,,,,,,,0x03,
13521,-311,-957,1,-210,-560,-280,,,,,,,0x03,
13531,-311,-958,2,-210,-630,-350,,,,,,,0x03,
13540,-311,-958,3,-280,-700,-350,,,,,,,0x03,
13550,-313,-960,2,-350,-700,-280,,,,,,,0x03,
13560,-312,-959,1,-280,-700,-280,,,,,,,0x03,
13569,-311,-960,2,-280,-770,-140,,,,,,,0x03,
13579,-311,-960,2,-210,-840,-140,,,,,,,0x03,
13589,-310,-961,3,-140,-840,0,,,,,,,0x03,
13598,-310,-960,3,-140,-840,70,,,,,,,0x03,
13608,-311,-959,3,-140,-910,280,,,,,,,0x03,
13618,-312,-960,3,-140,-840,350,,,,,,,0x03,
13627,-311,-959,2,-70,-840,420,,,,,,,0x03,
13637,-312,-959,3,0,-840,560,,,,,,,0x03,
13646,-311,-958,4,70,-770,630,,,,,,,0x03,
13656,-311,-958,3,0,-700,630,,,,,,,0x03,
13666,-311,-957,4,-70,-770,630,,,,,,,0x03,
13675,-313,-957,1,0,-700,560,,,,,,,0x03,
13685,-313,-957,4,70,-560,490,,,,,,,0x03,
13695,-313,-956,4,70,-630,490,,,,,,,0x03,
13704,-313,-955,2,70,-630,420,,,,,,,0x03,
13714,-312,-954,2,0,-630,280,,,,,,,0x03,
13724,-314,-955,2,0,-630,140,,,,,,,0x03,
13733,-312,-954,2,0,-700,-70,,,,,,,0x03,
13743,-313,-955,3,-70,-700,-210,,,,,,,0x03,
13752,-312,-954,2,-140,-700,-350,,,,,,,0x03,
13762,-313,-955,2,-210,-700,-490,,,,,,,0x03,
13772,-313,-956,3,-280,-770,-560,,,,,,,0x03,
13781,-312,-956,3,-280,-840,-700,,,,,,,0x03,
13791,-311,-957,3,-210,-770,-700,,,,,,,0x03,
13801,-312,-959,2,-280,-770,-700,,,,,,,0x03,
13810,-312,-959,3,-210,-770,-700,,,,,,,0x03,
13820,-310,-958,3,-70,-630,-630,,,,,,,0x03,
13830,-313,-960,4,-210,-630,-630,,,,,,,0x03,
13839,-311,-958,3,-140,-630,-490,,,,,,,0x03,
13849,-311,-959,3,-140,-560,-490,,,,,,,0x03,
13858,-311,-960,4,-210,-560,-350,,,,,,,0x03,
13868,-311,-960,3,-140,-490,-280,,,,,,,0x03,
13878,-311,-959,3,-140,-490,-140,,,,,,,0x03,
13887,-311,-959,3,-140,-490,-70,,,,,,,0x03,
13897,-312,-959,5,-210,-420,0,,,,,,,0x03,
13907,-313,-960,-2,-70,-560,0,,,,,,,0x03,
13916,-309,-954,2,210,-490,-70,,,,,,,0x03,
13926,-316,-953,5,-350,-490,0,,,,,,,0x03,
13936,-310,-958,1,-630,-630,0,,,,,,,0x03,
13945,-310,-960,0,-420,-560,-140,,,,,,,0x03,
13955,-314,-959,1,-70,-630,-280,,,,,,,0x03,
13965,-312,-957,1,70,-630,-210,,,,,,,0x03,
13974,-311,-956,1,-140,-700,-280,,,,,,,0x03,
13984,-313,-959,2,-140,-770,-350,,,,,,,0x03,
13993,-312,-958,2,-70,-770,-350,,,,,,,0x03,
14003,-312,-956,2,0,-700,-350,,,,,,,0x03,
14013,-311,-956,2,-140,-770,-350,,,,,,,0x03,
14022,-312,-957,2,-210,-770,-350,,,,,,,0x03,
14032,-311,-958,2,-210,-770,-280,,,,,,,0x03,
14042,-311,-959,4,-350,-770,-280,,,,,,,0x03,
14051,-310,-957,3,-350,-700,-210,,,,,,,0x03,
14061,-309,-959,3,-350,-700,-210,,,,,,,0x03,
14071,-310,-960,3,-280,-630,-70,,,,,,,0x03,
14080,-311,-960,4,-140,-630,0,,,,,,,0x03,
14090,-310,-959,3,0,-560,70,,,,,,,0x03,
14099,-311,-959,2,140,-490,140,,,,,,,0x03,
14109,-311,-958,2,140,-490,210,,,,,,,0x03,
14119,-311,-957,1,140,-560,210,,,,,,,0x03,
14128,-311,-958,2,70,-560,210,,,,,,,0x03,
14138,-313,-957,1,0,-560,210,,,,,,,0x03,
14148,-312,-956,2,0,-630,210,,,,,,,0x03,
14157,-313,-956,2,-70,-700,140,,,,,,,0x03,
14167,-313,-956,0,-140,-770,70,,,,,,,0x03,
14177,-311,-957,2,-140,-770,0,,,,,,,0x03,
14186,-312,-957,2,-210,-840,-140,,,,,,,0x03,
14196,-313,-955,2,-140,-840,-210,,,,,,,0x03,
14205,-312,-958,2,-140,-840,-210,,,,,,,0x03,
14215,-311,-958,2,-70,-910,-210,,,,,,,0x03,
14225,-312,-958,2,0,-840,-280,,,,,,,0x03,
14234,-311,-960,2,0,-840,-210,,,,,,,0x03,
14244,-311,-960,1,70,-840,-140,,,,,,,0x03,
14254,-310,-960,2,70,-840,-140,,,,,,,0x03,
14263,-312,-958,2,70,-840,0,,,,,,,0x03,
14273,-312,-961,3,70,-840,140,,,,,,,0x03,
14283,-312,-958,3,140,-840,210,,,,,,,0x03,
14292,-312,-960,2,70,-770,350,,,,,,,0x03,
14302,-312,-958,2,-70,-840,350,,,,,,,0x03,
14311,-312,-957,2,140,-840,420,,,,,,,0x03,
14321,-312,-958,2,0,-770,490,,,,,,,0x03,
14331,-313,-956,2,70,-840,420,,,,,,,0x03,
14340,-313,-957,4,70,-770,420,,,,,,,0x03,
14350,-312,-955,2,70,-840,420,,,,,,,0x03,
