#Format version: 1.0
time[ms],accX[mg],accY[mg],accZ[mg],gyroX[mdps],gyroY[mdps],gyroZ[mdps],magnX[mG],magnY[mG],magnZ[mG],press[hPa],temp[°C],hum[0,-22,-70,999,-210,-630,-140,,,,,,,0x03,
10,-20,-69,998,0,-700,-140,,,,,,,0x03,
19,-21,-68,998,140,-700,-140,,,,,,,0x03,
29,-23,-66,1000,-70,-770,-140,,,,,,,0x03,
39,-22,-70,998,-210,-840,-140,,,,,,,0x03,
48,-26,-72,998,-210,-770,-70,,,,,,,0x03,
58,-29,-74,1000,-140,-630,-70,,,,,,,0x03,
68,-24,-73,998,280,-490,-140,,,,,,,0x03,
77,-21,-67,998,770,-420,-140,,,,,,,0x03,
87,-25,-67,998,770,-420,-140,,,,,,,0x03,
96,-27,-69,997,560,-490,-70,,,,,,,0x03,
106,-27,-71,998,350,-490,-70,,,,,,,0x03,
116,-28,-72,997,420,-350,0,,,,,,,0x03,
125,-26,-70,996,840,-350,-70,,,,,,,0x03,
135,-25,-66,995,1050,-420,-70,,,,,,,0x03,
145,-29,-63,997,770,-490,-70,,,,,,,0x03,
154,-28,-64,998,280,-700,-140,,,,,,,0x03,
164,-25,-64,998,70,-840,-140,,,,,,,0x03,
174,-27,-67,998,0,-770,-210,,,,,,,0x03,
183,-27,-67,1000,70,-700,-70,,,,,,,0x03,
193,-27,-66,998,140,-770,-70,,,,,,,0x03,
203,-28,-66,999,0,-700,-70,,,,,,,0x03,
212,-27,-66,1000,-420,-700,0,,,,,,,0x03,
222,-25,-68,999,-700,-770,-70,,,,,,,0x03,
231,-24,-68,999,-560,-770,-70,,,,,,,0x03,
241,-27,-67,999,-350,-700,-140,,,,,,,0x03,
251,-26,-68,998,-280,-770,-70,,,,,,,0x03,
260,-26,-69,998,-280,-770,-140,,,,,,,0x03,
270,-26,-69,997,-210,-770,-140,,,,,,,0x03,
280,-26,-70,997,-280,-700,-70,,,,,,,0x03,
289,-24,-70,998,-420,-770,0,,,,,,,0x03,
299,-23,-69,999,-350,-770,-70,,,,,,,0x03,
309,-22,-67,998,-70,-770,-140,,,,,,,0x03,
318,-25,-67,998,0,-770,-140,,,,,,,0x03,
328,-26,-70,997,-210,-770,-70,,,,,,,0x03,
338,-26,-72,998,-140,-700,-70,,,,,,,0x03,
347,-26,-73,999,0,-560,-70,,,,,,,0x03,
357,-24,-72,1000,280,-350,-70,,,,,,,0x03,
366,-25,-72,998,630,-420,0,,,,,,,0x03,
376,-26,-66,998,1050,-350,-70,,,,,,,0x03,
386,-27,-62,998,560,-490,-280,,,,,,,0x03,
395,-30,-67,995,-70,-840,-350,,,,,,,0x03,
405,-29,-72,996,70,-770,-140,,,,,,,0x03,
415,-29,-72,999,630,-560,-140,,,,,,,0x03,
424,-25,-67,999,770,-700,-420,,,,,,,0x03,
434,-23,-61,995,140,-770,-560,,,,,,,0x03,
444,-24,-67,1000,-140,-770,-210,,,,,,,0x03,
453,-23,-71,1000,630,-770,-70,,,,,,,0x03,
463,-20,-67,999,1330,-700,-280,,,,,,,0x03,
473,-24,-61,1000,1470,-770,-420,,,,,,,0x03,
482,-26,-58,999,840,-770,-350,,,,,,,0x03,
492,-28,-61,1000,-210,-840,-140,,,,,,,0x03,
501,-27,-67,998,-700,-840,-210,,,,,,,0x03,
511,-28,-67,998,-490,-840,-140,,,,,,,0x03,
521,-27,-63,999,-350,-700,-140,,,,,,,0x03,
530,-24,-63,999,-560,-700,0,,,,,,,0x03,
540,-23,-67,998,-980,-700,0,,,,,,,0x03,
550,-24,-73,995,-1050,-700,70,,,,,,,0x03,
559,-30,-76,995,-1050,-770,70,,,,,,,0x03,
569,-27,-80,996,-560,-770,0,,,,,,,0x03,
579,-24,-77,998,420,-560,140,,,,,,,0x03,
588,-19,-75,997,1470,-560,-140,,,,,,,0x03,
598,-21,-69,996,2030,-560,0,,,,,,,0x03,
608,-27,-66,997,1680,-630,-70,,,,,,,0x03,
617,-29,-71,999,1050,-700,-70,,,,,,,0x03,
627,-25,-78,997,1190,-770,-280,,,,,,,0x03,
637,-24,-73,1000,1890,-630,-490,,,,,,,0x03,
646,-21,-62,1002,2520,-560,-560,,,,,,,0x03,
656,-25,-59,1003,2030,-350,-210,,,,,,,0x03,
665,-31,-63,1002,1470,-350,0,,,,,,,0x03,
675,-27,-67,1001,1610,-350,-350,,,,,,,0x03,
685,-24,-61,999,1960,-70,-420,,,,,,,0x03,
694,-25,-57,998,1890,140,-280,,,,,,,0x03,
704,-41,-56,999,1400,70,0,,,,,,,0x03,
714,-42,-61,1000,840,-280,-280,,,,,,,0x03,
723,-27,-59,996,840,-420,-560,,,,,,,0x03,
733,-27,-53,996,700,-350,-350,,,,,,,0x03,
743,-31,-53,996,-280,-420,140,,,,,,,0x03,
752,-32,-61,998,-1260,-560,350,,,,,,,0x03,
762,-25,-66,997,-1120,-630,0,,,,,,,0x03,
772,-22,-61,996,-420,-770,-140,,,,,,,0x03,
781,-26,-58,997,-490,-840,-70,,,,,,,0x03,
791,-28,-63,998,-1190,-910,70,,,,,,,0x03,
800,-28,-69,998,-1260,-980,70,,,,,,,0x03,
810,-29,-71,997,-700,-980,-70,,,,,,,0x03,
820,-29,-67,998,140,-910,-140,,,,,,,0x03,
829,-27,-62,1000,350,-840,-140,,,,,,,0x03,
839,-24,-60,1000,70,-910,-210,,,,,,,0x03,
849,-23,-63,997,-210,-980,-210,,,,,,,0x03,
858,-23,-66,998,-210,-980,-140,,,,,,,0x03,
868,-25,-66,997,-140,-980,-140,,,,,,,0x03,
878,-26,-64,999,-210,-910,0,,,,,,,0x03,
887,-27,-63,1001,-350,-840,0,,,,,,,0x03,
897,-24,-63,1000,-350,-840,0,,,,,,,0x03,
907,-22,-65,999,-350,-770,-70,,,,,,,0x03,
916,-26,-67,998,-140,-910,-140,,,,,,,0x03,
926,-27,-67,996,70,-980,-140,,,,,,,0x03,
935,-27,-66,997,70,-980,-280,,,,,,,0x03,
945,-27,-66,999,0,-910,-210,,,,,,,0x03,
955,-27,-66,1001,-70,-840,-280,,,,,,,0x03,
964,-26,-66,1001,0,-770,-210,,,,,,,0x03,
974,-26,-69,1001,140,-630,-140,,,,,,,0x03,
984,-24,-67,1001,280,-490,-210,,,,,,,0x03,
993,-26,-65,1000,420,-420,-210,,,,,,,0x03,
1003,-27,-64,998,210,-280,-140,,,,,,,0x03,
1013,-29,-66,999,70,-350,-140,,,,,,,0x03,
1022,-26,-66,997,70,-350,-140,,,,,,,0x03,
1032,-26,-65,997,280,-350,-210,,,,,,,0x03,
1042,-28,-63,997,630,-350,-350,,,,,,,0x03,
1051,-28,-62,996,700,-490,-350,,,,,,,0x03,
1061,-28,-61,997,490,-560,-350,,,,,,,0x03,
1070,-25,-56,998,420,-630,-350,,,,,,,0x03,
1080,-27,-59,999,70,-770,-280,,,,,,,0x03,
1090,-25,-65,999,-70,-980,-420,,,,,,,0x03,
1099,-22,-65,997,210,-1050,-560,,,,,,,0x03,
1109,-24,-60,999,350,-840,-490,,,,,,,0x03,
1119,-26,-59,998,280,-770,-420,,,,,,,0x03,
1128,-26,-59,998,140,-770,-350,,,,,,,0x03,
1138,-27,-58,999,140,-910,-280,,,,,,,0x03,
1148,-26,-59,998,-280,-1050,-140,,,,,,,0x03,
1157,-25,-60,998,-630,-980,-70,,,,,,,0x03,
1167,-25,-59,1000,-910,-840,70,,,,,,,0x03,
1177,-28,-66,998,-1260,-840,140,,,,,,,0x03,
1186,-26,-71,997,-910,-980,0,,,,,,,0x03,
1196,-26,-67,997,-140,-910,-140,,,,,,,0x03,
1206,-29,-66,997,70,-980,0,,,,,,,0x03,
1215,-31,-65,996,-70,-1050,0,,,,,,,0x03,
1225,-32,-67,998,-140,-980,-70,,,,,,,0x03,
1234,-30,-67,999,-140,-840,0,,,,,,,0x03,
1244,-24,-67,999,-70,-770,0,,,,,,,0x03,
1254,-22,-68,998,70,-840,0,,,,,,,0x03,
1263,-25,-69,1000,280,-840,70,,,,,,,0x03,
1273,-27,-68,999,420,-770,0,,,,,,,0x03,
1283,-25,-65,999,630,-770,0,,,,,,,0x03,
1292,-23,-60,998,630,-770,-70,,,,,,,0x03,
1302,-23,-59,998,490,-770,0,,,,,,,0x03,
1312,-25,-62,998,490,-840,-70,,,,,,,0x03,
1321,-27,-61,998,700,-840,-140,,,,,,,0x03,
1331,-27,-59,998,700,-700,-140,,,,,,,0x03,
1341,-27,-61,999,350,-700,0,,,,,,,0x03,
1350,-27,-62,998,140,-700,0,,,,,,,0x03,
1360,-26,-61,999,0,-700,0,,,,,,,0x03,
1369,-28,-63,1000,-210,-770,70,,,,,,,0x03,
1379,-27,-63,999,-350,-770,70,,,,,,,0x03,
1389,-24,-65,999,-280,-700,0,,,,,,,0x03,
1398,-25,-69,997,-140,-700,0,,,,,,,0x03,
1408,-27,-69,997,0,-700,-70,,,,,,,0x03,
1418,-27,-69,998,280,-560,-140,,,,,,,0x03,
1427,-26,-67,997,630,-630,-140,,,,,,,0x03,
1437,-27,-63,998,770,-560,-210,,,,,,,0x03,
1447,-25,-62,997,700,-630,-280,,,,,,,0x03,
1456,-25,-62,997,630,-700,-350,,,,,,,0x03,
1466,-26,-61,999,770,-840,-420,,,,,,,0x03,
1476,-26,-60,998,980,-770,-490,,,,,,,0x03,
1485,-25,-59,999,910,-770,-420,,,,,,,0x03,
1495,-26,-59,999,630,-770,-350,,,,,,,0x03,
1504,-26,-59,999,420,-770,-280,,,,,,,0x03,
1514,-23,-56,1000,140,-840,-210,,,,,,,0x03,
1524,-23,-57,999,-210,-910,-140,,,,,,,0x03,
1533,-27,-57,998,-350,-910,-70,,,,,,,0x03,
1543,-29,-60,999,-490,-980,0,,,,,,,0x03,
1553,-30,-62,998,-630,-910,0,,,,,,,0x03,
1562,-29,-63,996,-420,-910,0,,,,,,,0x03,
1572,-29,-63,997,-350,-840,0,,,,,,,0x03,
1582,-30,-63,999,-420,-910,70,,,,,,,0x03,
1591,-28,-63,1000,-490,-840,0,,,,,,,0x03,
1601,-24,-62,1002,-490,-840,0,,,,,,,0x03,
1611,-24,-61,998,-350,-840,-140,,,,,,,0x03,
1620,-22,-60,997,0,-910,-210,,,,,,,0x03,
1630,-26,-61,998,-140,-770,0,,,,,,,0x03,
1639,-25,-65,1000,-280,-840,0,,,,,,,0x03,
1649,-23,-66,997,0,-910,-140,,,,,,,0x03,
1659,-25,-63,998,70,-770,-70,,,,,,,0x03,
1668,-27,-64,1000,-210,-840,70,,,,,,,0x03,
1678,-24,-65,1001,-350,-910,0,,,,,,,0x03,
1688,-23,-67,1000,-350,-770,70,,,,,,,0x03,
1697,-23,-69,1000,0,-630,70,,,,,,,0x03,
1707,-21,-68,1000,630,-490,-70,,,,,,,0x03,
1717,-25,-63,999,980,-420,-140,,,,,,,0x03,
1726,-29,-64,999,980,-420,-70,,,,,,,0x03,
1736,-27,-66,997,630,-350,0,,,,,,,0x03,
1746,-27,-68,997,700,-280,70,,,,,,,0x03,
1755,-28,-67,997,1050,-210,0,,,,,,,0x03,
1765,-29,-63,998,1540,-140,70,,,,,,,0x03,
1775,-27,-58,999,1540,-140,70,,,,,,,0x03,
1784,-28,-57,999,1120,-210,0,,,,,,,0x03,
1794,-25,-58,997,770,-420,-70,,,,,,,0x03,
1803,-27,-59,997,840,-490,-70,,,,,,,0x03,
1813,-29,-57,996,1050,-630,-140,,,,,,,0x03,
1823,-31,-54,997,1050,-770,-140,,,,,,,0x03,
1832,-30,-51,999,490,-770,-70,,,,,,,0x03,
1842,-27,-53,998,-210,-980,-140,,,,,,,0x03,
1852,-26,-54,999,-560,-1050,-140,,,,,,,0x03,
1861,-27,-52,1000,-630,-1120,-210,,,,,,,0x03,
1871,-24,-51,999,-700,-1260,-210,,,,,,,0x03,
1881,-22,-53,999,-1050,-1260,-140,,,,,,,0x03,
1890,-22,-55,999,-1330,-1260,-140,,,,,,,0x03,
1900,-25,-59,1000,-1540,-1190,-70,,,,,,,0x03,
1910,-26,-60,1001,-1540,-1120,-70,,,,,,,0x03,
1919,-27,-60,1000,-1540,-1050,-70,,,,,,,0x03,
1929,-28,-58,998,-1610,-1120,-140,,,,,,,0x03,
1938,-29,-60,997,-1820,-1190,-140,,,,,,,0x03,
1948,-29,-65,995,-2240,-1260,-70,,,,,,,0x03,
1958,-26,-68,996,-2450,-1330,-140,,,,,,,0x03,
1967,-24,-69,997,-2240,-1260,-210,,,,,,,0x03,
1977,-24,-70,998,-1750,-1190,-210,,,,,,,0x03,
1987,-24,-72,1000,-1540,-1120,-70,,,,,,,0x03,
1996,-25,-74,999,-1050,-980,-140,,,,,,,0x03,
2006,-26,-73,999,-420,-910,-210,,,,,,,0x03,
2016,-25,-68,998,0,-770,-350,,,,,,,0x03,
2025,-27,-66,998,140,-840,-350,,,,,,,0x03,
2035,-29,-66,996,-70,-770,-350,,,,,,,0x03,
2045,-27,-68,997,-210,-840,-350,,,,,,,0x03,
2054,-25,-69,998,0,-770,-350,,,,,,,0x03,
2064,-24,-67,999,210,-700,-280,,,,,,,0x03,
2073,-23,-65,1001,420,-560,-210,,,,,,,0x03,
2083,-21,-60,1001,630,-490,-280,,,,,,,0x03,
2093,-20,-58,1000,490,-560,-210,,,,,,,0x03,
2102,-22,-60,1001,0,-560,-140,,,,,,,0x03,
2112,-23,-70,997,-490,-420,70,,,,,,,0x03,
2122,-22,-79,997,0,-140,280,,,,,,,0x03,
2131,-18,-86,995,1470,350,560,,,,,,,0x03,
2141,-17,-91,992,3220,840,700,,,,,,,0x03,
2151,-19,-91,996,5390,1120,770,,,,,,,0x03,
2160,-23,-84,998,7140,1260,630,,,,,,,0x03,
2170,-25,-79,1000,7840,1120,210,,,,,,,0x03,
2180,-27,-73,1000,8120,1050,-280,,,,,,,0x03,
2189,-25,-69,1000,8120,1120,-490,,,,,,,0x03,
2199,-27,-66,999,8260,1120,-560,,,,,,,0x03,
2208,-28,-63,999,8610,1190,-560,,,,,,,0x03,
2218,-28,-55,999,9310,1330,-560,,,,,,,0x03,
2228,-30,-43,1000,9730,1470,-490,,,,,,,0x03,
2237,-32,-34,999,9240,1470,-350,,,,,,,0x03,
2247,-33,-29,1000,8260,1260,-280,,,,,,,0x03,
2257,-36,-26,999,7070,980,-280,,,,,,,0x03,
2266,-34,-22,997,6090,630,-350,,,,,,,0x03,
2276,-34,-18,997,5040,280,-350,,,,,,,0x03,
2286,-36,-15,996,3710,-70,-280,,,,,,,0x03,
2295,-35,-12,998,2310,-280,-70,,,,,,,0x03,
2305,-38,-22,1002,490,-560,210,,,,,,,0x03,
2315,-36,-37,999,-420,-980,0,,,,,,,0x03,
2324,-30,-33,998,-210,-840,-210,,,,,,,0x03,
2334,-33,-29,1002,-420,-560,0,,,,,,,0x03,
2344,-34,-27,1002,-980,-700,140,,,,,,,0x03,
2353,-33,-30,1000,-1820,-910,140,,,,,,,0x03,
2363,-32,-33,998,-2590,-1050,140,,,,,,,0x03,
2372,-33,-39,998,-3290,-1120,140,,,,,,,0x03,
2382,-35,-48,999,-3990,-1120,140,,,,,,,0x03,
2392,-34,-57,1001,-4200,-910,280,,,,,,,0x03,
2401,-30,-61,1000,-3430,-630,350,,,,,,,0x03,
2411,-28,-62,997,-1960,-490,210,,,,,,,0x03,
2421,-30,-56,995,-560,-420,70,,,,,,,0x03,
2430,-31,-49,996,70,-490,-70,,,,,,,0x03,
2440,-30,-46,997,-280,-700,-210,,,,,,,0x03,
2450,-29,-50,997,-910,-910,-350,,,,,,,0x03,
2459,-30,-53,1000,-1050,-980,-490,,,,,,,0x03,
2469,-29,-51,1001,-490,-980,-490,,,,,,,0x03,
2479,-25,-43,998,280,-980,-490,,,,,,,0x03,
2488,-26,-39,996,140,-980,-280,,,,,,,0x03,
2498,-31,-40,997,-490,-1190,-140,,,,,,,0x03,
2507,-31,-40,998,-1260,-1260,-70,,,,,,,0x03,
2517,-29,-41,1000,-1960,-1400,-140,,,,,,,0x03,
2527,-28,-45,1001,-2240,-1330,-70,,,,,,,0x03,
2536,-25,-50,1003,-2170,-1050,70,,,,,,,0x03,
2546,-26,-54,1003,-1680,-980,210,,,,,,,0x03,
2556,-30,-52,999,-770,-910,140,,,,,,,0x03,
2565,-33,-44,996,-70,-910,-140,,,,,,,0x03,
2575,-34,-43,996,-700,-1050,-210,,,,,,,0x03,
2585,-30,-49,995,-2170,-1260,0,,,,,,,0x03,
2594,-29,-58,997,-2660,-1400,-70,,,,,,,0x03,
2604,-28,-61,1000,-2240,-1260,70,,,,,,,0x03,
2614,-28,-62,1001,-1400,-1120,140,,,,,,,0x03,
2623,-27,-61,1002,-700,-980,140,,,,,,,0x03,
2633,-28,-59,1001,-210,-770,70,,,,,,,0x03,
2642,-30,-56,1000,70,-700,0,,,,,,,0x03,
2652,-29,-53,998,140,-560,-140,,,,,,,0x03,
2662,-27,-53,998,210,-630,-280,,,,,,,0x03,
2671,-32,-56,997,210,-560,-210,,,,,,,0x03,
2681,-31,-57,997,630,-490,-280,,,,,,,0x03,
2691,-30,-51,999,1330,-420,-350,,,,,,,0x03,
2700,-29,-42,998,1610,-420,-350,,,,,,,0x03,
2710,-33,-38,998,1120,-560,-280,,,,,,,0x03,
2720,-33,-40,998,280,-700,-280,,,,,,,0x03,
2729,-30,-40,998,-210,-910,-280,,,,,,,0x03,
2739,-30,-40,998,-490,-910,-210,,,,,,,0x03,
2749,-29,-43,998,-840,-980,-70,,,,,,,0x03,
2758,-29,-46,999,-1330,-1050,70,,,,,,,0x03,
2768,-30,-47,1002,-1470,-1120,70,,,,,,,0x03,
2777,-29,-44,1001,-1540,-1050,0,,,,,,,0x03,
2787,-27,-45,1000,-2030,-1120,-70,,,,,,,0x03,
2797,-30,-48,999,-2660,-1120,70,,,,,,,0x03,
2806,-29,-55,998,-2660,-1120,140,,,,,,,0x03,
2816,-28,-59,997,-2310,-1190,70,,,,,,,0x03,
2826,-29,-57,997,-1750,-1050,0,,,,,,,0x03,
2835,-27,-57,998,-1470,-980,0,,,,,,,0x03,
2845,-28,-56,998,-1330,-1050,-70,,,,,,,0x03,
2855,-28,-58,999,-1260,-1050,-140,,,,,,,0x03,
2864,-28,-59,1000,-1260,-1120,-140,,,,,,,0x03,
2874,-28,-61,999,-980,-980,-140,,,,,,,0x03,
2884,-26,-58,1000,-490,-840,-140,,,,,,,0x03,
2893,-26,-57,998,-70,-770,-140,,,,,,,0x03,
2903,-31,-58,997,0,-770,-70,,,,,,,0x03,
2913,-30,-59,998,0,-700,-70,,,,,,,0x03,
2922,-29,-56,999,140,-700,-140,,,,,,,0x03,
2932,-28,-54,999,280,-630,-140,,,,,,,0x03,
2941,-28,-54,999,280,-630,-140,,,,,,,0x03,
2951,-29,-56,999,210,-770,-70,,,,,,,0x03,
2961,-28,-55,998,420,-770,-70,,,,,,,0x03,
2970,-28,-52,998,700,-700,-140,,,,,,,0x03,
2980,-27,-50,998,770,-560,-70,,,,,,,0x03,
2990,-30,-51,1000,560,-560,-70,,,,,,,0x03,
2999,-30,-51,1000,280,-630,-70,,,,,,,0x03,
3009,-27,-51,999,210,-700,-70,,,,,,,0x03,
3019,-28,-50,998,280,-700,-70,,,,,,,0x03,
3028,-31,-51,997,140,-770,0,,,,,,,0x03,
3038,-32,-53,999,-140,-770,0,,,,,,,0x03,
3048,-30,-50,998,-210,-840,-70,,,,,,,0x03,
3057,-28,-50,998,-350,-840,-70,,,,,,,0x03,
3067,-27,-52,999,-420,-910,-70,,,,,,,0x03,
3076,-28,-53,999,-280,-980,-140,,,,,,,0x03,
3086,-26,-51,1000,-210,-910,-140,,,,,,,0x03,
3096,-24,-49,1000,-350,-980,-210,,,,,,,0x03,
3105,-27,-52,1000,-630,-980,-210,,,,,,,0x03,
3115,-31,-54,999,-700,-910,-140,,,,,,,0x03,
3125,-30,-54,999,-560,-840,-210,,,,,,,0x03,
3134,-29,-53,998,-560,-840,-140,,,,,,,0x03,
3144,-30,-54,1000,-700,-770,0,,,,,,,0x03,
3154,-28,-57,1000,-630,-770,0,,,,,,,0x03,
3163,-27,-57,998,-420,-630,0,,,,,,,0x03,
3173,-31,-59,999,-350,-630,0,,,,,,,0x03,
3183,-35,-61,999,-140,-560,70,,,,,,,0x03,
3192,-35,-62,999,140,-350,70,,,,,,,0x03,
3202,-37,-63,999,420,-70,70,,,,,,,0x03,
3211,-41,-62,1001,770,0,70,,,,,,,0x03,
3221,-41,-62,1000,980,210,210,,,,,,,0x03,
3231,-34,-64,1001,1120,350,350,,,,,,,0x03,
3240,-31,-67,998,770,490,560,,,,,,,0x03,
3250,-29,-68,999,1190,560,490,,,,,,,0x03,
3260,-27,-65,997,2030,840,490,,,,,,,0x03,
3269,-26,-63,998,2870,840,560,,,,,,,0x03,
3279,-17,-58,994,3570,560,280,,,,,,,0x03,
3289,-7,-51,995,4130,420,-140,,,,,,,0x03,
3298,-5,-48,993,4270,140,-420,,,,,,,0x03,
3308,-11,-50,995,4130,-140,-490,,,,,,,0x03,
3318,-15,-55,993,4410,-560,-630,,,,,,,0x03,
3327,-17,-52,993,5530,-840,-910,,,,,,,0x03,
3337,-20,-44,994,6510,-1120,-1050,,,,,,,0x03,
3346,-26,-33,998,7000,-1330,-1260,,,,,,,0x03,
3356,-34,-24,1000,6720,-1400,-1470,,,,,,,0x03,
3366,-34,-20,1002,5670,-1540,-1540,,,,,,,0x03,
3375,-34,-23,1002,4480,-1680,-1400,,,,,,,0x03,
3385,-41,-28,1005,3850,-1610,-1330,,,,,,,0x03,
3395,-45,-22,1007,3430,-1330,-1190,,,,,,,0x03,
3404,-46,-15,1008,2170,-980,-910,,,,,,,0x03,
3414,-48,-9,1008,140,-630,-420,,,,,,,0x03,
3424,-49,-20,1007,-2100,-630,0,,,,,,,0x03,
3433,-41,-29,1003,-3430,-700,0,,,,,,,0x03,
3443,-38,-28,998,-4200,-350,280,,,,,,,0x03,
3453,-38,-38,996,-5250,-350,350,,,,,,,0x03,
3462,-34,-41,993,-5180,-490,350,,,,,,,0x03,
3472,-31,-37,993,-4690,-700,490,,,,,,,0x03,
3482,-29,-34,992,-4550,-980,560,,,,,,,0x03,
3491,-29,-36,993,-5110,-1400,490,,,,,,,0x03,
3501,-29,-45,994,-5810,-1820,350,,,,,,,0x03,
3510,-25,-54,995,-5880,-2100,140,,,,,,,0x03,
3520,-23,-61,997,-5390,-2170,0,,,,,,,0x03,
3530,-20,-65,1001,-4830,-2170,-140,,,,,,,0x03,
3539,-20,-69,1004,-4130,-1890,-140,,,,,,,0x03,
3549,-18,-74,1005,-3500,-1610,0,,,,,,,0x03,
3559,-19,-75,1005,-2590,-1260,-70,,,,,,,0x03,
3568,-20,-71,1004,-1540,-910,-210,,,,,,,0x03,
3578,-20,-66,1001,-490,-630,-280,,,,,,,0x03,
3588,-22,-63,1000,70,-560,-350,,,,,,,0x03,
3597,-25,-62,998,490,-560,-420,,,,,,,0x03,
3607,-27,-60,995,980,-490,-490,,,,,,,0x03,
3617,-30,-59,996,1400,-420,-420,,,,,,,0x03,
3626,-33,-54,998,1890,-350,-420,,,,,,,0x03,
3636,-33,-50,998,2030,-420,-420,,,,,,,0x03,
3645,-34,-45,998,1890,-490,-350,,,,,,,0x03,
3655,-36,-42,997,1400,-630,-350,,,,,,,0x03,
3665,-36,-43,996,770,-770,-280,,,,,,,0x03,
3674,-31,-42,996,490,-840,-280,,,,,,,0x03,
3684,-27,-40,998,490,-840,-210,,,,,,,0x03,
3694,-26,-38,1000,420,-910,-140,,,,,,,0x03,
3703,-23,-37,1001,140,-910,-210,,,,,,,0x03,
3713,-24,-37,1003,-280,-1050,-140,,,,,,,0x03,
3723,-28,-39,1000,-840,-1190,-70,,,,,,,0x03,
3732,-31,-44,999,-1400,-1260,0,,,,,,,0x03,
3742,-34,-49,999,-1960,-1260,70,,,,,,,0x03,
3752,-35,-52,999,-2380,-1120,280,,,,,,,0x03,
3761,-36,-57,1000,-2660,-980,350,,,,,,,0x03,
3771,-33,-57,1002,-2380,-770,280,,,,,,,0x03,
3780,-32,-57,1000,-2030,-700,140,,,,,,,0x03,
3790,-32,-57,1000,-1750,-560,70,,,,,,,0x03,
3800,-29,-58,999,-1400,-560,0,,,,,,,0x03,
3809,-28,-59,997,-1120,-560,0,,,,,,,0x03,
3819,-31,-61,997,-980,-490,0,,,,,,,0x03,
3829,-31,-61,996,-700,-560,0,,,,,,,0x03,
3838,-29,-57,996,-280,-560,0,,,,,,,0x03,
3848,-30,-55,996,-210,-560,0,,,,,,,0x03,
3858,-33,-54,997,-280,-630,70,,,,,,,0x03,
3867,-33,-56,997,-210,-770,0,,,,,,,0x03,
3877,-31,-56,998,-210,-770,-70,,,,,,,0x03,
3887,-28,-56,998,140,-700,-70,,,,,,,0x03,
3896,-23,-56,999,560,-630,-140,,,,,,,0x03,
3906,-22,-54,1002,840,-560,-140,,,,,,,0x03,
3915,-22,-54,1001,980,-560,-140,,,,,,,0x03,
3925,-20,-51,1002,1050,-560,-140,,,,,,,0x03,
3935,-19,-49,1001,1120,-490,-70,,,,,,,0x03,
3944,-22,-49,999,980,-630,0,,,,,,,0x03,
3954,-22,-48,998,1120,-630,0,,,,,,,0x03,
3964,-26,-45,997,1260,-700,0,,,,,,,0x03,
3973,-29,-43,997,1050,-840,0,,,,,,,0x03,
3983,-28,-45,997,490,-1050,0,,,,,,,0x03,
3993,-26,-50,996,-210,-1190,140,,,,,,,0x03,
4002,-27,-54,998,-560,-1400,210,,,,,,,0x03,
4012,-28,-56,1000,-560,-1470,280,,,,,,,0x03,
4022,-26,-56,1000,-420,-1400,280,,,,,,,0x03,
4031,-24,-54,1002,-140,-1260,280,,,,,,,0x03,
4041,-23,-52,1002,70,-1190,210,,,,,,,0x03,
4051,-25,-53,999,350,-1120,210,,,,,,,0x03,
4060,-28,-56,998,700,-1120,70,,,,,,,0x03,
4070,-31,-58,997,1120,-1050,70,,,,,,,0x03,
4079,-31,-57,998,1400,-910,0,,,,,,,0x03,
4089,-31,-54,999,1470,-770,0,,,,,,,0x03,
4099,-33,-52,1003,1330,-630,-70,,,,,,,0x03,
4108,-32,-48,1002,1400,-490,-140,,,,,,,0x03,
4118,-30,-42,1003,1470,-420,-210,,,,,,,0x03,
4128,-30,-39,999,1330,-420,-210,,,,,,,0x03,
4137,-36,-41,998,840,-490,-210,,,,,,,0x03,
4147,-38,-43,998,280,-490,-280,,,,,,,0x03,
4157,-37,-43,997,140,-420,-350,,,,,,,0x03,
4166,-38,-40,998,-210,-420,-280,,,,,,,0x03,
4176,-36,-40,999,-840,-490,-210,,,,,,,0x03,
4186,-34,-41,999,-1400,-630,-210,,,,,,,0x03,
4195,-32,-41,997,-1820,-840,-210,,,,,,,0x03,
4205,-30,-44,997,-2240,-980,-140,,,,,,,0x03,
4214,-29,-48,997,-2660,-1050,0,,,,,,,0x03,
4224,-27,-51,998,-2660,-980,0,,,,,,,0x03,
4234,-24,-52,1001,-2450,-980,0,,,,,,,0x03,
4243,-22,-51,1001,-2520,-980,-70,,,,,,,0x03,
4253,-21,-51,1000,-2520,-1120,-210,,,,,,,0x03,
4263,-22,-54,1000,-2660,-1120,-70,,,,,,,0x03,
4272,-24,-63,1000,-2800,-980,70,,,,,,,0x03,
4282,-22,-70,998,-2380,-840,70,,,,,,,0x03,
4292,-24,-76,997,-1750,-700,140,,,,,,,0x03,
4301,-26,-77,998,-980,-490,140,,,,,,,0x03,
4311,-21,-71,1000,140,-350,-70,,,,,,,0x03,
4321,-15,-61,1001,1120,-280,-350,,,,,,,0x03,
4330,-16,-55,1003,1540,-420,-420,,,,,,,0x03,
4340,-17,-55,1002,1680,-560,-560,,,,,,,0x03,
4349,-19,-57,999,1960,-630,-560,,,,,,,0x03,
4359,-24,-57,999,2310,-560,-490,,,,,,,0x03,
4369,-32,-58,999,2660,-350,-350,,,,,,,0x03,
4378,-34,-55,999,2660,0,-70,,,,,,,0x03,
4388,-35,-49,1002,2520,210,140,,,,,,,0x03,
4398,-38,-45,1001,2100,210,210,,,,,,,0x03,
4407,-41,-43,1000,1680,140,210,,,,,,,0x03,
4417,-40,-42,999,1330,210,70,,,,,,,0x03,
4427,-35,-40,996,1260,140,-140,,,,,,,0x03,
4436,-35,-40,994,1190,0,-350,,,,,,,0x03,
4446,-36,-38,994,1050,-210,-350,,,,,,,0x03,
4456,-36,-39,994,700,-490,-350,,,,,,,0x03,
4465,-34,-38,995,280,-700,-280,,,,,,,0x03,
4475,-30,-38,996,-280,-910,-210,,,,,,,0x03,
4484,-32,-38,998,-1260,-1260,-70,,,,,,,0x03,
4494,-31,-38,999,-2100,-1330,0,,,,,,,0x03,
4504,-31,-40,1000,-2800,-1470,70,,,,,,,0x03,
4513,-29,-45,1001,-3360,-1470,70,,,,,,,0x03,
4523,-28,-50,1001,-3500,-1540,0,,,,,,,0x03,
4533,-27,-51,1002,-3430,-1400,-70,,,,,,,0x03,
4542,-25,-53,1003,-3500,-1190,-70,,,,,,,0x03,
4552,-23,-59,1004,-3500,-1050,-140,,,,,,,0x03,
4562,-22,-63,1004,-3430,-840,-70,,,,,,,0x03,
4571,-21,-65,1003,-3010,-630,0,,,,,,,0x03,
4581,-21,-65,1000,-2240,-350,0,,,,,,,0x03,
4591,-23,-63,999,-1330,-280,0,,,,,,,0x03,
4600,-25,-60,997,-1050,-210,-70,,,,,,,0x03,
4610,-29,-61,994,-840,-420,-70,,,,,,,0x03,
4620,-29,-60,993,-560,-630,-210,,,,,,,0x03,
4629,-27,-60,992,-350,-770,-280,,,,,,,0x03,
4639,-31,-61,993,-70,-980,-280,,,,,,,0x03,
4648,-32,-62,995,140,-1050,-210,,,,,,,0x03,
4658,-31,-62,997,140,-1120,-210,,,,,,,0x03,
4668,-29,-62,999,210,-1190,-210,,,,,,,0x03,
4677,-31,-59,1000,420,-1120,-210,,,,,,,0x03,
4687,-31,-56,1002,770,-910,-210,,,,,,,0x03,
4697,-29,-52,1003,980,-770,-280,,,,,,,0x03,
4706,-27,-49,1001,910,-700,-280,,,,,,,0x03,
4716,-30,-49,1001,700,-630,-210,,,,,,,0x03,
4726,-33,-52,1000,280,-560,-140,,,,,,,0x03,
4735,-31,-52,1000,140,-420,-210,,,,,,,0x03,
4745,-26,-49,1000,140,-280,-140,,,,,,,0x03,
4755,-28,-48,1000,-280,-280,70,,,,,,,0x03,
4764,-29,-50,999,-910,-420,140,,,,,,,0x03,
4774,-28,-52,998,-1050,-560,140,,,,,,,0x03,
4783,-26,-52,996,-980,-560,70,,,,,,,0x03,
4793,-28,-54,997,-1050,-630,70,,,,,,,0x03,
4803,-30,-57,997,-1190,-770,140,,,,,,,0x03,
4812,-28,-58,997,-980,-770,0,,,,,,,0x03,
4822,-28,-59,998,-770,-840,0,,,,,,,0x03,
4832,-28,-62,999,-700,-910,0,,,,,,,0x03,
4841,-28,-64,999,-560,-840,-70,,,,,,,0x03,
4851,-27,-61,999,-280,-770,-70,,,,,,,0x03,
4861,-27,-60,1001,-70,-630,-70,,,,,,,0x03,
4870,-27,-61,1000,70,-630,-70,,,,,,,0x03,
4880,-28,-61,999,490,-560,-140,,,,,,,0x03,
4890,-28,-58,999,840,-420,-280,,,,,,,0x03,
4899,-28,-57,998,980,-490,-280,,,,,,,0x03,
4909,-30,-53,999,1120,-420,-350,,,,,,,0x03,
4918,-29,-49,998,1120,-490,-420,,,,,,,0x03,
4928,-27,-47,998,910,-560,-420,,,,,,,0x03,
4938,-26,-46,998,420,-700,-280,,,,,,,0x03,
4947,-25,-48,997,0,-840,-280,,,,,,,0x03,
4957,-29,-51,998,-350,-1050,-210,,,,,,,0x03,
4967,-30,-52,997,-560,-1050,-140,,,,,,,0x03,
4976,-29,-52,997,-700,-1120,-70,,,,,,,0x03,
4986,-31,-53,997,-840,-1260,-70,,,,,,,0x03,
4996,-35,-55,998,-1190,-1330,0,,,,,,,0x03,
5005,-34,-57,1000,-1470,-1260,-70,,,,,,,0x03,
5015,-28,-58,1002,-1260,-1050,-140,,,,,,,0x03,
5025,-22,-61,1003,-840,-910,-140,,,,,,,0x03,
5034,-23,-61,1002,-210,-700,-140,,,,,,,0x03,
5044,-25,-60,1002,210,-490,-70,,,,,,,0x03,
5053,-26,-59,999,280,-490,-70,,,,,,,0x03,
5063,-29,-60,997,70,-420,0,,,,,,,0x03,
5073,-31,-62,996,-140,-490,140,,,,,,,0x03,
5082,-30,-62,995,0,-490,140,,,,,,,0x03,
5092,-28,-60,995,420,-560,0,,,,,,,0x03,
5102,-31,-59,995,770,-630,0,,,,,,,0x03,
5111,-34,-58,997,1120,-770,-140,,,,,,,0x03,
5121,-33,-52,997,1470,-840,-350,,,,,,,0x03,
5131,-30,-50,997,1540,-910,-350,,,,,,,0x03,
5140,-30,-49,998,1120,-980,-350,,,,,,,0x03,
5150,-29,-49,998,840,-1120,-280,,,,,,,0x03,
5160,-25,-46,999,560,-1190,-280,,,,,,,0x03,
5169,-27,-44,1001,70,-1190,-140,,,,,,,0x03,
5179,-26,-48,1002,-560,-1260,70,,,,,,,0x03,
5189,-28,-51,1002,-1120,-1120,140,,,,,,,0x03,
5198,-30,-54,1002,-1260,-1050,210,,,,,,,0x03,
5208,-29,-55,1001,-980,-910,140,,,,,,,0x03,
5217,-26,-55,1000,-840,-700,70,,,,,,,0x03,
5227,-27,-57,999,-910,-630,140,,,,,,,0x03,
5237,-30,-62,999,-1050,-700,70,,,,,,,0x03,
5246,-30,-65,996,-980,-700,0,,,,,,,0x03,
5256,-30,-69,998,-560,-560,0,,,,,,,0x03,
5266,-29,-66,996,70,-560,-70,,,,,,,0x03,
5275,-29,-61,997,560,-490,-70,,,,,,,0x03,
5285,-27,-56,999,770,-560,-210,,,,,,,0x03,
5295,-27,-53,998,770,-700,-350,,,,,,,0x03,
5304,-28,-56,999,560,-770,-350,,,,,,,0x03,
5314,-27,-59,998,420,-700,-350,,,,,,,0x03,
5324,-24,-60,999,770,-630,-350,,,,,,,0x03,
5333,-25,-56,1001,1190,-560,-280,,,,,,,0x03,
5343,-27,-52,1001,1190,-490,-140,,,,,,,0x03,
5352,-25,-50,1002,840,-490,-70,,,,,,,0x03,
5362,-26,-51,999,420,-560,0,,,,,,,0x03,
5372,-29,-54,998,210,-490,0,,,,,,,0x03,
5381,-28,-54,997,490,-490,-70,,,,,,,0x03,
5391,-28,-51,997,910,-490,-140,,,,,,,0x03,
5401,-29,-48,996,1050,-630,-140,,,,,,,0x03,
5410,-29,-48,996,770,-840,-210,,,,,,,0x03,
5420,-26,-47,997,280,-980,-140,,,,,,,0x03,
5430,-27,-51,998,-70,-1120,-140,,,,,,,0x03,
5439,-29,-52,999,-210,-1120,-140,,,,,,,0x03,
5449,-27,-52,1000,-140,-1120,-140,,,,,,,0x03,
5459,-29,-53,1000,-140,-1120,0,,,,,,,0x03,
5468,-30,-54,1000,-420,-1050,70,,,,,,,0x03,
5478,-29,-57,1000,-490,-910,0,,,,,,,0x03,
5487,-27,-56,1000,-420,-840,0,,,,,,,0x03,
5497,-26,-55,1000,-350,-770,-70,,,,,,,0x03,
5507,-28,-57,1001,-350,-770,0,,,,,,,0x03,
5516,-30,-59,1000,-280,-700,-70,,,,,,,0x03,
5526,-29,-59,998,140,-630,-140,,,,,,,0x03,
5536,-30,-57,997,420,-560,-140,,,,,,,0x03,
5545,-31,-53,997,490,-560,-70,,,,,,,0x03,
5555,-28,-52,998,280,-630,-70,,,,,,,0x03,
5565,-25,-49,997,70,-700,-70,,,,,,,0x03,
5574,-27,-52,998,-210,-910,-70,,,,,,,0x03,
5584,-29,-54,999,-350,-980,-70,,,,,,,0x03,
5594,-30,-55,998,-140,-980,-140,,,,,,,0x03,
5603,-30,-52,999,0,-910,-210,,,,,,,0x03,
5613,-29,-50,1001,-70,-910,-140,,,,,,,0x03,
5622,-29,-52,1001,-280,-770,-70,,,,,,,0x03,
5632,-26,-54,1000,-350,-700,-70,,,,,,,0x03,
5642,-26,-55,1000,-70,-700,0,,,,,,,0x03,
5651,-26,-56,999,0,-560,0,,,,,,,0x03,
5661,-26,-56,998,-70,-560,70,,,,,,,0x03,
5671,-27,-57,998,-140,-630,70,,,,,,,0x03,
5680,-27,-57,999,-210,-630,0,,,,,,,0x03,
5690,-25,-56,998,0,-560,0,,,,,,,0x03,
5700,-25,-56,998,210,-630,0,,,,,,,0x03,
5709,-27,-57,998,420,-700,-70,,,,,,,0x03,
5719,-27,-55,998,560,-770,-140,,,,,,,0x03,
5729,-28,-55,998,560,-770,-140,,,,,,,0x03,
5738,-29,-55,997,490,-770,-140,,,,,,,0x03,
5748,-31,-55,998,630,-770,-140,,,,,,,0x03,
5758,-32,-52,998,700,-770,-140,,,,,,,0x03,
5767,-31,-50,1000,560,-840,-140,,,,,,,0x03,
5777,-33,-50,1000,210,-840,-140,,,,,,,0x03,
5786,-30,-52,1000,0,-700,-140,,,,,,,0x03,
5796,-29,-49,1001,140,-630,-210,,,,,,,0x03,
5806,-27,-47,1000,210,-560,-210,,,,,,,0x03,
5815,-29,-48,999,-70,-630,-140,,,,,,,0x03,
5825,-28,-49,998,-420,-700,-140,,,,,,,0x03,
5835,-29,-51,998,-630,-770,-70,,,,,,,0x03,
5844,-30,-51,998,-910,-770,0,,,,,,,0x03,
5854,-29,-54,997,-1190,-840,0,,,,,,,0x03,
5864,-29,-56,999,-1190,-840,0,,,,,,,0x03,
5873,-29,-56,999,-980,-840,0,,,,,,,0x03,
5883,-27,-57,1000,-700,-770,-70,,,,,,,0x03,
5893,-27,-56,999,-490,-700,-70,,,,,,,0x03,
5902,-28,-57,1000,-210,-630,-140,,,,,,,0x03,
5912,-25,-56,1001,-140,-560,-140,,,,,,,0x03,
5921,-26,-56,1000,-140,-490,-140,,,,,,,0x03,
5931,-26,-58,1000,-70,-420,-140,,,,,,,0x03,
5941,-26,-58,999,0,-280,0,,,,,,,0x03,
5950,-26,-57,997,140,-350,0,,,,,,,0x03,
5960,-26,-56,998,280,-350,0,,,,,,,0x03,
5970,-29,-56,997,280,-420,0,,,,,,,0x03,
5979,-31,-58,996,280,-490,0,,,,,,,0x03,
5989,-30,-58,998,560,-490,-140,,,,,,,0x03,
5999,-28,-56,998,840,-420,-140,,,,,,,0x03,
6008,-26,-53,1000,1050,-420,-210,,,,,,,0x03,
6018,-26,-49,1001,1190,-420,-210,,,,,,,0x03,
6028,-28,-48,1000,1120,-490,-210,,,,,,,0x03,
6037,-29,-47,999,700,-490,-210,,,,,,,0x03,
6047,-27,-47,998,350,-490,-70,,,,,,,0x03,
6056,-29,-47,997,70,-560,-70,,,,,,,0x03,
6066,-33,-49,998,-140,-560,0,,,,,,,0x03,
6076,-32,-49,998,-280,-630,70,,,,,,,0x03,
6085,-28,-46,998,-280,-630,0,,,,,,,0x03,
6095,-28,-47,997,-700,-700,0,,,,,,,0x03,
6105,-31,-52,999,-1260,-910,70,,,,,,,0x03,
6114,-30,-57,999,-1400,-910,0,,,,,,,0x03,
6124,-28,-58,999,-980,-910,-70,,,,,,,0x03,
6134,-28,-56,999,-560,-770,-70,,,,,,,0x03,
6143,-27,-56,999,-560,-700,0,,,,,,,0x03,
6153,-26,-56,999,-560,-770,-70,,,,,,,0x03,
6163,-25,-55,999,-490,-840,-70,,,,,,,0x03,
6172,-26,-56,999,-490,-840,-70,,,,,,,0x03,
6182,-27,-58,999,-420,-840,-70,,,,,,,0x03,
6191,-29,-59,998,-70,-840,-140,,,,,,,0x03,
6201,-32,-59,999,140,-770,-140,,,,,,,0x03,
6211,-33,-57,999,210,-700,-140,,,,,,,0x03,
6220,-31,-55,1000,280,-630,-140,,,,,,,0x03,
6230,-29,-53,1001,280,-490,-140,,,,,,,0x03,
6240,-29,-53,1001,210,-420,-140,,,,,,,0x03,
6249,-29,-54,999,280,-350,-140,,,,,,,0x03,
6259,-31,-53,998,420,-420,-70,,,,,,,0x03,
6269,-32,-51,997,420,-350,-70,,,,,,,0x03,
6278,-31,-50,997,280,-420,-70,,,,,,,0x03,
6288,-29,-51,997,0,-490,0,,,,,,,0x03,
6298,-33,-52,999,-280,-630,0,,,,,,,0x03,
6307,-31,-54,999,-420,-700,0,,,,,,,0x03,
6317,-27,-53,998,-350,-770,-70,,,,,,,0x03,
6327,-27,-53,999,-280,-770,0,,,,,,,0x03,
6336,-30,-53,999,-280,-770,-70,,,,,,,0x03,
6346,-29,-54,1001,-280,-840,-70,,,,,,,0x03,
6355,-27,-54,1000,-350,-700,-70,,,,,,,0x03,
6365,-28,-55,1000,-420,-700,-70,,,,,,,0x03,
6375,-28,-56,999,-350,-630,-140,,,,,,,0x03,
6384,-28,-56,998,-210,-560,-70,,,,,,,0x03,
6394,-28,-54,998,-140,-560,0,,,,,,,0x03,
6404,-28,-52,998,-70,-560,-70,,,,,,,0x03,
6413,-28,-54,997,-140,-700,-140,,,,,,,0x03,
6423,-29,-56,999,-140,-700,-140,,,,,,,0x03,
6433,-27,-55,999,-70,-700,-140,,,,,,,0x03,
6442,-27,-56,999,0,-770,-140,,,,,,,0x03,
6452,-29,-56,999,140,-700,-140,,,,,,,0x03,
6462,-30,-55,999,350,-630,-140,,,,,,,0x03,
6471,-31,-53,1000,350,-630,-140,,,,,,,0x03,
6481,-29,-53,998,140,-630,-70,,,,,,,0x03,
6490,-28,-53,998,70,-630,-70,,,,,,,0x03,
6500,-27,-53,998,280,-700,0,,,,,,,0x03,
6510,-32,-55,1000,280,-560,70,,,,,,,0x03,
6519,-29,-53,998,420,-700,-70,,,,,,,0x03,
6529,-27,-50,996,420,-700,-210,,,,,,,0x03,
6539,-31,-53,999,70,-700,-70,,,,,,,0x03,
6548,-33,-56,1001,-140,-700,-70,,,,,,,0x03,
6558,-27,-53,999,210,-630,-140,,,,,,,0x03,
6568,-25,-52,1000,350,-630,-140,,,,,,,0x03,
6577,-28,-52,1000,210,-630,-70,,,,,,,0x03,
6587,-27,-51,999,70,-700,-70,,,,,,,0x03,
6597,-29,-53,998,-70,-700,-70,,,,,,,0x03,
6606,-30,-56,997,-280,-770,0,,,,,,,0x03,
6616,-32,-57,998,-140,-770,0,,,,,,,0x03,
6625,-33,-56,997,70,-700,0,,,,,,,0x03,
6635,-31,-53,999,280,-700,-140,,,,,,,0x03,
6645,-29,-54,999,140,-700,-70,,,,,,,0x03,
6654,-29,-57,1000,0,-700,-70,,,,,,,0x03,
6664,-27,-58,999,280,-630,-140,,,,,,,0x03,
6674,-28,-54,999,490,-560,-140,,,,,,,0x03,
6683,-28,-52,1000,560,-490,-140,,,,,,,0x03,
6693,-27,-52,999,560,-490,0,,,,,,,0x03,
6703,-27,-55,1001,280,-350,210,,,,,,,0x03,
6712,-27,-56,999,490,-420,70,,,,,,,0x03,
6722,-26,-53,997,980,-350,-70,,,,,,,0x03,
6732,-31,-50,997,910,-350,-70,,,,,,,0x03,
6741,-35,-54,997,770,-630,-70,,,,,,,0x03,
6751,-34,-53,997,700,-700,-210,,,,,,,0x03,
6760,-32,-52,999,490,-560,-140,,,,,,,0x03,
6770,-26,-48,1002,560,-560,-280,,,,,,,0x03,
6780,-26,-47,1002,630,-490,-280,,,,,,,0x03,
6789,-29,-47,1003,560,-490,-140,,,,,,,0x03,
6799,-30,-48,1003,560,-350,-140,,,,,,,0x03,
6809,-29,-47,1000,420,-280,-140,,,,,,,0x03,
6818,-30,-48,998,140,-210,0,,,,,,,0x03,
6828,-34,-50,998,-140,-210,70,,,,,,,0x03,
6838,-33,-49,998,-210,-350,70,,,,,,,0x03,
6847,-32,-48,997,-560,-420,140,,,,,,,0x03,
6857,-32,-52,996,-980,-560,210,,,,,,,0x03,
6867,-34,-57,994,-980,-700,140,,,,,,,0x03,
6876,-34,-57,995,-420,-700,0,,,,,,,0x03,
6886,-30,-54,996,-140,-630,70,,,,,,,0x03,
6896,-29,-53,997,-70,-840,-70,,,,,,,0x03,
6905,-30,-55,1000,-70,-840,-140,,,,,,,0x03,
6915,-29,-55,1001,70,-910,-210,,,,,,,0x03,
6924,-29,-55,1001,140,-840,-140,,,,,,,0x03,
6934,-29,-54,1000,280,-700,-210,,,,,,,0x03,
6944,-31,-53,1000,420,-630,-140,,,,,,,0x03,
6953,-30,-51,1000,490,-490,-70,,,,,,,0x03,
6963,-28,-49,999,490,-490,-70,,,,,,,0x03,
6973,-28,-48,999,420,-560,-70,,,,,,,0x03,
6982,-31,-48,999,210,-560,-70,,,,,,,0x03,
6992,-30,-52,997,-70,-700,-70,,,,,,,0x03,
7002,-29,-52,998,0,-770,-140,,,,,,,0x03,
7011,-28,-52,997,140,-770,-140,,,,,,,0x03,
7021,-32,-53,998,140,-840,-70,,,,,,,0x03,
7031,-31,-52,999,140,-910,-70,,,,,,,0x03,
7040,-31,-51,1001,70,-840,-70,,,,,,,0x03,
7050,-30,-51,1001,70,-770,-70,,,,,,,0x03,
7059,-29,-51,1001,140,-770,-140,,,,,,,0x03,
7069,-30,-50,1001,350,-700,-210,,,,,,,0x03,
7079,-30,-49,1001,490,-630,-210,,,,,,,0x03,
7088,-29,-47,999,490,-630,-140,,,,,,,0x03,
7098,-30,-47,999,210,-630,-140,,,,,,,0x03,
7108,-31,-50,998,-140,-630,-70,,,,,,,0x03,
7117,-32,-52,997,-280,-700,-70,,,,,,,0x03,
7127,-32,-52,997,-140,-700,-70,,,,,,,0x03,
7137,-34,-51,999,-280,-770,0,,,,,,,0x03,
7146,-33,-52,1001,-350,-700,0,,,,,,,0x03,
7156,-31,-55,1001,-490,-560,70,,,,,,,0x03,
7166,-30,-58,1000,-420,-490,0,,,,,,,0x03,
7175,-30,-58,1000,70,-420,-70,,,,,,,0x03,
7185,-31,-57,999,560,-350,-70,,,,,,,0x03,
7194,-31,-57,995,420,-210,70,,,,,,,0x03,
7204,-26,-59,1003,490,-140,210,,,,,,,0x03,
7214,-27,-63,1002,490,210,280,,,,,,,0x03,
7223,-25,-65,1002,1330,210,140,,,,,,,0x03,
7233,-25,-58,1003,2030,560,0,,,,,,,0x03,
7243,-28,-53,998,2240,630,-70,,,,,,,0x03,
7252,-31,-54,1000,2450,630,-70,,,,,,,0x03,
7262,-33,-52,998,2870,560,-140,,,,,,,0x03,
7272,-32,-51,995,3010,420,-280,,,,,,,0x03,
7281,-33,-51,995,3290,210,-420,,,,,,,0x03,
7291,-35,-45,995,3430,210,-350,,,,,,,0x03,
7301,-36,-43,996,3080,70,-280,,,,,,,0x03,
7310,-34,-43,996,2660,-210,-280,,,,,,,0x03,
7320,-33,-41,997,2590,-350,-350,,,,,,,0x03,
7330,-32,-37,998,2870,-490,-420,,,,,,,0x03,
7339,-33,-32,999,2660,-630,-490,,,,,,,0x03,
7349,-35,-31,999,2170,-700,-490,,,,,,,0x03,
7358,-37,-32,1001,1470,-770,-420,,,,,,,0x03,
7368,-34,-33,999,1050,-770,-420,,,,,,,0x03,
7378,-33,-33,999,700,-700,-280,,,,,,,0x03,
7387,-33,-34,1000,210,-700,-140,,,,,,,0x03,
7397,-33,-35,1000,-350,-770,0,,,,,,,0x03,
7407,-31,-38,1000,-1050,-840,70,,,,,,,0x03,
7416,-33,-42,999,-1400,-910,140,,,,,,,0x03,
7426,-35,-44,999,-1400,-910,140,,,,,,,0x03,
7436,-36,-45,1000,-1190,-910,70,,,,,,,0x03,
7445,-32,-45,999,-1050,-840,0,,,,,,,0x03,
7455,-33,-47,998,-1050,-840,0,,,,,,,0x03,
7465,-34,-50,998,-980,-840,-70,,,,,,,0x03,
7474,-34,-51,998,-770,-910,-70,,,,,,,0x03,
7484,-32,-50,999,-490,-840,-140,,,,,,,0x03,
7493,-33,-48,1000,-350,-770,-70,,,,,,,0x03,
7503,-33,-49,1000,-210,-700,0,,,,,,,0x03,
7513,-32,-48,1001,-210,-630,0,,,,,,,0x03,
7522,-30,-47,999,-70,-630,-70,,,,,,,0x03,
7532,-31,-49,999,-70,-490,0,,,,,,,0x03,
7542,-33,-51,998,70,-490,0,,,,,,,0x03,
7551,-32,-49,997,350,-560,-70,,,,,,,0x03,
7561,-32,-48,998,560,-560,-70,,,,,,,0x03,
7571,-33,-46,999,490,-560,-70,,,,,,,0x03,
7580,-33,-47,998,490,-630,-140,,,,,,,0x03,
7590,-34,-50,999,560,-630,-70,,,,,,,0x03,
7600,-34,-52,1000,560,-490,0,,,,,,,0x03,
7609,-33,-54,1001,700,-420,0,,,,,,,0x03,
7619,-32,-52,1002,1190,-210,-70,,,,,,,0x03,
7628,-30,-49,1001,1750,-140,-140,,,,,,,0x03,
7638,-32,-48,1002,1820,70,0,,,,,,,0x03,
7648,-33,-47,1003,1820,140,0,,,,,,,0x03,
7657,-31,-45,1000,1820,210,-140,,,,,,,0x03,
7667,-31,-45,1001,1820,420,70,,,,,,,0x03,
7677,-35,-45,999,2030,490,70,,,,,,,0x03,
7686,-33,-41,999,2380,420,-140,,,,,,,0x03,
7696,-31,-32,998,2590,420,-210,,,,,,,0x03,
7706,-34,-28,995,2170,210,-140,,,,,,,0x03,
7715,-37,-29,995,1680,-140,-210,,,,,,,0x03,
7725,-40,-28,994,1260,-350,-280,,,,,,,0x03,
7735,-38,-30,995,700,-560,-210,,,,,,,0x03,
7744,-38,-28,995,350,-770,-210,,,,,,,0x03,
7754,-40,-30,996,-140,-980,-140,,,,,,,0x03,
7763,-39,-30,998,-700,-1190,-140,,,,,,,0x03,
7773,-36,-30,1000,-1330,-1330,-70,,,,,,,0x03,
7783,-35,-35,1000,-2030,-1330,70,,,,,,,0x03,
7792,-33,-39,1001,-2380,-1330,140,,,,,,,0x03,
7802,-34,-43,1000,-2310,-1330,70,,,,,,,0x03,
7812,-34,-43,1002,-2030,-1260,70,,,,,,,0x03,
7821,-33,-44,1001,-1890,-1120,70,,,,,,,0x03,
7831,-33,-47,1001,-1890,-1050,0,,,,,,,0x03,
7841,-33,-47,1003,-1960,-910,70,,,,,,,0x03,
7850,-30,-52,1002,-1890,-700,70,,,,,,,0x03,
7860,-29,-55,1000,-1540,-630,70,,,,,,,0x03,
7870,-31,-58,1000,-910,-490,70,,,,,,,0x03,
7879,-32,-55,999,-210,-350,70,,,,,,,0x03,
7889,-32,-53,999,140,-210,70,,,,,,,0x03,
7899,-31,-49,998,350,-210,-70,,,,,,,0x03,
7908,-33,-48,998,490,-350,-70,,,,,,,0x03,
7918,-36,-48,997,560,-420,-70,,,,,,,0x03,
7927,-37,-49,997,840,-420,-140,,,,,,,0x03,
7937,-35,-47,999,1050,-350,-70,,,,,,,0x03,
7947,-34,-46,999,1470,-350,-140,,,,,,,0x03,
7956,-33,-40,1001,1820,-140,-280,,,,,,,0x03,
7966,-36,-35,1003,1820,-140,-210,,,,,,,0x03,
7976,-34,-34,1004,1260,70,-140,,,,,,,0x03,
7985,-33,-35,1003,840,70,-70,,,,,,,0x03,
7995,-32,-40,1000,770,280,70,,,,,,,0x03,
8005,-33,-40,1000,840,350,140,,,,,,,0x03,
8014,-32,-36,1000,840,420,280,,,,,,,0x03,
8024,-30,-34,999,420,420,280,,,,,,,0x03,
8034,-36,-38,996,-210,140,420,,,,,,,0x03,
8043,-41,-41,993,-350,-210,280,,,,,,,0x03,
8053,-39,-41,994,-210,-350,140,,,,,,,0x03,
8062,-40,-40,993,-140,-560,70,,,,,,,0x03,
8072,-40,-41,994,0,-770,-140,,,,,,,0x03,
8082,-37,-38,994,140,-910,-280,,,,,,,0x03,
8091,-39,-38,996,140,-1190,-350,,,,,,,0x03,
8101,-40,-36,1000,0,-1470,-280,,,,,,,0x03,
8111,-40,-41,1002,-420,-1610,-280,,,,,,,0x03,
8120,-34,-47,999,-280,-1610,-420,,,,,,,0x03,
8130,-33,-42,998,-280,-1120,-420,,,,,,,0x03,
8140,-34,-40,1002,-420,-910,-210,,,,,,,0x03,
8149,-37,-40,1005,-910,-630,140,,,,,,,0x03,
8159,-33,-46,1004,-1260,-700,140,,,,,,,0x03,
8169,-28,-47,1001,-700,-630,70,,,,,,,0x03,
8178,-29,-46,999,-350,-420,140,,,,,,,0x03,
8188,-33,-48,997,-350,-420,140,,,,,,,0x03,
8197,-37,-49,997,-420,-490,70,,,,,,,0x03,
8207,-37,-50,996,-350,-560,70,,,,,,,0x03,
8217,-37,-57,997,-70,-630,0,,,,,,,0x03,
8226,-36,-59,996,770,-630,-210,,,,,,,0x03,
8236,-37,-53,998,1820,-420,-280,,,,,,,0x03,
8246,-36,-45,1001,2450,-280,-420,,,,,,,0x03,
8255,-36,-38,1000,2590,-350,-490,,,,,,,0x03,
8265,-34,-31,1004,2380,-280,-490,,,,,,,0x03,
8275,-36,-31,1000,1820,-280,-420,,,,,,,0x03,
8284,-36,-33,997,1610,-420,-420,,,,,,,0x03,
8294,-37,-32,998,1540,-280,-280,,,,,,,0x03,
8304,-40,-33,997,1400,-280,-140,,,,,,,0x03,
8313,-38,-32,996,1330,-490,-210,,,,,,,0x03,
8323,-39,-27,996,840,-630,-70,,,,,,,0x03,
8332,-41,-31,999,-280,-700,70,,,,,,,0x03,
8342,-38,-34,998,-770,-840,70,,,,,,,0x03,
8352,-36,-34,998,-840,-980,0,,,,,,,0x03,
8361,-38,-38,998,-1050,-980,70,,,,,,,0x03,
8371,-38,-42,998,-1330,-980,140,,,,,,,0x03,
8381,-34,-41,999,-980,-1050,-70,,,,,,,0x03,
8390,-33,-37,1000,-910,-1050,-70,,,,,,,0x03,
8400,-34,-39,1001,-1050,-1050,-70,,,,,,,0x03,
8410,-36,-42,1001,-1190,-1120,-70,,,,,,,0x03,
8419,-35,-43,1001,-1190,-980,-70,,,,,,,0x03,
8429,-33,-44,1001,-1050,-840,-70,,,,,,,0x03,
8439,-33,-44,1001,-700,-700,0,,,,,,,0x03,
8448,-34,-45,999,-420,-560,0,,,,,,,0x03,
8458,-36,-48,998,-420,-560,70,,,,,,,0x03,
8468,-39,-51,998,-560,-490,140,,,,,,,0x03,
8477,-35,-51,998,-280,-490,0,,,,,,,0x03,
8487,-34,-48,998,280,-350,-70,,,,,,,0x03,
8496,-36,-46,999,770,-350,-140,,,,,,,0x03,
8506,-36,-43,1000,1120,-420,-210,,,,,,,0x03,
8516,-38,-41,997,1260,-560,-280,,,,,,,0x03,
8525,-38,-40,997,1260,-560,-280,,,,,,,0x03,
8535,-37,-38,997,1400,-560,-350,,,,,,,0x03,
8545,-36,-32,999,1330,-630,-350,,,,,,,0x03,
8554,-36,-29,1001,910,-630,-280,,,,,,,0x03,
8564,-33,-29,1000,490,-770,-210,,,,,,,0x03,
8574,-35,-30,1000,0,-840,-210,,,,,,,0x03,
8583,-37,-34,1000,-560,-840,0,,,,,,,0x03,
8593,-38,-39,1000,-910,-840,70,,,,,,,0x03,
8603,-37,-37,999,-770,-840,70,,,,,,,0x03,
8612,-38,-37,998,-630,-770,0,,,,,,,0x03,
8622,-40,-37,1000,-910,-840,70,,,,,,,0x03,
8631,-35,-40,998,-1260,-910,70,,,,,,,0x03,
8641,-30,-42,998,-1330,-980,0,,,,,,,0x03,
8651,-33,-43,999,-1050,-980,-70,,,,,,,0x03,
8660,-36,-42,998,-840,-1120,-140,,,,,,,0x03,
8670,-36,-43,999,-630,-1120,-210,,,,,,,0x03,
8680,-36,-41,999,-700,-1050,-140,,,,,,,0x03,
8689,-35,-42,999,-840,-1050,-70,,,,,,,0x03,
8699,-34,-43,1000,-770,-980,-140,,,,,,,0x03,
8709,-35,-42,1001,-630,-910,-70,,,,,,,0x03,
8718,-33,-42,1001,-630,-840,0,,,,,,,0x03,
8728,-32,-46,1001,-700,-770,70,,,,,,,0x03,
8738,-32,-48,1000,-560,-770,0,,,,,,,0x03,
8747,-35,-49,999,-210,-630,0,,,,,,,0x03,
8757,-36,-49,999,140,-560,0,,,,,,,0x03,
8766,-36,-47,998,560,-560,-70,,,,,,,0x03,
8776,-36,-43,998,840,-560,-210,,,,,,,0x03,
8786,-33,-41,998,980,-630,-280,,,,,,,0x03,
8795,-35,-39,998,980,-770,-350,,,,,,,0x03,
8805,-40,-40,1000,910,-840,-420,,,,,,,0x03,
8815,-38,-40,998,840,-840,-350,,,,,,,0x03,
8824,-37,-35,998,910,-840,-420,,,,,,,0x03,
8834,-38,-32,999,840,-840,-280,,,,,,,0x03,
8844,-39,-30,999,280,-910,-210,,,,,,,0x03,
8853,-36,-30,1000,-350,-980,-210,,,,,,,0x03,
8863,-34,-32,1000,-840,-1050,-140,,,,,,,0x03,
8873,-34,-35,999,-1260,-1050,-70,,,,,,,0x03,
8882,-36,-40,1000,-1540,-1120,0,,,,,,,0x03,
8892,-36,-43,1000,-1540,-1050,70,,,,,,,0x03,
8901,-35,-42,999,-1330,-1050,70,,,,,,,0x03,
8911,-33,-41,998,-1260,-1050,0,,,,,,,0x03,
8921,-35,-44,998,-1540,-1120,70,,,,,,,0x03,
8930,-36,-48,998,-1540,-1190,0,,,,,,,0x03,
8940,-36,-48,998,-1330,-1190,-70,,,,,,,0x03,
8950,-36,-47,999,-1120,-1120,-70,,,,,,,0x03,
8959,-35,-46,999,-770,-1050,-210,,,,,,,0x03,
8969,-30,-42,1001,-420,-910,-140,,,,,,,0x03,
8979,-31,-42,1002,-490,-770,-70,,,,,,,0x03,
8988,-32,-47,999,-490,-840,-70,,,,,,,0x03,
8998,-32,-48,998,-210,-840,-140,,,,,,,0x03,
9008,-35,-46,998,-140,-770,-70,,,,,,,0x03,
9017,-35,-45,999,-140,-770,-70,,,,,,,0x03,
9027,-34,-44,998,0,-770,-70,,,,,,,0x03,
9037,-35,-42,999,70,-770,-70,,,,,,,0x03,
9046,-35,-44,999,70,-840,-140,,,,,,,0x03,
9056,-36,-45,998,140,-840,-210,,,,,,,0x03,
9065,-34,-44,998,280,-910,-210,,,,,,,0x03,
9075,-35,-44,999,210,-840,-210,,,,,,,0x03,
9085,-35,-43,999,350,-910,-210,,,,,,,0x03,
9094,-36,-41,998,420,-910,-280,,,,,,,0x03,
9104,-35,-40,999,210,-980,-210,,,,,,,0x03,
9114,-35,-38,1000,70,-980,-210,,,,,,,0x03,
9123,-33,-36,1000,-140,-910,-210,,,,,,,0x03,
9133,-36,-36,1000,-420,-910,-210,,,,,,,0x03,
9143,-36,-40,999,-770,-910,-70,,,,,,,0x03,
9152,-36,-43,1000,-840,-910,-70,,,,,,,0x03,
9162,-33,-41,999,-770,-910,-70,,,,,,,0x03,
9172,-33,-39,999,-980,-910,0,,,,,,,0x03,
9181,-36,-42,998,-1400,-980,0,,,,,,,0x03,
9191,-35,-43,997,-1540,-1190,-70,,,,,,,0x03,
9200,-34,-43,998,-1610,-1120,-70,,,,,,,0x03,
9210,-36,-47,999,-1680,-1120,70,,,,,,,0x03,
9220,-35,-51,999,-1330,-1120,-70,,,,,,,0x03,
9229,-36,-48,999,-700,-980,0,,,,,,,0x03,
9239,-35,-47,1000,-700,-910,0,,,,,,,0x03,
9249,-33,-46,1000,-770,-910,-70,,,,,,,0x03,
9258,-31,-45,1000,-840,-770,-70,,,,,,,0x03,
9268,-28,-47,999,-700,-770,-70,,,,,,,0x03,
9278,-28,-49,997,-350,-840,-70,,,,,,,0x03,
9287,-31,-47,999,70,-840,-140,,,,,,,0x03,
9297,-33,-45,999,70,-840,-140,,,,,,,0x03,
9307,-31,-43,998,-70,-840,-140,,,,,,,0x03,
9316,-33,-44,998,-140,-840,-140,,,,,,,0x03,
9326,-36,-47,999,-140,-910,-140,,,,,,,0x03,
9335,-35,-45,998,0,-910,-140,,,,,,,0x03,
9345,-35,-44,999,70,-910,-140,,,,,,,0x03,
9355,-32,-41,1000,-140,-840,-70,,,,,,,0x03,
9364,-32,-41,999,-280,-840,-70,,,,,,,0x03,
9374,-33,-43,1000,-350,-840,-70,,,,,,,0x03,
9384,-35,-45,1000,-280,-840,-70,,,,,,,0x03,
9393,-36,-45,998,-210,-770,0,,,,,,,0x03,
9403,-34,-46,995,-140,-840,0,,,,,,,0x03,
9413,-31,-44,998,-350,-840,0,,,,,,,0x03,
9422,-34,-48,999,-490,-910,140,,,,,,,0x03,
9432,-33,-49,1000,-700,-1050,0,,,,,,,0x03,
9442,-34,-46,999,-350,-1050,-140,,,,,,,0x03,
9451,-32,-46,999,-140,-980,-140,,,,,,,0x03,
9461,-35,-48,1000,-70,-910,-70,,,,,,,0x03,
9470,-33,-49,999,140,-980,-140,,,,,,,0x03,
9480,-33,-46,998,350,-980,-210,,,,,,,0x03,
9490,-35,-48,999,210,-910,-140,,,,,,,0x03,
9499,-34,-47,998,70,-980,-140,,,,,,,0x03,
9509,-31,-47,1000,70,-910,-210,,,,,,,0x03,
9519,-32,-46,1001,0,-980,-140,,,,,,,0x03,
9528,-32,-46,1001,70,-910,-140,,,,,,,0x03,
9538,-30,-43,1000,210,-840,-210,,,,,,,0x03,
9548,-30,-42,1001,210,-770,-210,,,,,,,0x03,
9557,-32,-41,1000,140,-770,-140,,,,,,,0x03,
9567,-33,-44,999,0,-770,-140,,,,,,,0x03,
9577,-34,-47,999,-280,-770,-70,,,,,,,0x03,
9586,-33,-48,999,-350,-700,-70,,,,,,,0x03,
9596,-29,-47,1000,-140,-630,-140,,,,,,,0x03,
9606,-30,-45,1000,-70,-630,-70,,,,,,,0x03,
9615,-32,-44,1000,-70,-700,-70,,,,,,,0x03,
9625,-32,-43,999,0,-700,-70,,,,,,,0x03,
9634,-32,-44,997,-70,-770,-140,,,,,,,0x03,
9644,-33,-46,997,-70,-840,-140,,,,,,,0x03,
9654,-35,-46,998,-70,-840,-140,,,,,,,0x03,
9663,-35,-49,999,-140,-770,-140,,,,,,,0x03,
9673,-36,-49,999,-140,-770,-70,,,,,,,0x03,
9683,-34,-46,1001,0,-700,-70,,,,,,,0x03,
9692,-31,-44,1001,70,-630,-70,,,,,,,0x03,
9702,-32,-44,999,-70,-560,-70,,,,,,,0x03,
9712,-32,-47,999,0,-630,0,,,,,,,0x03,
9721,-33,-48,998,140,-630,-70,,,,,,,0x03,
9731,-33,-48,998,350,-560,-70,,,,,,,0x03,
9741,-33,-46,999,420,-560,-140,,,,,,,0x03,
9750,-37,-46,1000,280,-560,-70,,,,,,,0x03,
9760,-35,-47,999,210,-630,-70,,,,,,,0x03,
9769,-33,-45,998,350,-560,-70,,,,,,,0x03,
9779,-32,-43,999,420,-560,-140,,,,,,,0x03,
9789,-34,-40,998,350,-560,-70,,,,,,,0x03,
9798,-33,-41,998,350,-630,-70,,,,,,,0x03,
9808,-33,-40,998,350,-700,-140,,,,,,,0x03,
9818,-33,-38,998,210,-770,-140,,,,,,,0x03,
9827,-34,-37,997,70,-910,-140,,,,,,,0x03,
9837,-35,-37,996,-280,-1050,-70,,,,,,,0x03,
9847,-35,-40,997,-840,-1190,0,,,,,,,0x03,
9856,-37,-44,1000,-1400,-1260,0,,,,,,,0x03,
9866,-29,-45,999,-1400,-1260,-140,,,,,,,0x03,
9876,-26,-47,1001,-1330,-1120,0,,,,,,,0x03,
9885,-29,-50,1003,-1470,-1120,140,,,,,,,0x03,
9895,-29,-54,1003,-1120,-1050,70,,,,,,,0x03,
9904,-26,-51,1002,-630,-840,-70,,,,,,,0x03,
9914,-28,-51,1002,-350,-700,-70,,,,,,,0x03,
9924,-28,-51,1000,70,-560,-140,,,,,,,0x03,
9933,-31,-51,1000,350,-560,-140,,,,,,,0x03,
9943,-32,-50,999,630,-420,-210,,,,,,,0x03,
9953,-29,-48,999,910,-420,-280,,,,,,,0x03,
9962,-30,-44,998,1050,-350,-210,,,,,,,0x03,
9972,-35,-43,998,1050,-560,-210,,,,,,,0x03,
9982,-38,-43,996,770,-630,-210,,,,,,,0x03,
9991,-38,-43,997,560,-770,-210,,,,,,,0x03,
10001,-35,-40,996,490,-840,-210,,,,,,,0x03,
10011,-35,-39,997,280,-910,-210,,,,,,,0x03,
10020,-35,-41,998,0,-1050,-140,,,,,,,0x03,
10030,-34,-41,1000,-350,-1120,-140,,,,,,,0x03,
10039,-34,-42,1000,-420,-1120,-210,,,,,,,0x03,
10049,-32,-43,1000,-770,-1050,-70,,,,,,,0x03,
10059,-33,-47,1001,-840,-910,0,,,,,,,0x03,
10068,-34,-47,1001,-630,-770,70,,,,,,,0x03,
10078,-33,-45,1000,-420,-630,70,,,,,,,0x03,
10088,-31,-45,1000,-420,-630,70,,,,,,,0x03,
10097,-33,-47,998,-490,-560,70,,,,,,,0x03,
10107,-34,-51,998,-560,-560,140,,,,,,,0x03,
10117,-33,-53,999,-280,-490,0,,,,,,,0x03,
10126,-29,-51,998,210,-350,-70,,,,,,,0x03,
10136,-31,-51,998,630,-350,-140,,,,,,,0x03,
10146,-31,-49,998,840,-350,-70,,,,,,,0x03,
10155,-31,-47,998,980,-490,-210,,,,,,,0x03,
10165,-32,-43,997,1050,-560,-210,,,,,,,0x03,
10175,-32,-41,997,980,-700,-210,,,,,,,0x03,
10184,-34,-42,996,840,-770,-210,,,,,,,0x03,
10194,-35,-42,998,700,-840,-140,,,,,,,0x03,
10203,-34,-40,999,560,-840,-140,,,,,,,0x03,
10213,-31,-39,1001,420,-910,-140,,,,,,,0x03,
10223,-32,-40,1001,210,-910,0,,,,,,,0x03,
10232,-31,-40,1000,0,-910,0,,,,,,,0x03,
10242,-29,-41,1000,-210,-910,0,,,,,,,0x03,
10252,-32,-43,1000,-420,-910,0,,,,,,,0x03,
10261,-34,-45,1000,-490,-840,0,,,,,,,0x03,
10271,-32,-44,1000,-210,-700,0,,,,,,,0x03,
10281,-30,-42,999,-140,-700,0,,,,,,,0x03,
10290,-31,-45,997,-350,-770,70,,,,,,,0x03,
10300,-32,-48,997,-490,-840,0,,,,,,,0x03,
10310,-33,-50,998,-210,-840,-70,,,,,,,0x03,
10319,-32,-48,999,0,-770,-140,,,,,,,0x03,
10329,-31,-47,1000,210,-700,-210,,,,,,,0x03,
10338,-32,-44,1001,420,-700,-210,,,,,,,0x03,
10348,-34,-43,1000,490,-700,-280,,,,,,,0x03,
10358,-34,-44,998,210,-630,-210,,,,,,,0x03,
10367,-34,-45,998,70,-700,-210,,,,,,,0x03,
10377,-33,-43,997,280,-700,-210,,,,,,,0x03,
10387,-33,-39,998,280,-630,-210,,,,,,,0x03,
10396,-35,-39,1000,-210,-770,-140,,,,,,,0x03,
10406,-35,-40,999,-490,-840,-70,,,,,,,0x03,
10416,-31,-43,998,-630,-910,-140,,,,,,,0x03,
10425,-31,-43,998,-560,-910,-70,,,,,,,0x03,
10435,-33,-45,999,-490,-980,-140,,,,,,,0x03,
10445,-31,-43,998,-420,-910,-140,,,,,,,0x03,
10454,-30,-43,999,-490,-980,-140,,,,,,,0x03,
10464,-32,-47,1002,-630,-910,-70,,,,,,,0x03,
10473,-31,-49,1002,-700,-840,0,,,,,,,0x03,
10483,-29,-49,1001,-490,-700,0,,,,,,,0x03,
10493,-31,-49,1000,-280,-630,0,,,,,,,0x03,
10502,-33,-49,1000,-70,-630,-70,,,,,,,0x03,
10512,-34,-48,999,140,-560,-70,,,,,,,0x03,
10522,-34,-45,999,210,-490,-70,,,,,,,0x03,
10531,-36,-46,998,210,-490,-70,,,,,,,0x03,
10541,-38,-47,996,350,-490,-140,,,,,,,0x03,
10551,-36,-45,996,490,-560,-140,,,,,,,0x03,
10560,-34,-45,996,490,-630,-140,,,,,,,0x03,
10570,-33,-42,996,350,-700,-70,,,,,,,0x03,
10580,-30,-42,998,280,-910,-140,,,,,,,0x03,
10589,-27,-38,1000,280,-980,-140,,,,,,,0x03,
10599,-24,-36,1001,280,-1050,-210,,,,,,,0x03,
10608,-24,-36,1000,-70,-1190,-210,,,,,,,0x03,
10618,-27,-39,1000,-420,-1190,-140,,,,,,,0x03,
10628,-27,-43,1001,-490,-1260,-210,,,,,,,0x03,
10637,-27,-43,1002,-420,-1190,-210,,,,,,,0x03,
10647,-29,-44,1004,-700,-1120,-70,,,,,,,0x03,
10657,-34,-48,1003,-980,-980,0,,,,,,,0x03,
10666,-34,-50,1003,-840,-770,0,,,,,,,0x03,
10676,-36,-48,1001,-490,-630,-70,,,,,,,0x03,
10686,-38,-46,999,-350,-420,-70,,,,,,,0x03,
10695,-40,-47,998,-420,-350,0,,,,,,,0x03,
10705,-42,-44,996,-280,-350,70,,,,,,,0x03,
10715,-43,-50,995,-700,-490,0,,,,,,,0x03,
10724,-43,-50,994,-910,-490,0,,,,,,,0x03,
10734,-41,-49,995,-770,-560,0,,,,,,,0x03,
10744,-37,-45,995,-490,-630,0,,,,,,,0x03,
10753,-34,-45,996,-560,-840,-140,,,,,,,0x03,
10763,-31,-43,997,-700,-1050,-210,,,,,,,0x03,
10772,-30,-42,998,-630,-1120,-280,,,,,,,0x03,
10782,-26,-41,999,-560,-1190,-280,,,,,,,0x03,
10792,-25,-42,1000,-560,-1190,-280,,,,,,,0x03,
10801,-28,-43,1001,-770,-1260,-210,,,,,,,0x03,
10811,-27,-47,1003,-1050,-1190,-70,,,,,,,0x03,
10821,-24,-48,1004,-1260,-1120,0,,,,,,,0x03,
10830,-23,-50,1004,-1190,-910,70,,,,,,,0x03,
10840,-24,-50,1003,-840,-700,140,,,,,,,0x03,
10850,-25,-48,1003,-560,-560,140,,,,,,,0x03,
10859,-24,-50,1002,-350,-490,70,,,,,,,0x03,
10869,-27,-50,998,-70,-420,0,,,,,,,0x03,
10879,-27,-52,996,140,-350,0,,,,,,,0x03,
10888,-30,-54,996,350,-420,-70,,,,,,,0x03,
10898,-34,-54,994,490,-560,70,,,,,,,0x03,
10907,-36,-54,994,700,-700,-70,,,,,,,0x03,
10917,-34,-49,994,910,-910,-140,,,,,,,0x03,
10927,-34,-46,996,910,-1050,-210,,,,,,,0x03,
10936,-34,-44,998,770,-1050,-280,,,,,,,0x03,
10946,-33,-44,1000,770,-1190,-350,,,,,,,0x03,
10956,-33,-42,1001,910,-1120,-490,,,,,,,0x03,
10965,-32,-39,1002,980,-980,-490,,,,,,,0x03,
10975,-32,-40,1001,840,-910,-420,,,,,,,0x03,
10985,-33,-40,1002,420,-840,-280,,,,,,,0x03,
10994,-36,-40,1002,140,-770,-280,,,,,,,0x03,
11004,-33,-38,1001,-210,-630,-210,,,,,,,0x03,
11014,-34,-39,1000,-700,-630,-70,,,,,,,0x03,
11023,-33,-41,998,-980,-700,0,,,,,,,0x03,
11033,-35,-43,996,-1050,-770,70,,,,,,,0x03,
11042,-36,-43,996,-1120,-840,0,,,,,,,0x03,
11052,-36,-45,995,-1190,-980,0,,,,,,,0x03,
11062,-38,-47,996,-1260,-1050,-70,,,,,,,0x03,
11071,-37,-48,997,-1400,-1190,0,,,,,,,0x03,
11081,-36,-51,1002,-1610,-1190,70,,,,,,,0x03,
11091,-38,-52,994,-1680,-1330,-70,,,,,,,0x03,
11100,-33,-50,998,-1190,-1330,-210,,,,,,,0x03,
11110,-30,-48,1002,-1330,-1050,140,,,,,,,0x03,
11120,-26,-55,1002,-1470,-1120,140,,,,,,,0x03,
11129,-21,-53,1001,-840,-980,-70,,,,,,,0x03,
11139,-23,-51,1002,-210,-700,0,,,,,,,0x03,
11149,-24,-50,1002,70,-630,0,,,,,,,0x03,
11158,-25,-51,1000,140,-630,-70,,,,,,,0x03,
11168,-27,-51,998,210,-560,-70,,,,,,,0x03,
11177,-28,-52,998,280,-560,-70,,,,,,,0x03,
11187,-27,-50,997,350,-630,-70,,,,,,,0x03,
11197,-29,-49,997,490,-770,-70,,,,,,,0x03,
11206,-32,-48,999,560,-770,-70,,,,,,,0x03,
11216,-33,-47,999,560,-770,-70,,,,,,,0x03,
11226,-34,-48,999,630,-770,-70,,,,,,,0x03,
11235,-38,-49,999,700,-770,-70,,,,,,,0x03,
11245,-38,-49,997,700,-630,-140,,,,,,,0x03,
11255,-35,-46,997,910,-630,-210,,,,,,,0x03,
11264,-35,-43,998,840,-700,-280,,,,,,,0x03,
11274,-39,-43,997,490,-910,-210,,,,,,,0x03,
11284,-39,-46,998,70,-1050,-210,,,,,,,0x03,
11293,-36,-45,1000,0,-980,-210,,,,,,,0x03,
11303,-32,-42,1000,0,-910,-210,,,,,,,0x03,
11313,-30,-41,1001,70,-910,-140,,,,,,,0x03,
11322,-26,-40,1000,0,-910,-140,,,,,,,0x03,
11332,-23,-39,1000,-210,-980,-70,,,,,,,0x03,
11341,-21,-40,1001,-630,-980,-70,,,,,,,0x03,
11351,-23,-43,1001,-1120,-1050,0,,,,,,,0x03,
11361,-22,-48,1001,-1470,-1050,140,,,,,,,0x03,
11370,-22,-52,1002,-1610,-1050,140,,,,,,,0x03,
11380,-24,-55,998,-1400,-1120,70,,,,,,,0x03,
11390,-21,-55,1000,-1050,-1050,140,,,,,,,0x03,
11399,-23,-57,1001,-770,-910,280,,,,,,,0x03,
11409,-25,-60,1000,-280,-910,70,,,,,,,0x03,
11419,-26,-58,998,420,-770,-140,,,,,,,0x03,
11428,-29,-58,999,980,-630,-140,,,,,,,0x03,
11438,-29,-55,998,1470,-630,-350,,,,,,,0x03,
11448,-31,-52,997,1890,-630,-420,,,,,,,0x03,
11457,-32,-49,997,2030,-630,-490,,,,,,,0x03,
11467,-34,-45,997,2240,-630,-560,,,,,,,0x03,
11476,-34,-40,997,2100,-770,-490,,,,,,,0x03,
11486,-36,-39,999,1750,-840,-490,,,,,,,0x03,
11496,-37,-39,998,1400,-910,-420,,,,,,,0x03,
11505,-37,-37,999,1120,-980,-490,,,,,,,0x03,
11515,-35,-35,1000,980,-980,-420,,,,,,,0x03,
11525,-36,-34,1000,350,-980,-280,,,,,,,0x03,
11534,-34,-33,1001,-210,-910,-280,,,,,,,0x03,
11544,-34,-32,1000,-770,-910,-210,,,,,,,0x03,
11554,-36,-36,1000,-1400,-980,-70,,,,,,,0x03,
11563,-37,-40,999,-1820,-1050,70,,,,,,,0x03,
11573,-36,-43,998,-2240,-980,70,,,,,,,0x03,
11583,-33,-45,999,-2380,-910,70,,,,,,,0x03,
11592,-32,-45,999,-2520,-980,140,,,,,,,0x03,
11602,-35,-49,1001,-2800,-980,140,,,,,,,0x03,
11611,-34,-50,998,-2730,-1050,0,,,,,,,0x03,
11621,-26,-49,998,-2520,-980,0,,,,,,,0x03,
11631,-25,-48,998,-2310,-840,70,,,,,,,0x03,
11640,-27,-53,996,-2170,-1050,0,,,,,,,0x03,
11650,-27,-54,995,-2100,-1260,-70,,,,,,,0x03,
11660,-30,-56,997,-2030,-1260,70,,,,,,,0x03,
11669,-27,-58,998,-2030,-1260,70,,,,,,,0x03,
11679,-25,-59,1000,-1820,-1190,70,,,,,,,0x03,
11689,-25,-59,1001,-1400,-1050,70,,,,,,,0x03,
11698,-24,-61,1003,-980,-910,140,,,,,,,0x03,
11708,-25,-61,1004,-560,-700,140,,,,,,,0x03,
11718,-21,-61,1003,-70,-490,0,,,,,,,0x03,
11727,-19,-60,1001,490,-140,0,,,,,,,0x03,
11737,-22,-57,1000,1050,-70,-70,,,,,,,0x03,
11746,-26,-57,1000,1470,0,-70,,,,,,,0x03,
11756,-30,-55,999,1750,70,-70,,,,,,,0x03,
11766,-30,-55,998,1890,210,-70,,,,,,,0x03,
11775,-31,-55,998,2170,280,-70,,,,,,,0x03,
11785,-32,-51,998,2590,420,-70,,,,,,,0x03,
11795,-28,-44,999,3010,560,-210,,,,,,,0x03,
11804,-27,-38,999,3150,420,-280,,,,,,,0x03,
11814,-29,-35,996,2730,70,-280,,,,,,,0x03,
11824,-34,-40,996,1960,-140,-140,,,,,,,0x03,
11833,-32,-41,995,1540,-420,-140,,,,,,,0x03,
11843,-33,-38,997,1120,-560,-70,,,,,,,0x03,
11853,-33,-37,998,700,-630,-70,,,,,,,0x03,
11862,-31,-38,998,420,-840,-70,,,,,,,0x03,
11872,-32,-39,999,140,-1050,-140,,,,,,,0x03,
11882,-35,-40,1000,-140,-1050,-140,,,,,,,0x03,
11891,-35,-39,1000,-350,-1050,-280,,,,,,,0x03,
11901,-38,-38,1000,-560,-1120,-350,,,,,,,0x03,
11910,-41,-39,999,-770,-1120,-350,,,,,,,0x03,
11920,-41,-41,998,-1120,-1190,-280,,,,,,,0x03,
11930,-39,-41,998,-1610,-1120,-280,,,,,,,0x03,
11939,-37,-42,999,-2100,-1050,-140,,,,,,,0x03,
11949,-33,-45,999,-2590,-1120,-140,,,,,,,0x03,
11959,-32,-48,999,-2730,-1190,-70,,,,,,,0x03,
11968,-30,-48,999,-2730,-1190,-70,,,,,,,0x03,
11978,-28,-50,1000,-2800,-1190,-70,,,,,,,0x03,
11988,-26,-52,1000,-2730,-1120,-70,,,,,,,0x03,
11997,-22,-54,1000,-2380,-980,-140,,,,,,,0x03,
12007,-21,-54,999,-1890,-980,-140,,,,,,,0x03,
12017,-25,-56,999,-1610,-980,-140,,,,,,,0x03,
12026,-27,-59,999,-1330,-910,-140,,,,,,,0x03,
12036,-25,-57,1000,-1050,-840,-140,,,,,,,0x03,
12045,-25,-56,1000,-770,-700,-70,,,,,,,0x03,
12055,-26,-58,1000,-560,-630,-70,,,,,,,0x03,
12065,-28,-59,999,-350,-630,70,,,,,,,0x03,
12074,-29,-58,999,0,-560,0,,,,,,,0x03,
12084,-31,-57,998,350,-560,0,,,,,,,0x03,
12094,-33,-59,998,490,-490,70,,,,,,,0x03,
12103,-36,-59,997,700,-420,70,,,,,,,0x03,
12113,-34,-55,997,1190,-420,-70,,,,,,,0x03,
12123,-33,-51,997,1470,-420,-140,,,,,,,0x03,
12132,-32,-47,997,1470,-560,-140,,,,,,,0x03,
12142,-32,-45,998,1330,-630,-210,,,,,,,0x03,
12152,-30,-42,998,1260,-700,-280,,,,,,,0x03,
12161,-31,-40,1000,910,-770,-280,,,,,,,0x03,
12171,-32,-42,999,490,-840,-70,,,,,,,0x03,
12180,-29,-41,1000,280,-840,-140,,,,,,,0x03,
12190,-27,-38,1001,-70,-840,-70,,,,,,,0x03,
12200,-29,-41,1000,-700,-980,70,,,,,,,0x03,
12209,-30,-43,1001,-1190,-980,70,,,,,,,0x03,
12219,-28,-48,999,-1470,-1050,0,,,,,,,0x03,
12229,-29,-51,999,-1400,-1050,0,,,,,,,0x03,
12238,-30,-53,1000,-1330,-910,0,,,,,,,0x03,
12248,-29,-53,998,-1190,-910,-70,,,,,,,0x03,
12258,-30,-56,997,-1120,-910,-70,,,,,,,0x03,
12267,-33,-58,998,-980,-910,-140,,,,,,,0x03,
12277,-29,-57,998,-700,-840,-210,,,,,,,0x03,
12287,-30,-55,997,-420,-840,-280,,,,,,,0x03,
12296,-32,-53,998,-280,-840,-210,,,,,,,0x03,
12306,-32,-55,998,-350,-840,-210,,,,,,,0x03,
12315,-31,-52,998,-140,-910,-280,,,,,,,0x03,
12325,-29,-48,998,70,-840,-350,,,,,,,0x03,
12335,-29,-46,1000,-70,-840,-210,,,,,,,0x03,
12344,-29,-50,1000,-560,-910,-140,,,,,,,0x03,
12354,-27,-50,1000,-630,-980,-140,,,,,,,0x03,
12364,-28,-54,999,-630,-980,-70,,,,,,,0x03,
12373,-28,-55,999,-560,-840,0,,,,,,,0x03,
12383,-28,-57,1000,-350,-840,-70,,,,,,,0x03,
12393,-27,-55,999,-70,-700,-70,,,,,,,0x03,
12402,-29,-55,1000,140,-630,-70,,,,,,,0x03,
12412,-28,-55,1000,350,-630,-210,,,,,,,0x03,
12422,-27,-53,999,770,-630,-280,,,,,,,0x03,
12431,-27,-51,999,980,-490,-280,,,,,,,0x03,
12441,-31,-53,998,910,-490,-210,,,,,,,0x03,
12451,-31,-52,998,910,-490,-210,,,,,,,0x03,
12460,-31,-49,999,1050,-560,-210,,,,,,,0x03,
12470,-30,-46,999,980,-560,-140,,,,,,,0x03,
12479,-32,-46,999,560,-630,-70,,,,,,,0x03,
12489,-31,-46,1000,280,-630,-70,,,,,,,0x03,
12499,-30,-45,1000,140,-700,-140,,,,,,,0x03,
12508,-33,-48,999,0,-700,-70,,,,,,,0x03,
12518,-33,-50,998,70,-630,-70,,,,,,,0x03,
12528,-32,-49,998,140,-700,-70,,,,,,,0x03,
12537,-32,-45,998,70,-700,-70,,,,,,,0x03,
12547,-33,-47,999,-420,-840,0,,,,,,,0x03,
12557,-31,-51,1000,-840,-840,70,,,,,,,0x03,
12566,-28,-52,1000,-700,-840,0,,,,,,,0x03,
12576,-27,-52,999,-350,-770,-70,,,,,,,0x03,
12586,-28,-51,1000,-140,-700,0,,,,,,,0x03,
12595,-29,-51,1000,-210,-700,0,,,,,,,0x03,
12605,-29,-51,1000,-350,-700,0,,,,,,,0x03,
12614,-29,-52,999,-420,-630,70,,,,,,,0x03,
12624,-29,-55,999,-490,-560,70,,,,,,,0x03,
12634,-32,-59,997,-280,-560,70,,,,,,,0x03,
12643,-34,-60,996,140,-490,70,,,,,,,0x03,
12653,-33,-53,996,770,-490,-70,,,,,,,0x03,
12663,-31,-49,997,840,-630,-140,,,,,,,0x03,
12672,-34,-51,997,490,-770,-140,,,,,,,0x03,
12682,-33,-53,997,420,-840,-210,,,,,,,0x03,
12692,-28,-53,998,840,-910,-350,,,,,,,0x03,
12701,-27,-47,1000,1260,-840,-280,,,,,,,0x03,
12711,-27,-44,1002,1400,-770,-280,,,,,,,0x03,
12721,-26,-42,1001,1050,-770,-140,,,,,,,0x03,
12730,-26,-41,1003,420,-840,-70,,,,,,,0x03,
12740,-27,-44,1001,70,-840,-70,,,,,,,0x03,
12749,-28,-46,1000,-140,-770,70,,,,,,,0x03,
12759,-30,-47,1000,-210,-630,70,,,,,,,0x03,
12769,-32,-46,1000,-140,-490,70,,,,,,,0x03,
12778,-30,-44,999,-70,-560,0,,,,,,,0x03,
12788,-33,-45,997,-350,-700,0,,,,,,,0x03,
12798,-33,-48,996,-630,-840,70,,,,,,,0x03,
12807,-32,-49,996,-560,-910,-70,,,,,,,0x03,
12817,-33,-47,997,-420,-980,-140,,,,,,,0x03,
12827,-33,-49,998,-560,-1050,-70,,,,,,,0x03,
12836,-31,-49,998,-840,-1120,-70,,,,,,,0x03,
12846,-28,-50,999,-840,-1190,-70,,,,,,,0x03,
12856,-29,-51,1000,-1120,-1260,0,,,,,,,0x03,
12865,-30,-55,1000,-1400,-1260,0,,,,,,,0x03,
12875,-27,-55,1000,-980,-1190,-140,,,,,,,0x03,
12884,-26,-50,1001,-560,-980,-210,,,,,,,0x03,
12894,-27,-53,1002,-630,-910,-140,,,,,,,0x03,
12904,-28,-55,1000,-420,-910,-210,,,,,,,0x03,
12913,-27,-51,999,0,-840,-280,,,,,,,0x03,
12923,-29,-50,998,140,-700,-350,,,,,,,0x03,
12933,-31,-52,998,-70,-770,-210,,,,,,,0x03,
12942,-29,-52,997,-210,-770,-210,,,,,,,0x03,
12952,-26,-50,997,-280,-840,-210,,,,,,,0x03,
12962,-27,-51,998,-490,-840,-70,,,,,,,0x03,
12971,-29,-51,999,-560,-980,-140,,,,,,,0x03,
12981,-29,-50,1000,-350,-910,-140,,,,,,,0x03,
12991,-29,-47,999,-140,-910,-210,,,,,,,0x03,
13000,-30,-49,998,-140,-910,-280,,,,,,,0x03,
13010,-33,-52,998,-210,-910,-140,,,,,,,0x03,
13020,-31,-52,998,-70,-910,-210,,,,,,,0x03,
13029,-30,-51,999,0,-840,-210,,,,,,,0x03,
13039,-29,-50,1000,-70,-840,-70,,,,,,,0x03,
13048,-30,-47,1000,-140,-910,-70,,,,,,,0x03,
13058,-27,-46,1000,-350,-910,-70,,,,,,,0x03,
13068,-27,-48,998,-630,-980,0,,,,,,,0x03,
13077,-29,-52,998,-770,-1050,-70,,,,,,,0x03,
13087,-24,-50,998,-630,-1050,-70,,,,,,,0x03,
13097,-24,-51,999,-700,-980,-70,,,,,,,0x03,
13106,-27,-56,1000,-910,-1050,70,,,,,,,0x03,
13116,-26,-59,1001,-770,-1050,70,,,,,,,0x03,
13126,-24,-55,1000,-280,-980,-70,,,,,,,0x03,
13135,-24,-52,1000,-70,-910,-70,,,,,,,0x03,
13145,-26,-52,999,-140,-910,-70,,,,,,,0x03,
13155,-28,-54,998,-210,-910,-70,,,,,,,0x03,
13164,-29,-54,998,-140,-840,-140,,,,,,,0x03,
13174,-29,-53,998,70,-840,-210,,,,,,,0x03,
13183,-30,-53,998,210,-840,-210,,,,,,,0x03,
13193,-33,-54,998,0,-840,-140,,,,,,,0x03,
13203,-32,-52,999,-70,-840,-210,,,,,,,0x03,
13212,-29,-49,998,0,-910,-280,,,,,,,0x03,
13222,-30,-50,999,-280,-910,-210,,,,,,,0x03,
13232,-31,-52,1000,-350,-910,-210,,,,,,,0x03,
13241,-28,-51,999,70,-770,-350,,,,,,,0x03,
13251,-27,-49,1001,140,-700,-280,,,,,,,0x03,
13261,-28,-49,1000,-70,-700,-210,,,,,,,0x03,
13270,-30,-51,999,-140,-770,-210,,,,,,,0x03,
13280,-30,-50,998,-280,-700,-70,,,,,,,0x03,
13290,-28,-48,998,-490,-700,-70,,,,,,,0x03,
13299,-28,-48,998,-560,-770,-70,,,,,,,0x03,
13309,-29,-50,997,-630,-770,-70,,,,,,,0x03,
13318,-28,-50,998,-770,-840,-70,,,,,,,0x03,
13328,-26,-51,998,-770,-910,-70,,,,,,,0x03,
13338,-27,-53,1000,-840,-840,-70,,,,,,,0x03,
13347,-26,-54,999,-700,-840,-70,,,,,,,0x03,
13357,-25,-52,999,-700,-910,0,,,,,,,0x03,
13367,-26,-56,999,-700,-910,70,,,,,,,0x03,
13376,-28,-54,999,-630,-840,0,,,,,,,0x03,
13386,-27,-53,999,-420,-840,0,,,,,,,0x03,
13396,-29,-55,995,-350,-700,-70,,,,,,,0x03,
13405,-31,-52,998,210,-840,-70,,,,,,,0x03,
13415,-33,-48,990,770,-1190,-210,,,,,,,0x03,
13425,-33,-47,990,280,-1610,-280,,,,,,,0x03,
13434,-39,-51,993,-700,-1890,-280,,,,,,,0x03,
13444,-36,-51,995,-1330,-2240,-490,,,,,,,0x03,
13453,-32,-56,997,-1610,-2240,-420,,,,,,,0x03,
13463,-30,-59,1003,-1120,-2170,-140,,,,,,,0x03,
13473,-27,-56,1005,-490,-1960,-280,,,,,,,0x03,
13482,-27,-51,1005,-350,-1680,-210,,,,,,,0x03,
13492,-22,-50,1006,-420,-1400,-280,,,,,,,0x03,
13502,-21,-50,1008,-840,-1050,-210,,,,,,,0x03,
13511,-20,-57,1006,-1190,-700,0,,,,,,,0x03,
13521,-18,-62,1005,-840,-420,140,,,,,,,0x03,
13531,-19,-61,1003,-350,-70,210,,,,,,,0x03,
13540,-21,-56,1001,-140,140,350,,,,,,,0x03,
13550,-21,-53,997,-420,70,350,,,,,,,0x03,
13560,-23,-57,996,-910,0,350,,,,,,,0x03,
13569,-25,-61,995,-910,-140,280,,,,,,,0x03,
13579,-25,-61,994,-210,-210,70,,,,,,,0x03,
13589,-27,-58,994,560,-350,-210,,,,,,,0x03,
13598,-30,-54,995,980,-490,-350,,,,,,,0x03,
13608,-29,-54,995,980,-700,-350,,,,,,,0x03,
13617,-30,-55,996,770,-840,-420,,,,,,,0x03,
13627,-26,-54,998,700,-840,-420,,,,,,,0x03,
13637,-25,-52,999,770,-910,-350,,,,,,,0x03,
13646,-30,-50,1001,700,-910,-210,,,,,,,0x03,
13656,-32,-49,1000,490,-840,-210,,,,,,,0x03,
13666,-29,-50,1000,140,-770,-140,,,,,,,0x03,
13675,-25,-50,1000,-70,-630,-70,,,,,,,0x03,
13685,-26,-51,999,-70,-700,-70,,,,,,,0x03,
13695,-27,-53,1000,-210,-700,-70,,,,,,,0x03,
13704,-26,-54,999,-280,-700,0,,,,,,,0x03,
13714,-25,-53,998,-280,-770,-70,,,,,,,0x03,
13724,-27,-54,998,-280,-700,0,,,,,,,0x03,
13733,-29,-57,998,-280,-700,70,,,,,,,0x03,
13743,-27,-55,998,-210,-770,0,,,,,,,0x03,
13752,-26,-52,997,0,-840,-70,,,,,,,0x03,
13762,-29,-52,999,70,-840,-140,,,,,,,0x03,
13772,-29,-53,998,70,-910,-140,,,,,,,0x03,
13781,-27,-54,998,70,-910,-210,,,,,,,0x03,
13791,-28,-54,1000,0,-840,-210,,,,,,,0x03,
13801,-26,-56,998,-140,-910,-140,,,,,,,0x03,
13810,-25,-56,1001,-210,-840,-70,,,,,,,0x03,
13820,-24,-55,1001,-70,-700,-70,,,,,,,0x03,
13830,-23,-54,1000,0,-700,0,,,,,,,0x03,
13839,-24,-56,999,-70,-700,0,,,,,,,0x03,
13849,-25,-59,999,70,-630,0,,,,,,,0x03,
13859,-25,-58,999,420,-560,-70,,,,,,,0x03,
13868,-27,-57,999,770,-490,-210,,,,,,,0x03,
13878,-27,-55,999,1050,-560,-280,,,,,,,0x03,
13887,-24,-50,999,1260,-560,-280,,,,,,,0x03,
13897,-26,-50,997,1400,-700,-280,,,,,,,0x03,
13907,-30,-51,998,1050,-770,-280,,,,,,,0x03,
13916,-31,-52,997,770,-770,-210,,,,,,,0x03,
13926,-31,-48,999,840,-770,-210,,,,,,,0x03,
13936,-30,-44,1000,770,-770,-210,,,,,,,0x03,
13945,-27,-44,1001,280,-840,-70,,,,,,,0x03,
13955,-27,-48,1002,-210,-840,-70,,,,,,,0x03,
13965,-27,-49,1001,-420,-840,-70,,,,,,,0x03,
13974,-24,-48,1001,-420,-770,-70,,,,,,,0x03,
13984,-25,-50,1001,-490,-630,-70,,,,,,,0x03,
13994,-27,-52,999,-630,-700,70,,,,,,,0x03,
14003,-29,-54,997,-630,-770,70,,,,,,,0x03,
14013,-29,-54,996,-630,-770,0,,,,,,,0x03,
14022,-28,-55,998,-630,-700,70,,,,,,,0x03,
14032,-27,-58,997,-700,-700,70,,,,,,,0x03,
14042,-25,-59,997,-560,-770,0,,,,,,,0x03,
14051,-26,-59,999,-210,-840,-70,,,,,,,0x03,
14061,-25,-57,999,280,-840,-210,,,,,,,0x03,
14071,-23,-53,998,560,-840,-280,,,,,,,0x03,
14080,-26,-55,997,560,-770,-280,,,,,,,0x03,
14090,-28,-53,1001,560,-770,-280,,,,,,,0x03,
