#Format version: 1.0
time[ms],accX[mg],accY[mg],accZ[mg],gyroX[mdps],gyroY[mdps],gyroZ[mdps],magnX[mG],magnY[mG],magnZ[mG],press[hPa],temp[°C],hum[0,-1021,104,-1,33950,12250,-10570,,,,,,,0x03,
10,-1024,70,-13,34300,12180,-19810,,,,,,,0x03,
19,-1037,67,-33,25410,10990,-28210,,,,,,,0x03,
29,-1035,81,-26,17430,12460,-34370,,,,,,,0x03,
39,-1031,86,-28,9310,13440,-36960,,,,,,,0x03,
48,-1023,83,-28,1610,13720,-37590,,,,,,,0x03,
58,-1007,87,-7,-5320,14000,-38430,,,,,,,0x03,
68,-995,85,-7,-12180,12950,-39690,,,,,,,0x03,
77,-993,70,-24,-15050,10220,-41860,,,,,,,0x03,
87,-999,42,-31,-14140,7210,-45150,,,,,,,0x03,
97,-1000,0,-25,-11340,4690,-48860,,,,,,,0x03,
106,-992,-43,-14,-5180,4130,-53900,,,,,,,0x03,
116,-983,-48,1,1260,5600,-59710,,,,,,,0x03,
126,-976,-29,16,5740,9240,-63000,,,,,,,0x03,
135,-972,-15,22,7560,13510,-61250,,,,,,,0x03,
145,-968,-15,13,8330,17850,-55720,,,,,,,0x03,
155,-961,-12,8,10640,21700,-50820,,,,,,,0x03,
164,-951,6,-17,13440,23450,-48230,,,,,,,0x03,
174,-945,20,-55,16170,23660,-45360,,,,,,,0x03,
184,-953,17,-82,18620,22680,-42910,,,,,,,0x03,
193,-962,17,-77,20580,20860,-42070,,,,,,,0x03,
203,-975,17,-67,19740,20160,-40740,,,,,,,0x03,
213,-986,14,-62,18830,20510,-39340,,,,,,,0x03,
222,-1004,9,-62,18270,21140,-38360,,,,,,,0x03,
232,-999,14,-68,16520,22190,-38360,,,,,,,0x03,
242,-977,13,-96,14560,23310,-39060,,,,,,,0x03,
251,-952,27,-119,13230,23660,-41440,,,,,,,0x03,
261,-937,40,-141,8680,22470,-43330,,,,,,,0x03,
271,-935,33,-157,3920,20860,-43750,,,,,,,0x03,
280,-947,10,-174,140,20300,-43540,,,,,,,0x03,
290,-956,9,-201,-2870,21070,-43260,,,,,,,0x03,
300,-961,31,-219,-6930,23590,-41440,,,,,,,0x03,
309,-953,48,-235,-15820,27160,-35070,,,,,,,0x03,
319,-963,40,-224,-24360,31780,-25620,,,,,,,0x03,
329,-939,19,-204,-32130,34860,-15470,,,,,,,0x03,
338,-925,15,-178,-36960,33950,-7000,,,,,,,0x03,
348,-918,-8,-155,-38710,31990,-3430,,,,,,,0x03,
358,-930,-11,-125,-34370,31710,-1190,,,,,,,0x03,
368,-932,-13,-97,-30170,24500,4550,,,,,,,0x03,
377,-966,-71,-103,-27860,19110,8330,,,,,,,0x03,
387,-969,-79,-63,-17360,22680,5950,,,,,,,0x03,
397,-923,-70,7,-10640,21560,4620,,,,,,,0x03,
406,-958,-21,-5,4900,20930,3010,,,,,,,0x03,
416,-964,0,-36,21210,29750,1890,,,,,,,0x03,
426,-972,-17,7,24220,41650,7770,,,,,,,0x03,
435,-973,-92,107,10640,44940,15960,,,,,,,0x03,
445,-989,-153,226,3360,37590,16450,,,,,,,0x03,
455,-1031,-180,289,5530,22400,10430,,,,,,,0x03,
464,-1112,-192,255,15050,12810,3850,,,,,,,0x03,
474,-1175,-166,189,30030,12250,-840,,,,,,,0x03,
484,-1195,-124,125,41440,16380,-1260,,,,,,,0x03,
493,-1177,-68,87,48790,18270,-210,,,,,,,0x03,
503,-1158,-27,57,59920,15470,0,,,,,,,0x03,
513,-1158,1,15,77700,11270,-1050,,,,,,,0x03,
522,-1152,29,-48,95060,8750,-2170,,,,,,,0x03,
532,-1136,37,-107,105280,7700,-2030,,,,,,,0x03,
542,-1114,12,-132,106680,7700,-560,,,,,,,0x03,
551,-1079,-40,-120,104370,7490,-280,,,,,,,0x03,
561,-1046,-64,-116,103180,5670,-5740,,,,,,,0x03,
571,-1020,-40,-130,100310,3220,-13230,,,,,,,0x03,
580,-988,17,-157,91140,630,-16870,,,,,,,0x03,
590,-952,77,-172,78400,-2660,-11900,,,,,,,0x03,
600,-905,109,-170,67200,-4410,-6510,,,,,,,0x03,
609,-846,131,-148,57540,-7560,-2100,,,,,,,0x03,
619,-665,207,-155,48370,-10080,-350,,,,,,,0x03,
629,-945,135,-56,40110,-17640,6930,,,,,,,0x03,
638,-908,119,-74,15890,-23100,13440,,,,,,,0x03,
648,-878,104,-94,2240,-22680,19180,,,,,,,0x03,
658,-884,71,-69,-840,-16730,22190,,,,,,,0x03,
667,-880,69,-44,-6860,-10290,21770,,,,,,,0x03,
677,-878,78,-16,-14280,-4550,21560,,,,,,,0x03,
687,-875,89,14,-21490,-1540,22610,,,,,,,0x03,
696,-857,101,105,-31780,-420,24430,,,,,,,0x03,
706,-872,90,160,-48090,1400,29120,,,,,,,0x03,
716,-945,47,87,-60760,2170,34230,,,,,,,0x03,
725,-1032,-8,-45,-68740,7980,37240,,,,,,,0x03,
735,-1098,-58,-155,-73990,19740,37800,,,,,,,0x03,
745,-1151,-103,-233,-72730,30800,35980,,,,,,,0x03,
754,-1191,-140,-262,-62230,36890,30310,,,,,,,0x03,
764,-1233,-164,-243,-45920,38080,23030,,,,,,,0x03,
774,-1284,-208,-210,-27930,37240,18200,,,,,,,0x03,
783,-1309,-262,-187,-9940,35350,14560,,,,,,,0x03,
793,-1265,-286,-168,2520,33040,7700,,,,,,,0x03,
803,-1217,-270,-192,9170,27440,-2590,,,,,,,0x03,
812,-1170,-203,-241,15120,18130,-12600,,,,,,,0x03,
822,-1102,-75,-268,18970,11200,-18270,,,,,,,0x03,
832,-1029,48,-256,16940,3080,-16240,,,,,,,0x03,
841,-986,119,-215,11900,-4830,-9520,,,,,,,0x03,
851,-971,142,-155,5110,-11200,-490,,,,,,,0x03,
861,-974,124,-129,-4900,-16520,10150,,,,,,,0x03,
870,-978,83,-111,-16520,-19250,19600,,,,,,,0x03,
880,-992,29,-110,-26810,-21000,24780,,,,,,,0x03,
890,-1002,-1,-120,-28980,-23450,23030,,,,,,,0x03,
899,-1019,-26,-121,-26460,-24920,17710,,,,,,,0x03,
909,-1018,-54,-132,-21560,-24640,11480,,,,,,,0x03,
919,-986,-49,-131,-14560,-21700,3430,,,,,,,0x03,
928,-950,-16,-135,-10850,-17640,-5180,,,,,,,0x03,
938,-929,18,-147,-10360,-14420,-11480,,,,,,,0x03,
948,-920,44,-151,-11970,-11760,-14420,,,,,,,0x03,
957,-906,74,-142,-15890,-9520,-13930,,,,,,,0x03,
967,-891,108,-133,-23100,-8960,-10850,,,,,,,0x03,
977,-892,119,-135,-32690,-10080,-4830,,,,,,,0x03,
986,-918,84,-148,-39270,-10920,2660,,,,,,,0x03,
996,-925,57,-117,-42070,-9450,7280,,,,,,,0x03,
1006,-922,66,-86,-49070,-8190,10430,,,,,,,0x03,
1015,-939,81,-83,-55370,-7980,14560,,,,,,,0x03,
1025,-956,59,-89,-58100,-7770,19110,,,,,,,0x03,
1035,-964,8,-80,-57330,-7350,20720,,,,,,,0x03,
1044,-1016,-81,-68,-59640,-7140,14700,,,,,,,0x03,
1054,-1080,-102,-85,-56280,-9100,3780,,,,,,,0x03,
1064,-1120,-109,-99,-41580,-9450,-4060,,,,,,,0x03,
1074,-1124,-85,-79,-25340,-7210,-10010,,,,,,,0x03,
1083,-1112,-71,-75,-11900,-4690,-13230,,,,,,,0x03,
1093,-1122,-76,-83,-1050,-3640,-16030,,,,,,,0x03,
1103,-1141,-85,-93,7910,-4060,-18550,,,,,,,0x03,
1112,-1152,-91,-91,16380,-4900,-19600,,,,,,,0x03,
1122,-1165,-114,-85,22330,-6930,-19810,,,,,,,0x03,
1132,-1179,-139,-76,27650,-11690,-19740,,,,,,,0x03,
1141,-1176,-137,-46,39620,-17710,-21350,,,,,,,0x03,
1151,-1166,-120,-21,56770,-24360,-22540,,,,,,,0x03,
1161,-1139,-72,14,72240,-30660,-21770,,,,,,,0x03,
1170,-1091,-6,27,80570,-36190,-17850,,,,,,,0x03,
1180,-1052,28,0,86310,-40250,-11550,,,,,,,0x03,
1190,-1009,42,-35,94500,-42210,-6370,,,,,,,0x03,
1199,-972,51,-81,99820,-41440,-4690,,,,,,,0x03,
1209,-937,63,-129,100310,-40180,-5040,,,,,,,0x03,
1219,-937,105,-201,102340,-38290,-7840,,,,,,,0x03,
1228,-939,192,-275,107660,-34440,-7560,,,,,,,0x03,
1238,-913,276,-304,101780,-29610,2800,,,,,,,0x03,
1248,-856,338,-269,82320,-26320,21700,,,,,,,0x03,
1257,-810,347,-207,62580,-29050,41020,,,,,,,0x03,
1267,-804,259,-143,50610,-37100,56350,,,,,,,0x03,
1277,-817,168,-85,46200,-45220,63560,,,,,,,0x03,
1286,-815,159,-31,45080,-49490,64750,,,,,,,0x03,
1296,-801,208,10,41930,-50750,66150,,,,,,,0x03,
1306,-798,252,17,31990,-50680,71610,,,,,,,0x03,
1315,-810,260,8,19810,-48090,79100,,,,,,,0x03,
1325,-840,218,1,9940,-42770,84980,,,,,,,0x03,
1335,-888,144,3,3920,-35560,86870,,,,,,,0x03,
1344,-949,53,6,1050,-27440,84630,,,,,,,0x03,
1354,-998,-20,6,-210,-19040,80010,,,,,,,0x03,
1364,-1007,-28,7,1540,-11340,73010,,,,,,,0x03,
1373,-978,42,0,6230,-6020,65590,,,,,,,0x03,
1383,-939,127,-9,9870,-2170,61460,,,,,,,0x03,
1393,-910,167,-14,10360,-70,61530,,,,,,,0x03,
1402,-899,152,-3,8890,560,63140,,,,,,,0x03,
1412,-903,116,11,6650,-70,64120,,,,,,,0x03,
1422,-919,79,27,5880,-1820,62020,,,,,,,0x03,
1431,-927,57,38,5880,-4130,58380,,,,,,,0x03,
1441,-911,60,56,7770,-6160,53410,,,,,,,0x03,
1451,-879,81,70,8750,-7630,47880,,,,,,,0x03,
1460,-851,81,72,5460,-7140,43190,,,,,,,0x03,
1470,-829,72,80,-980,-5530,38010,,,,,,,0x03,
1480,-818,74,90,-8050,-2800,30310,,,,,,,0x03,
1489,-816,85,104,-15680,490,21700,,,,,,,0x03,
1499,-815,83,112,-26670,3850,14420,,,,,,,0x03,
1509,-805,69,135,-40180,6720,7490,,,,,,,0x03,
1518,-779,70,246,-57680,7560,0,,,,,,,0x03,
1528,-755,118,410,-78330,5530,-6300,,,,,,,0x03,
1538,-834,183,277,-82880,7210,-12670,,,,,,,0x03,
1547,-927,148,153,-76020,15050,-12600,,,,,,,0x03,
1557,-1033,53,68,-75600,18690,-10990,,,,,,,0x03,
1567,-1106,68,-43,-57470,23520,-20510,,,,,,,0x03,
1576,-1132,152,-119,-24920,35140,-30940,,,,,,,0x03,
1586,-1142,208,-104,-2590,40460,-32830,,,,,,,0x03,
1596,-1162,202,-52,10710,35420,-30170,,,,,,,0x03,
1605,-1219,118,-4,22750,29820,-27720,,,,,,,0x03,
1615,-1290,17,23,31080,27510,-28280,,,,,,,0x03,
1625,-1350,-37,-5,40670,29050,-32410,,,,,,,0x03,
1634,-1358,-1,-53,52010,32340,-36260,,,,,,,0x03,
1644,-1296,93,-78,56700,35070,-35350,,,,,,,0x03,
1654,-1221,198,-82,55370,32830,-28560,,,,,,,0x03,
1663,-1166,255,-90,46410,26250,-17290,,,,,,,0x03,
1673,-1135,258,-76,37520,19110,-3640,,,,,,,0x03,
1683,-1130,237,-82,38570,12040,6580,,,,,,,0x03,
1692,-1128,222,-39,47600,8050,11480,,,,,,,0x03,
1702,-1126,192,14,53410,4830,13720,,,,,,,0x03,
1712,-1153,159,1,57540,2450,12530,,,,,,,0x03,
1721,-1178,132,-29,59500,4060,10220,,,,,,,0x03,
1731,-1177,112,-76,61320,7420,6370,,,,,,,0x03,
1741,-1162,106,-103,61670,11620,1750,,,,,,,0x03,
1750,-1151,113,-143,61250,15820,-3220,,,,,,,0x03,
1760,-1138,135,-172,63560,19250,-7910,,,,,,,0x03,
1770,-1122,146,-168,64120,20370,-10150,,,,,,,0x03,
1780,-1113,117,-135,63210,18060,-11270,,,,,,,0x03,
1789,-1108,85,-109,61740,16240,-13580,,,,,,,0x03,
1799,-1110,76,-160,60200,14280,-17080,,,,,,,0x03,
1809,-1074,115,-193,61810,12810,-19810,,,,,,,0x03,
1818,-1024,147,-174,63280,10220,-19600,,,,,,,0x03,
1828,-994,154,-160,60480,4130,-17430,,,,,,,0x03,
1838,-973,141,-158,53900,-2520,-14770,,,,,,,0x03,
1847,-964,126,-152,47740,-7840,-12530,,,,,,,0x03,
1857,-953,125,-135,41020,-11970,-11130,,,,,,,0x03,
1867,-945,134,-131,29330,-16100,-7420,,,,,,,0x03,
1876,-939,132,-110,21210,-18690,-4900,,,,,,,0x03,
1886,-949,131,-102,20230,-20160,-5250,,,,,,,0x03,
1896,-964,126,-132,19180,-21840,-6440,,,,,,,0x03,
1905,-967,134,-150,13720,-22680,-6510,,,,,,,0x03,
1915,-962,137,-139,6160,-21980,-5460,,,,,,,0x03,
1925,-954,129,-136,3220,-22120,-5320,,,,,,,0x03,
1934,-926,141,-103,2940,-22680,-6580,,,,,,,0x03,
1944,-896,168,-72,-140,-21700,-8470,,,,,,,0x03,
1954,-867,206,-36,1610,-21560,-10290,,,,,,,0x03,
1963,-842,223,-22,3500,-22050,-10570,,,,,,,0x03,
1973,-826,225,-34,3290,-24220,-8400,,,,,,,0x03,
1983,-791,254,-23,3570,-27090,-5460,,,,,,,0x03,
1992,-752,304,-3,280,-28350,-2030,,,,,,,0x03,
2002,-727,343,7,-9870,-27860,4340,,,,,,,0x03,
2012,-717,352,8,-21770,-25970,13160,,,,,,,0x03,
2021,-728,315,20,-31640,-23450,21770,,,,,,,0x03,
2031,-747,244,74,-39130,-20370,28280,,,,,,,0x03,
2041,-784,172,92,-42350,-16730,29190,,,,,,,0x03,
2050,-852,122,41,-37590,-12460,24710,,,,,,,0x03,
2060,-922,83,-29,-29960,-6580,17990,,,,,,,0x03,
2070,-998,36,-56,-27720,-1330,9730,,,,,,,0x03,
2079,-1082,-3,-36,-31430,3710,-560,,,,,,,0x03,
2089,-1158,-21,-3,-33390,7210,-12320,,,,,,,0x03,
2099,-1235,-8,-30,-30310,9170,-22260,,,,,,,0x03,
2108,-1282,22,-108,-24290,9170,-28700,,,,,,,0x03,
2118,-1262,54,-133,-18830,9450,-28840,,,,,,,0x03,
2128,-1215,82,-115,-18970,5810,-25270,,,,,,,0x03,
2137,-1173,101,-85,-18130,490,-22120,,,,,,,0x03,
2147,-1122,103,-59,-14490,-4480,-17150,,,,,,,0x03,
2157,-1060,89,-24,-5460,-10360,-12950,,,,,,,0x03,
2166,-1017,88,0,5880,-14980,-11690,,,,,,,0x03,
2176,-991,112,6,11550,-18970,-11270,,,,,,,0x03,
2186,-978,140,-4,12390,-21980,-9310,,,,,,,0x03,
2195,-965,172,9,14490,-22400,-7700,,,,,,,0x03,
2205,-951,190,33,11480,-21560,-4970,,,,,,,0x03,
2215,-937,184,40,6230,-20580,-2520,,,,,,,0x03,
2224,-930,161,42,4900,-17150,-2730,,,,,,,0x03,
2234,-922,127,34,4620,-14630,-4200,,,,,,,0x03,
2244,-911,114,33,4970,-11970,-7770,,,,,,,0x03,
2253,-902,121,27,3430,-9310,-12390,,,,,,,0x03,
2263,-901,139,15,1610,-7490,-16310,,,,,,,0x03,
2273,-900,157,14,-910,-5810,-18410,,,,,,,0x03,
2282,-895,179,15,-4270,-4830,-18620,,,,,,,0x03,
2292,-899,183,24,-7840,-3920,-17290,,,,,,,0x03,
2302,-920,153,23,-11480,-3500,-14700,,,,,,,0x03,
2311,-946,111,5,-10850,-3920,-14140,,,,,,,0x03,
2321,-964,95,-11,-9520,-3500,-16100,,,,,,,0x03,
2331,-970,102,-15,-10220,-2380,-17640,,,,,,,0x03,
2340,-965,117,-19,-10570,-1330,-17570,,,,,,,0x03,
2350,-956,116,-27,-11550,-1260,-15820,,,,,,,0x03,
2360,-940,102,-11,-12600,-1680,-13090,,,,,,,0x03,
2369,-925,87,22,-12180,-630,-10500,,,,,,,0x03,
2379,-917,77,41,-8680,1120,-8680,,,,,,,0x03,
2389,-920,63,27,-4760,2100,-7350,,,,,,,0x03,
2398,-928,40,8,-1400,2450,-7210,,,,,,,0x03,
2408,-934,30,-6,490,3640,-8750,,,,,,,0x03,
2418,-927,46,1,2100,5250,-10780,,,,,,,0x03,
2427,-918,84,9,3990,6790,-12460,,,,,,,0x03,
2437,-910,127,20,5110,6720,-13090,,,,,,,0x03,
2447,-907,141,56,2170,6720,-10710,,,,,,,0x03,
2456,-919,137,82,-2170,7770,-7560,,,,,,,0x03,
2466,-940,141,70,-3920,7980,-6090,,,,,,,0x03,
2476,-971,138,39,-2520,8190,-4970,,,,,,,0x03,
2486,-1000,112,11,140,10570,-2730,,,,,,,0x03,
2495,-1015,76,-3,1260,13790,-210,,,,,,,0x03,
2505,-1019,40,7,2450,15540,630,,,,,,,0x03,
2515,-1024,7,24,3500,14630,-700,,,,,,,0x03,
2524,-1033,-16,32,3920,13440,-2870,,,,,,,0x03,
2534,-1045,-30,-2,5810,12600,-5670,,,,,,,0x03,
2544,-1071,-34,-51,11760,12390,-9170,,,,,,,0x03,
2553,-1088,-34,-87,15330,13300,-10710,,,,,,,0x03,
2563,-1088,-28,-106,18200,14280,-11970,,,,,,,0x03,
2573,-1069,1,-102,20720,14910,-13860,,,,,,,0x03,
2582,-1043,37,-76,21840,14700,-14070,,,,,,,0x03,
2592,-1026,53,-56,22400,14420,-12110,,,,,,,0x03,
2602,-1008,49,-40,22890,13930,-9660,,,,,,,0x03,
2611,-984,51,-20,22680,13650,-8470,,,,,,,0x03,
2621,-963,65,-6,23450,13370,-8400,,,,,,,0x03,
2631,-949,85,8,24220,12740,-8120,,,,,,,0x03,
2640,-951,99,22,25970,12390,-6720,,,,,,,0x03,
2650,-969,95,26,28210,12390,-3780,,,,,,,0x03,
2660,-997,73,13,29050,12250,280,,,,,,,0x03,
2669,-1024,32,-12,27720,12110,4130,,,,,,,0x03,
2679,-1054,1,-47,27440,12250,5320,,,,,,,0x03,
2689,-1065,-9,-78,27440,12670,4970,,,,,,,0x03,
2698,-1059,-1,-102,28490,12950,3290,,,,,,,0x03,
2708,-1036,22,-115,30240,13160,210,,,,,,,0x03,
2718,-1019,58,-131,29190,11620,-2170,,,,,,,0x03,
2727,-995,93,-115,24290,8820,-1960,,,,,,,0x03,
2737,-986,117,-88,17430,5880,630,,,,,,,0x03,
2747,-996,129,-89,13230,4200,3500,,,,,,,0x03,
2756,-1004,121,-79,6230,2450,8260,,,,,,,0x03,
2766,-1017,90,-61,-770,210,11970,,,,,,,0x03,
2776,-1030,52,-47,-2240,-2310,12110,,,,,,,0x03,
2785,-1034,22,-45,-980,-3150,10010,,,,,,,0x03,
2795,-1022,21,-69,2310,-2940,7140,,,,,,,0x03,
2805,-990,45,-72,6930,-1750,4620,,,,,,,0x03,
2814,-947,69,-58,7910,-280,4480,,,,,,,0x03,
2824,-924,83,-74,8330,420,5250,,,,,,,0x03,
2834,-906,84,-80,9730,1820,5880,,,,,,,0x03,
2843,-894,75,-83,9520,2730,5880,,,,,,,0x03,
2853,-894,77,-81,9030,3010,4550,,,,,,,0x03,
2863,-894,88,-63,7910,2800,3570,,,,,,,0x03,
2872,-890,97,-34,5740,2590,3080,,,,,,,0x03,
2882,-892,108,-9,2870,3010,2450,,,,,,,0x03,
2892,-910,119,-21,1330,4200,2240,,,,,,,0x03,
2901,-930,113,-37,910,6790,2730,,,,,,,0x03,
2911,-953,83,-49,-980,10430,3150,,,,,,,0x03,
2921,-983,40,-72,-2310,13860,2520,,,,,,,0x03,
2930,-1013,3,-114,-3430,17570,630,,,,,,,0x03,
2940,-1033,-13,-134,-5810,19880,-490,,,,,,,0x03,
2950,-1041,-19,-120,-8960,21280,-350,,,,,,,0x03,
2959,-1042,-8,-94,-8190,20440,-1050,,,,,,,0x03,
2969,-1038,14,-42,-4760,17780,560,,,,,,,0x03,
2979,-1033,38,14,-2730,14630,4830,,,,,,,0x03,
2988,-1042,49,19,2800,13720,8610,,,,,,,0x03,
2998,-1070,41,-37,13160,15260,10010,,,,,,,0x03,
3008,-1098,17,-112,23870,15050,9800,,,,,,,0x03,
3017,-1119,-3,-161,28000,13930,8610,,,,,,,0x03,
3027,-1136,0,-189,25340,13020,6930,,,,,,,0x03,
3037,-1134,13,-194,21630,12460,5530,,,,,,,0x03,
3046,-1114,30,-186,17080,12600,5460,,,,,,,0x03,
3056,-1078,52,-173,13860,11760,5810,,,,,,,0x03,
3066,-1042,77,-155,11760,9100,6860,,,,,,,0x03,
3075,-1014,108,-126,9870,4620,8750,,,,,,,0x03,
3085,-986,135,-99,8540,770,11550,,,,,,,0x03,
3095,-958,161,-69,10150,-1540,14000,,,,,,,0x03,
3104,-940,172,-44,13090,-2450,16170,,,,,,,0x03,
3114,-942,158,-67,16100,-3640,17850,,,,,,,0x03,
3124,-943,144,-93,16800,-4690,18130,,,,,,,0x03,
3133,-941,132,-102,12250,-4760,17150,,,,,,,0x03,
3143,-945,124,-109,6930,-4060,14490,,,,,,,0x03,
3153,-952,115,-112,1330,-3290,11410,,,,,,,0x03,
3162,-958,102,-118,-4760,-2660,8960,,,,,,,0x03,
3172,-957,96,-118,-8190,-1750,6720,,,,,,,0x03,
3182,-953,99,-125,-10430,-1260,5390,,,,,,,0x03,
3192,-931,107,-100,-11340,-1120,5390,,,,,,,0x03,
3201,-910,121,-53,-8540,-630,5950,,,,,,,0x03,
3211,-920,122,-63,-700,-280,6370,,,,,,,0x03,
3221,-942,103,-95,2940,-140,9100,,,,,,,0x03,
3230,-976,62,-137,1750,-280,12460,,,,,,,0x03,
3240,-1012,34,-161,420,1120,13090,,,,,,,0x03,
3250,-1037,27,-169,210,3570,11130,,,,,,,0x03,
3259,-1053,45,-165,-910,5880,8330,,,,,,,0x03,
3269,-1055,74,-156,-3150,7350,6160,,,,,,,0x03,
3279,-1048,93,-146,-5670,7070,5110,,,,,,,0x03,
3288,-1027,112,-131,-7630,6020,4550,,,,,,,0x03,
3298,-1003,142,-120,-9660,3710,4900,,,,,,,0x03,
3308,-960,184,-49,-10430,1540,6230,,,,,,,0x03,
3317,-931,218,13,-6370,700,7070,,,,,,,0x03,
3327,-937,218,26,2730,980,6650,,,,,,,0x03,
3337,-974,181,-33,3500,140,7140,,,,,,,0x03,
3346,-1028,129,-109,-4620,0,6440,,,,,,,0x03,
3356,-1077,85,-130,-16520,2940,4760,,,,,,,0x03,
3366,-1118,67,-111,-22680,6790,1050,,,,,,,0x03,
3375,-1164,55,-101,-27440,8960,-1750,,,,,,,0x03,
3385,-1207,28,-83,-31290,9590,-4410,,,,,,,0x03,
3395,-1258,-6,-43,-32620,8260,-7840,,,,,,,0x03,
3404,-1321,-41,-26,-34930,3990,-10780,,,,,,,0x03,
3414,-1377,-59,-20,-28840,-2520,-14140,,,,,,,0x03,
3424,-1442,-78,-58,-19320,-10080,-15820,,,,,,,0x03,
3433,-1488,-103,-112,-12880,-15820,-16100,,,,,,,0x03,
3443,-1497,-104,-153,-5600,-21210,-17570,,,,,,,0x03,
3453,-1461,-76,-162,3990,-25410,-19810,,,,,,,0x03,
3462,-1385,-16,-177,13860,-27510,-20720,,,,,,,0x03,
3472,-1293,20,-210,27930,-27440,-21770,,,,,,,0x03,
3482,-1194,32,-220,35770,-30870,-18690,,,,,,,0x03,
3491,-1088,16,-218,38430,-36610,-16590,,,,,,,0x03,
3501,-988,27,-196,41020,-39900,-18900,,,,,,,0x03,
3511,-899,66,-183,44240,-41160,-23170,,,,,,,0x03,
3520,-818,98,-200,55510,-39270,-30310,,,,,,,0x03,
3530,-722,185,-200,69300,-32760,-39130,,,,,,,0x03,
3540,-613,278,-198,80150,-21770,-44730,,,,,,,0x03,
3549,-504,360,-214,79940,-9870,-45640,,,,,,,0x03,
3559,-399,424,-205,70490,280,-42000,,,,,,,0x03,
3569,-340,416,-235,48090,4620,-30870,,,,,,,0x03,
3578,-263,432,-163,29750,10850,-19810,,,,,,,0x03,
3588,-248,357,-216,11060,14700,-7770,,,,,,,0x03,
3598,-263,292,-163,16590,21980,-2590,,,,,,,0x03,
3607,-383,249,-171,21630,25760,-6650,,,,,,,0x03,
3617,-344,304,-149,15750,23380,-7490,,,,,,,0x03,
3627,-403,357,-18,-8190,25480,-4830,,,,,,,0x03,
3636,-425,385,52,-64400,13510,8260,,,,,,,0x03,
3646,-597,312,65,-83650,-9030,13440,,,,,,,0x03,
3656,-840,178,238,-67340,-14560,9800,,,,,,,0x03,
3665,-1178,-42,222,-74690,-19040,14840,,,,,,,0x03,
3675,-1498,-331,87,-98210,-16170,20440,,,,,,,0x03,
3685,-1796,-623,28,-102480,-6510,12110,,,,,,,0x03,
3694,-1989,-818,-159,-85400,13440,490,,,,,,,0x03,
3704,-1997,-447,-258,-36820,30660,-3010,,,,,,,0x03,
3714,-1762,-299,-113,24080,20790,-38850,,,,,,,0x03,
3723,-1617,-252,-117,42490,560,-63630,,,,,,,0x03,
3733,-1550,-223,-139,36400,-19250,-70630,,,,,,,0x03,
3743,-1462,-149,-122,36050,-26180,-72730,,,,,,,0x03,
3752,-1349,-60,-68,33180,-27090,-65450,,,,,,,0x03,
3762,-1252,-18,-58,28770,-24710,-51590,,,,,,,0x03,
3772,-1147,27,-63,28420,-21770,-39900,,,,,,,0x03,
3781,-1023,88,-59,24220,-23660,-30240,,,,,,,0x03,
3791,-922,134,-44,15260,-29400,-22260,,,,,,,0x03,
3801,-861,168,-18,8330,-34720,-15610,,,,,,,0x03,
3810,-823,182,-5,4480,-36960,-7070,,,,,,,0x03,
3820,-765,193,-11,3220,-35350,490,,,,,,,0x03,
3830,-690,218,-1,3500,-32550,6790,,,,,,,0x03,
3839,-642,235,-33,1610,-30450,13860,,,,,,,0x03,
3849,-599,241,-66,1960,-30660,20510,,,,,,,0x03,
3859,-534,249,-92,-1820,-33670,26740,,,,,,,0x03,
3868,-476,259,-122,-9800,-38010,29890,,,,,,,0x03,
3878,-412,266,-132,-20440,-43050,28980,,,,,,,0x03,
3888,-400,259,-143,-38360,-48790,29260,,,,,,,0x03,
3898,-433,256,-177,-56490,-44660,30170,,,,,,,0x03,
3907,-564,194,-152,-67060,-32200,22470,,,,,,,0x03,
3917,-452,116,35,-61390,-11970,11130,,,,,,,0x03,
3927,-183,177,493,-77420,-2590,14280,,,,,,,0x03,
3936,-510,223,324,-90440,-37030,-6510,,,,,,,0x03,
3946,-1064,340,-537,-77490,-73500,-34440,,,,,,,0x03,
3956,-1182,386,-837,-90440,-35980,-14140,,,,,,,0x03,
3965,-1203,216,-88,-115780,71050,43470,,,,,,,0x03,
3975,-1175,-402,794,-147420,123620,88480,,,,,,,0x03,
3985,-1573,-940,589,-129360,75180,77140,,,,,,,0x03,
3994,-1991,-1220,-156,-77210,4550,24010,,,,,,,0x03,
4004,-1951,-572,-537,-13160,58240,-29960,,,,,,,0x03,
4014,-1552,-200,55,74830,80990,-79660,,,,,,,0x03,
4023,-1385,-13,15,58660,33320,-75880,,,,,,,0x03,
4033,-1352,-43,-172,29680,-2730,-73010,,,,,,,0x03,
4043,-1341,-94,-163,21630,-20160,-66500,,,,,,,0x03,
4052,-1347,-149,-112,22960,-25760,-52500,,,,,,,0x03,
4062,-1332,-184,-76,32270,-24080,-41160,,,,,,,0x03,
4072,-1260,-106,-115,47110,-13160,-32130,,,,,,,0x03,
4081,-1091,70,-118,63070,-70,-18900,,,,,,,0x03,
4091,-840,209,-32,67480,2800,-2100,,,,,,,0x03,
4101,-729,232,-79,61040,-9590,7140,,,,,,,0x03,
4110,-673,241,-162,57960,-22470,7560,,,,,,,0x03,
4120,-597,293,-163,45290,-25270,11900,,,,,,,0x03,
4130,-475,389,-42,16590,-24290,22610,,,,,,,0x03,
4139,-347,355,183,-15820,-30380,32690,,,,,,,0x03,
4149,-380,295,218,-55020,-38710,49770,,,,,,,0x03,
4159,-429,152,282,-98490,-41020,59360,,,,,,,0x03,
4168,-538,170,399,-138530,-39060,49490,,,,,,,0x03,
4178,-960,106,-96,-136500,-52570,9870,,,,,,,0x03,
4188,-1029,255,-565,-139370,-58240,11480,,,,,,,0x03,
4197,-996,341,-651,-121310,15050,45710,,,,,,,0x03,
4207,-949,180,-2,-125580,96880,78960,,,,,,,0x03,
4217,-1215,-318,582,-194110,126490,103250,,,,,,,0x03,
4226,-1599,-812,722,-183470,102340,85820,,,,,,,0x03,
4236,-1921,-944,333,-65310,15050,36470,,,,,,,0x03,
4246,-1672,-534,-236,41650,13300,-25900,,,,,,,0x03,
4255,-1393,-206,-85,83720,7630,-78960,,,,,,,0x03,
4265,-1325,57,-198,48860,-7350,-81970,,,,,,,0x03,
4275,-1301,120,-103,36190,-17640,-63910,,,,,,,0x03,
4284,-1262,47,-33,32130,-15120,-34440,,,,,,,0x03,
4294,-1240,-65,-120,34090,-4550,-7700,,,,,,,0x03,
4304,-1110,-68,-297,46480,8750,5810,,,,,,,0x03,
4313,-931,15,-422,60620,13090,7000,,,,,,,0x03,
4323,-831,86,-493,63490,12390,280,,,,,,,0x03,
4333,-723,184,-378,60550,16870,-980,,,,,,,0x03,
4342,-601,272,-197,52220,21000,5250,,,,,,,0x03,
4352,-461,333,6,38640,9170,13370,,,,,,,0x03,
4362,-374,350,261,16660,-13300,19880,,,,,,,0x03,
4371,-469,284,227,-22330,-42910,26250,,,,,,,0x03,
4381,-567,248,232,-55720,-61040,32900,,,,,,,0x03,
4391,-641,321,357,-96950,-50330,41720,,,,,,,0x03,
4400,-855,333,-137,-126630,-46200,46970,,,,,,,0x03,
4410,-957,310,-238,-135590,-21700,61810,,,,,,,0x03,
4420,-1049,192,-216,-135100,32340,81410,,,,,,,0x03,
4429,-1198,-73,-18,-151270,61880,101780,,,,,,,0x03,
4439,-1361,-403,155,-148750,76090,95550,,,,,,,0x03,
4449,-1616,-606,329,-101990,55160,70910,,,,,,,0x03,
4458,-1756,-631,64,-32550,15610,33670,,,,,,,0x03,
4468,-1413,-335,-47,53480,14770,-19390,,,,,,,0x03,
4478,-1274,-92,-18,91070,4410,-59430,,,,,,,0x03,
4487,-1316,72,-65,77910,-11620,-66500,,,,,,,0x03,
4497,-1337,128,-19,70630,-12530,-53410,,,,,,,0x03,
4507,-1266,130,-84,62510,-6300,-24290,,,,,,,0x03,
4516,-1066,145,-197,66220,-910,-2870,,,,,,,0x03,
4526,-920,173,-262,78470,2870,-4340,,,,,,,0x03,
4536,-812,247,-276,85050,7000,-10500,,,,,,,0x03,
4545,-689,317,-221,75320,8960,-7070,,,,,,,0x03,
4555,-506,392,-8,51520,7770,3710,,,,,,,0x03,
4565,-367,415,249,10220,-9520,16310,,,,,,,0x03,
4574,-497,317,238,-35560,-41510,23520,,,,,,,0x03,
4584,-681,272,-2,-53340,-50540,24220,,,,,,,0x03,
4594,-836,240,-177,-44450,-32900,27300,,,,,,,0x03,
4604,-835,177,-113,-42630,4900,39270,,,,,,,0x03,
4613,-918,39,-49,-72730,22890,51100,,,,,,,0x03,
4623,-1140,-150,-122,-91000,32270,41090,,,,,,,0x03,
4633,-1263,-218,28,-75110,56980,20860,,,,,,,0x03,
4642,-1390,-274,173,-75530,51590,15260,,,,,,,0x03,
4652,-1511,-385,63,-54670,33670,7420,,,,,,,0x03,
4662,-1423,-328,-63,1750,33600,-11130,,,,,,,0x03,
4671,-1340,-206,-113,51520,18830,-28980,,,,,,,0x03,
4681,-1345,-125,-170,79030,-3640,-34300,,,,,,,0x03,
4691,-1284,-30,-138,94080,-10430,-28350,,,,,,,0x03,
4700,-1114,58,-79,97440,-12950,-17500,,,,,,,0x03,
4710,-989,106,-71,94430,-18690,-13370,,,,,,,0x03,
4720,-906,179,-109,98280,-21840,-20650,,,,,,,0x03,
4729,-819,304,-86,106890,-19600,-27930,,,,,,,0x03,
4739,-700,433,30,102620,-12460,-24850,,,,,,,0x03,
4749,-588,524,170,80780,-9170,-14910,,,,,,,0x03,
4758,-543,517,191,52500,-19320,-5670,,,,,,,0x03,
4768,-615,453,49,33950,-34300,-2030,,,,,,,0x03,
4778,-747,374,-166,20720,-42420,840,,,,,,,0x03,
4787,-863,303,-271,1190,-26460,6790,,,,,,,0x03,
4797,-957,207,-187,-30730,10220,14770,,,,,,,0x03,
4807,-1026,83,-56,-65660,40810,20790,,,,,,,0x03,
4816,-1109,-55,50,-81760,46060,20090,,,,,,,0x03,
4826,-1240,-186,45,-78400,30310,13020,,,,,,,0x03,
4836,-1362,-273,-37,-60970,20650,630,,,,,,,0x03,
4845,-1425,-312,-86,-42280,21980,-7000,,,,,,,0x03,
4855,-1402,-320,-96,-24010,22120,-8120,,,,,,,0x03,
4865,-1322,-267,-90,280,12460,-10500,,,,,,,0x03,
4874,-1228,-162,-86,27510,-980,-17150,,,,,,,0x03,
4884,-1135,-36,-70,48510,-12460,-24080,,,,,,,0x03,
4894,-1061,80,-49,59010,-18480,-28490,,,,,,,0x03,
4903,-991,184,-14,65310,-19250,-29470,,,,,,,0x03,
4913,-922,243,6,67200,-18550,-27020,,,,,,,0x03,
4923,-877,286,4,66290,-15680,-23940,,,,,,,0x03,
4932,-856,310,13,60200,-13020,-20370,,,,,,,0x03,
4942,-864,298,9,47600,-11060,-14630,,,,,,,0x03,
4952,-903,243,-11,33390,-7140,-9590,,,,,,,0x03,
4961,-949,154,16,19110,-630,-7770,,,,,,,0x03,
4971,-1009,61,31,1890,3150,-9730,,,,,,,0x03,
4981,-1075,-30,5,-10500,2030,-14140,,,,,,,0x03,
4990,-1147,-108,-47,-15330,0,-20440,,,,,,,0x03,
5000,-1188,-157,-60,-13160,-350,-26600,,,,,,,0x03,
5010,-1174,-181,-27,-6580,-2870,-31570,,,,,,,0x03,
5019,-1170,-173,-33,3500,-8260,-38010,,,,,,,0x03,
5029,-1176,-150,-69,14280,-15400,-43960,,,,,,,0x03,
5039,-1182,-109,-91,27020,-19810,-45080,,,,,,,0x03,
5048,-1154,-55,-78,41090,-21630,-42070,,,,,,,0x03,
5058,-1099,-6,-34,47530,-25550,-36470,,,,,,,0x03,
5068,-1048,40,-19,51100,-29890,-32760,,,,,,,0x03,
5077,-990,106,29,56210,-31850,-31570,,,,,,,0x03,
5087,-937,171,70,56980,-34720,-28070,,,,,,,0x03,
5097,-910,201,71,59010,-37380,-22540,,,,,,,0x03,
5106,-911,187,29,65170,-35420,-18130,,,,,,,0x03,
5116,-901,155,15,64470,-31150,-13930,,,,,,,0x03,
5126,-909,109,0,53200,-28000,-9660,,,,,,,0x03,
5135,-920,65,-13,43190,-24850,-7980,,,,,,,0x03,
5145,-930,24,-3,39130,-20650,-8190,,,,,,,0x03,
5155,-948,-29,10,34930,-17710,-8050,,,,,,,0x03,
5164,-976,-95,0,29400,-16450,-8890,,,,,,,0x03,
5174,-988,-135,4,29120,-15400,-12040,,,,,,,0x03,
5184,-997,-137,-10,33040,-15400,-15890,,,,,,,0x03,
5193,-997,-113,-25,42280,-15260,-18270,,,,,,,0x03,
5203,-991,-94,-29,51450,-14980,-16940,,,,,,,0x03,
5213,-991,-86,-47,55930,-15890,-13790,,,,,,,0x03,
5222,-982,-65,-46,58310,-15820,-10500,,,,,,,0x03,
5232,-964,-32,-37,57190,-16310,-6790,,,,,,,0x03,
5242,-945,-8,-34,54600,-16730,-3150,,,,,,,0x03,
5251,-929,0,-23,53410,-16660,-350,,,,,,,0x03,
5261,-913,6,-19,52570,-16520,1190,,,,,,,0x03,
5271,-901,17,-22,51310,-16030,1400,,,,,,,0x03,
5281,-885,31,-18,47880,-15820,2520,,,,,,,0x03,
5290,-868,44,-8,42560,-15610,4620,,,,,,,0x03,
5300,-856,55,7,36330,-16310,6790,,,,,,,0x03,
5310,-861,52,34,29050,-18900,9940,,,,,,,0x03,
5319,-880,33,55,20930,-22050,13860,,,,,,,0x03,
5329,-912,10,75,15190,-24780,17780,,,,,,,0x03,
5339,-955,-7,85,9520,-27790,22120,,,,,,,0x03,
5348,-998,-30,111,1260,-30870,28280,,,,,,,0x03,
5358,-1044,-64,147,-10640,-34020,34650,,,,,,,0x03,
5368,-1077,-86,186,-20510,-36750,37520,,,,,,,0x03,
5377,-1098,-92,186,-25130,-37170,36750,,,,,,,0x03,
5387,-1089,-93,167,-24150,-36750,33950,,,,,,,0x03,
5397,-1059,-109,158,-23100,-37030,29120,,,,,,,0x03,
5406,-1031,-131,122,-23940,-39130,21910,,,,,,,0x03,
5416,-983,-126,139,-25270,-44100,12880,,,,,,,0x03,
5426,-924,-89,198,-34930,-50400,3990,,,,,,,0x03,
5435,-898,-56,247,-52920,-58520,-2450,,,,,,,0x03,
5445,-869,-39,283,-69650,-68670,-3920,,,,,,,0x03,
5455,-853,-56,312,-87290,-78750,-3080,,,,,,,0x03,
5464,-860,-102,346,-104370,-86100,-2590,,,,,,,0x03,
5474,-866,-150,380,-120470,-92120,-5180,,,,,,,0x03,
5484,-928,-207,390,-136430,-95690,-10710,,,,,,,0x03,
5493,-960,-273,401,-142800,-98350,-15330,,,,,,,0x03,
5503,-988,-353,400,-150570,-102200,-20510,,,,,,,0x03,
5513,-972,-421,452,-162890,-105630,-26530,,,,,,,0x03,
5522,-962,-437,490,-177450,-105700,-34160,,,,,,,0x03,
5532,-939,-373,511,-175840,-98140,-46410,,,,,,,0x03,
5542,-893,-350,478,-159250,-94780,-58800,,,,,,,0x03,
5551,-956,-380,468,-128310,-96600,-67690,,,,,,,0x03,
5561,-946,-383,472,-96740,-97230,-78050,,,,,,,0x03,
5571,-933,-342,495,-81620,-97790,-87920,,,,,,,0x03,
5580,-919,-282,492,-88340,-98140,-92330,,,,,,,0x03,
5590,-910,-221,474,-100450,-96810,-94010,,,,,,,0x03,
5600,-931,-161,406,-107940,-94710,-98980,,,,,,,0x03,
5609,-908,-47,393,-113050,-95060,-106750,,,,,,,0x03,
5619,-900,109,417,-129080,-90160,-105070,,,,,,,0x03,
5629,-911,130,419,-144900,-81480,-85890,,,,,,,0x03,
5638,-914,-2,431,-140210,-70980,-61460,,,,,,,0x03,
5648,-903,-161,468,-121590,-62230,-48510,,,,,,,0x03,
5658,-902,-273,484,-103040,-57260,-46270,,,,,,,0x03,
5667,-912,-330,470,-90370,-53550,-49490,,,,,,,0x03,
5677,-929,-331,444,-80220,-50260,-55230,,,,,,,0x03,
5687,-934,-301,414,-70560,-47460,-59570,,,,,,,0x03,
5696,-928,-275,380,-59010,-43470,-59850,,,,,,,0x03,
5706,-917,-262,356,-44380,-40600,-57260,,,,,,,0x03,
5716,-914,-278,347,-28560,-38500,-53620,,,,,,,0x03,
5725,-905,-297,349,-14070,-35210,-49770,,,,,,,0x03,
5735,-896,-313,337,-1960,-31290,-47740,,,,,,,0x03,
5745,-870,-313,314,10570,-29540,-47810,,,,,,,0x03,
5754,-896,-296,331,22330,-28140,-49140,,,,,,,0x03,
5764,-896,-252,334,28000,-27300,-49350,,,,,,,0x03,
5774,-861,-206,329,30450,-28910,-44940,,,,,,,0x03,
5783,-861,-176,330,30310,-29260,-36050,,,,,,,0x03,
5793,-826,-156,325,31920,-28210,-22400,,,,,,,0x03,
5803,-805,-190,335,23870,-26740,-7070,,,,,,,0x03,
5812,-785,-221,337,9310,-23170,280,,,,,,,0x03,
5822,-791,-224,326,-1890,-19390,2170,,,,,,,0x03,
5832,-798,-230,335,-4550,-16730,3430,,,,,,,0x03,
5841,-803,-241,354,-4690,-14070,6860,,,,,,,0x03,
5851,-802,-268,361,-2800,-12390,10990,,,,,,,0x03,
5861,-781,-305,360,2940,-12040,12530,,,,,,,0x03,
5870,-775,-335,365,8820,-12040,10920,,,,,,,0x03,
5880,-770,-340,373,9940,-11410,8050,,,,,,,0x03,
5890,-756,-326,372,8540,-9870,5880,,,,,,,0x03,
5899,-741,-304,385,7140,-7350,4480,,,,,,,0x03,
5909,-726,-302,399,3710,-4480,6020,,,,,,,0x03,
5919,-721,-305,408,-1960,-1330,8820,,,,,,,0x03,
5928,-719,-333,416,-7700,2660,12740,,,,,,,0x03,
5938,-731,-364,417,-11060,6580,16590,,,,,,,0x03,
5948,-714,-373,418,-8890,9730,16100,,,,,,,0x03,
5957,-707,-354,419,-2520,11900,12110,,,,,,,0x03,
5967,-708,-337,420,3500,11900,9240,,,,,,,0x03,
5977,-701,-328,427,6230,12320,9800,,,,,,,0x03,
5987,-692,-330,438,3290,13930,13510,,,,,,,0x03,
5996,-696,-343,450,-2380,15540,17780,,,,,,,0x03,
6006,-705,-357,458,-7000,16940,19950,,,,,,,0x03,
6016,-708,-358,472,-7770,19950,20790,,,,,,,0x03,
6025,-716,-356,480,-8260,22400,22820,,,,,,,0x03,
6035,-731,-358,477,-7490,24430,25480,,,,,,,0x03,
6045,-744,-360,472,-3640,26530,27650,,,,,,,0x03,
6054,-756,-362,463,70,28840,30520,,,,,,,0x03,
6064,-767,-358,454,1540,31010,33600,,,,,,,0x03,
6074,-775,-353,446,140,32340,36540,,,,,,,0x03,
6083,-777,-351,453,-4340,33040,40110,,,,,,,0x03,
6093,-777,-366,465,-9310,33950,42910,,,,,,,0x03,
6103,-784,-392,467,-11060,35350,44030,,,,,,,0x03,
6112,-800,-415,456,-12600,37870,43960,,,,,,,0x03,
6122,-820,-431,442,-19180,40740,43610,,,,,,,0x03,
6132,-821,-421,438,-31570,42910,43680,,,,,,,0x03,
6141,-820,-394,453,-48440,43820,45500,,,,,,,0x03,
6151,-832,-351,431,-68180,45010,50680,,,,,,,0x03,
6161,-868,-320,445,-82740,43610,57050,,,,,,,0x03,
6170,-893,-276,394,-88690,39130,63980,,,,,,,0x03,
6180,-906,-261,317,-77280,29960,66850,,,,,,,0x03,
6190,-927,-270,265,-52360,20230,63630,,,,,,,0x03,
6199,-943,-286,267,-23030,13510,57890,,,,,,,0x03,
6209,-954,-300,291,-1540,11410,52920,,,,,,,0x03,
6219,-937,-319,319,8750,11060,50190,,,,,,,0x03,
6228,-891,-323,415,17220,12810,46760,,,,,,,0x03,
6238,-881,-301,451,36050,16660,39900,,,,,,,0x03,
6248,-909,-313,411,60900,26250,34370,,,,,,,0x03,
6257,-931,-375,403,62580,40320,33110,,,,,,,0x03,
6267,-905,-447,482,36750,51240,33670,,,,,,,0x03,
6277,-959,-489,511,5950,53410,27720,,,,,,,0x03,
6286,-1002,-447,449,-16660,50540,16170,,,,,,,0x03,
6296,-1019,-381,423,-26250,45150,8890,,,,,,,0x03,
6306,-1037,-350,425,-27090,37660,6230,,,,,,,0x03,
6315,-1064,-349,443,-27300,30450,8400,,,,,,,0x03,
6325,-1074,-362,465,-28420,20230,13790,,,,,,,0x03,
6335,-1099,-389,432,-22470,7070,19950,,,,,,,0x03,
6344,-1118,-409,335,-2310,0,23240,,,,,,,0x03,
6354,-1128,-422,235,23030,4130,23100,,,,,,,0x03,
6364,-1104,-401,159,40670,13580,19670,,,,,,,0x03,
6373,-1046,-341,148,49140,20580,14910,,,,,,,0x03,
6383,-998,-270,190,49840,21490,11620,,,,,,,0x03,
6393,-966,-225,246,43610,16170,10360,,,,,,,0x03,
6402,-955,-213,295,34020,8330,12390,,,,,,,0x03,
6412,-955,-216,320,26950,2590,14560,,,,,,,0x03,
6422,-966,-219,315,26180,-630,14420,,,,,,,0x03,
6431,-982,-195,285,32060,-2170,12180,,,,,,,0x03,
6441,-989,-151,255,37520,-3640,10220,,,,,,,0x03,
6451,-997,-119,234,38080,-4270,11130,,,,,,,0x03,
6460,-997,-112,232,36610,-4270,13720,,,,,,,0x03,
6470,-999,-119,240,35000,-3920,14980,,,,,,,0x03,
6480,-997,-131,254,33390,-3220,14700,,,,,,,0x03,
6489,-1006,-128,270,33110,-2800,13510,,,,,,,0x03,
6499,-1011,-97,280,35210,-2940,12530,,,,,,,0x03,
6509,-1018,-56,274,39760,-2590,13720,,,,,,,0x03,
6518,-1027,-29,276,46620,-280,16800,,,,,,,0x03,
6528,-1045,-30,284,50540,2310,22470,,,,,,,0x03,
6538,-1075,-83,286,48650,2380,30030,,,,,,,0x03,
6547,-1092,-138,287,43400,1470,36260,,,,,,,0x03,
6557,-1073,-151,287,35420,420,37450,,,,,,,0x03,
6567,-1064,-132,273,35000,2240,35070,,,,,,,0x03,
6576,-1065,-103,224,45360,5740,32200,,,,,,,0x03,
6586,-1072,-56,169,56630,9240,30730,,,,,,,0x03,
6596,-1063,-25,151,60270,12880,32270,,,,,,,0x03,
6605,-1048,-3,161,62160,16240,35000,,,,,,,0x03,
6615,-1030,35,187,66360,18480,37100,,,,,,,0x03,
6625,-1021,61,215,68740,20720,40390,,,,,,,0x03,
6634,-1028,57,229,69370,22540,46550,,,,,,,0x03,
6644,-1037,35,227,68740,24500,53970,,,,,,,0x03,
6654,-1050,3,203,69440,28000,59640,,,,,,,0x03,
6663,-1040,-18,189,71610,32900,62370,,,,,,,0x03,
6673,-1012,-20,181,72450,37940,62930,,,,,,,0x03,
6683,-979,-10,163,72870,39970,60060,,,,,,,0x03,
6693,-951,32,163,73850,40670,53480,,,,,,,0x03,
6702,-927,106,165,68110,43050,48230,,,,,,,0x03,
6712,-906,168,180,56140,44870,49980,,,,,,,0x03,
6722,-898,181,212,45500,43400,57330,,,,,,,0x03,
6731,-896,144,243,36400,41160,65030,,,,,,,0x03,
6741,-909,71,260,32690,40670,68110,,,,,,,0x03,
6751,-935,1,274,35280,40950,66290,,,,,,,0x03,
6760,-953,-19,269,39550,43400,62160,,,,,,,0x03,
6770,-944,8,247,45500,45430,57400,,,,,,,0x03,
6780,-923,46,226,54530,47180,53340,,,,,,,0x03,
6789,-899,73,212,64890,48510,49070,,,,,,,0x03,
6799,-886,98,199,74130,50050,45080,,,,,,,0x03,
6809,-867,124,186,79940,51520,42490,,,,,,,0x03,
6818,-850,150,180,83930,52780,41020,,,,,,,0x03,
6828,-848,164,179,87920,52640,39270,,,,,,,0x03,
6838,-853,181,179,91210,52710,38290,,,,,,,0x03,
6847,-861,203,166,89530,53130,39200,,,,,,,0x03,
6857,-873,210,155,85190,53340,42490,,,,,,,0x03,
6867,-867,222,151,79310,52710,46410,,,,,,,0x03,
6876,-853,246,150,73640,50190,50120,,,,,,,0x03,
6886,-847,272,157,70490,46620,51380,,,,,,,0x03,
6896,-861,296,166,67620,42280,52780,,,,,,,0x03,
6905,-881,277,169,63070,39760,55650,,,,,,,0x03,
6915,-893,237,173,57890,38710,57050,,,,,,,0x03,
6925,-902,196,159,56140,37450,55650,,,,,,,0x03,
6934,-920,175,143,59640,36120,49980,,,,,,,0x03,
6944,-934,181,116,64050,35210,42560,,,,,,,0x03,
6954,-948,198,104,64610,35140,36680,,,,,,,0x03,
6963,-956,219,102,57610,36820,33670,,,,,,,0x03,
6973,-956,241,90,48720,37030,32130,,,,,,,0x03,
6983,-958,256,85,44310,35490,29610,,,,,,,0x03,
6992,-965,254,92,41300,32690,27580,,,,,,,0x03,
7002,-985,234,89,37940,30170,25550,,,,,,,0x03,
7012,-1007,213,96,36890,27510,21910,,,,,,,0x03,
7021,-1026,197,99,35980,25760,17780,,,,,,,0x03,
7031,-1043,184,97,34230,24640,13930,,,,,,,0x03,
7041,-1057,170,95,32900,22610,9590,,,,,,,0x03,
7050,-1069,176,91,33530,19250,4270,,,,,,,0x03,
7060,-1077,182,95,36470,14280,-1120,,,,,,,0x03,
7070,-1084,191,106,39340,9240,-4760,,,,,,,0x03,
7079,-1096,209,116,41020,4340,-6300,,,,,,,0x03,
7089,-1107,207,121,42420,-140,-6300,,,,,,,0x03,
7099,-1114,217,130,44170,-4830,-7560,,,,,,,0x03,
7108,-1130,223,130,42420,-9730,-6930,,,,,,,0x03,
7118,-1140,239,125,36890,-14770,-5040,,,,,,,0x03,
7128,-1143,243,124,32270,-20020,-2100,,,,,,,0x03,
7137,-1136,255,133,30660,-25900,420,,,,,,,0x03,
7147,-1124,263,135,28700,-32480,4270,,,,,,,0x03,
7157,-1090,272,160,30590,-38850,5600,,,,,,,0x03,
7166,-1061,297,182,32550,-46970,6510,,,,,,,0x03,
7176,-1059,296,175,31080,-55580,11550,,,,,,,0x03,
7186,-1038,294,177,35700,-61670,12390,,,,,,,0x03,
7195,-1029,311,154,41300,-70070,11340,,,,,,,0x03,
7205,-1038,315,111,40810,-77420,13090,,,,,,,0x03,
7215,-1023,318,97,38080,-83160,12320,,,,,,,0x03,
7224,-1008,341,87,31640,-88410,11970,,,,,,,0x03,
7234,-989,368,83,22610,-90510,13230,,,,,,,0x03,
7244,-962,389,84,14000,-90720,16310,,,,,,,0x03,
7253,-938,399,73,11060,-90650,19460,,,,,,,0x03,
7263,-920,409,34,14490,-90160,21770,,,,,,,0x03,
7273,-903,411,-8,21910,-87920,23800,,,,,,,0x03,
7282,-878,389,-37,25760,-83790,26810,,,,,,,0x03,
7292,-863,367,-45,19390,-77700,30660,,,,,,,0x03,
7302,-843,369,-35,3850,-70490,32620,,,,,,,0x03,
7311,-829,379,-14,-9730,-64540,32620,,,,,,,0x03,
7321,-820,411,3,-17780,-58590,31150,,,,,,,0x03,
7331,-825,439,4,-24920,-51590,31710,,,,,,,0x03,
7340,-831,441,-3,-31990,-43330,34650,,,,,,,0x03,
7350,-841,412,12,-40250,-36050,38570,,,,,,,0x03,
7360,-846,365,35,-50610,-31010,41790,,,,,,,0x03,
7369,-852,331,74,-61530,-27650,41720,,,,,,,0x03,
7379,-843,320,112,-68740,-26110,38570,,,,,,,0x03,
7389,-843,317,127,-69440,-27720,32970,,,,,,,0x03,
7399,-846,318,125,-61110,-29400,26040,,,,,,,0x03,
7408,-858,300,119,-47390,-31010,18480,,,,,,,0x03,
7418,-873,271,109,-34160,-32130,10290,,,,,,,0x03,
7428,-875,265,111,-26530,-31360,1190,,,,,,,0x03,
7437,-863,295,121,-22960,-29890,-6090,,,,,,,0x03,
7447,-847,377,111,-16800,-28560,-10920,,,,,,,0x03,
7457,-829,469,74,-2660,-27300,-11690,,,,,,,0x03,
7466,-811,510,31,13860,-23380,-6790,,,,,,,0x03,
7476,-811,498,13,23590,-16520,1330,,,,,,,0x03,
7486,-818,457,20,22890,-8260,10220,,,,,,,0x03,
7495,-821,422,44,17010,-350,16940,,,,,,,0x03,
7505,-825,406,58,14350,5040,21000,,,,,,,0x03,
7515,-836,391,60,17920,8750,22820,,,,,,,0x03,
7524,-857,370,53,23520,11970,22750,,,,,,,0x03,
7534,-883,352,50,26740,14770,20860,,,,,,,0x03,
7544,-904,342,45,25130,17150,18760,,,,,,,0x03,
7553,-921,340,34,21350,19320,16520,,,,,,,0x03,
7563,-936,338,27,18060,21840,13580,,,,,,,0x03,
7573,-956,328,22,14700,23800,10290,,,,,,,0x03,
7582,-976,314,24,9170,25970,7000,,,,,,,0x03,
7592,-992,307,29,-630,28700,3570,,,,,,,0x03,
7602,-1006,301,29,-14280,31220,280,,,,,,,0x03,
7611,-1020,285,29,-24360,33530,-3780,,,,,,,0x03,
7621,-1037,266,39,-29400,35560,-10290,,,,,,,0x03,
7631,-1055,248,58,-34370,36610,-18060,,,,,,,0x03,
7640,-1065,237,80,-40180,37450,-26110,,,,,,,0x03,
7650,-1060,236,97,-46760,37380,-35000,,,,,,,0x03,
7660,-1052,231,109,-53550,38500,-42420,,,,,,,0x03,
7669,-1044,212,119,-59220,39620,-47250,,,,,,,0x03,
7679,-1026,196,144,-61880,40110,-50820,,,,,,,0x03,
7689,-1002,188,173,-62020,40740,-55090,,,,,,,0x03,
7698,-996,171,196,-63140,39760,-59290,,,,,,,0x03,
7708,-998,155,200,-62790,37380,-61390,,,,,,,0x03,
7718,-1002,134,200,-59150,35070,-63630,,,,,,,0x03,
7727,-1003,111,209,-55160,33530,-66430,,,,,,,0x03,
7737,-1000,89,222,-54040,31570,-68530,,,,,,,0x03,
7747,-970,70,233,-54600,27790,-70490,,,,,,,0x03,
7756,-1027,31,257,-57120,20580,-71120,,,,,,,0x03,
7766,-996,-16,267,-58730,17710,-73710,,,,,,,0x03,
7776,-978,-23,276,-55930,16030,-77560,,,,,,,0x03,
7785,-970,18,237,-49770,12810,-86380,,,,,,,0x03,
7795,-955,89,208,-39270,8890,-99890,,,,,,,0x03,
7805,-964,121,196,-33950,4830,-107870,,,,,,,0x03,
7814,-982,89,197,-35420,1260,-108990,,,,,,,0x03,
7824,-998,17,199,-38570,1190,-111930,,,,,,,0x03,
7834,-1011,-37,210,-42420,2660,-122710,,,,,,,0x03,
7843,-1020,-58,232,-49910,-490,-139860,,,,,,,0x03,
7853,-1030,4,234,-60410,-4970,-156870,,,,,,,0x03,
7863,-1044,123,237,-77350,-8260,-168980,,,,,,,0x03,
7872,-1059,197,229,-104510,-8820,-165620,,,,,,,0x03,
7882,-949,220,144,-123200,-980,-143850,,,,,,,0x03,
7892,-1097,130,265,-121170,16450,-126490,,,,,,,0x03,
7901,-1039,77,281,-135800,18200,-114870,,,,,,,0x03,
7911,-986,10,270,-140840,12110,-106820,,,,,,,0x03,
7921,-979,-50,239,-138600,11200,-103670,,,,,,,0x03,
7930,-991,-101,222,-131110,16240,-103460,,,,,,,0x03,
7940,-991,-142,204,-116550,23450,-106960,,,,,,,0x03,
7950,-1005,-153,218,-95060,26670,-117180,,,,,,,0x03,
7959,-994,-122,208,-76160,25340,-131250,,,,,,,0x03,
7969,-1011,-80,219,-60060,23730,-140000,,,,,,,0x03,
7979,-1033,0,216,-52430,21140,-136220,,,,,,,0x03,
7988,-1024,67,213,-47040,17010,-121030,,,,,,,0x03,
7998,-1018,75,240,-42210,13510,-95830,,,,,,,0x03,
8008,-1004,18,268,-40670,9940,-65310,,,,,,,0x03,
8017,-1000,-101,284,-39970,4900,-40460,,,,,,,0x03,
8027,-1009,-227,270,-34090,-980,-26390,,,,,,,0x03,
8037,-1019,-299,244,-19600,-5950,-21910,,,,,,,0x03,
8046,-1005,-282,220,-980,-8190,-23310,,,,,,,0x03,
8056,-979,-230,199,16940,-8540,-26390,,,,,,,0x03,
8066,-956,-181,197,31640,-9030,-26740,,,,,,,0x03,
8075,-959,-155,179,41300,-10290,-22820,,,,,,,0x03,
8085,-965,-130,155,50540,-10430,-17500,,,,,,,0x03,
8095,-965,-104,142,59570,-7700,-10780,,,,,,,0x03,
8105,-941,-77,157,66080,-3780,-1400,,,,,,,0x03,
8114,-914,-58,172,68600,-980,8540,,,,,,,0x03,
8124,-910,-54,173,66500,-1470,17710,,,,,,,0x03,
8134,-922,-71,172,61740,-3290,26810,,,,,,,0x03,
8143,-934,-106,151,57050,-2100,36260,,,,,,,0x03,
8153,-934,-127,133,58310,1330,41160,,,,,,,0x03,
8163,-932,-125,142,59920,4270,42630,,,,,,,0x03,
8172,-938,-116,150,58800,5320,44100,,,,,,,0x03,
8182,-935,-99,158,56980,5530,45430,,,,,,,0x03,
8192,-943,-81,156,53970,7000,48160,,,,,,,0x03,
8201,-949,-63,159,50610,8960,51870,,,,,,,0x03,
8211,-957,-39,158,45010,9870,56980,,,,,,,0x03,
8221,-969,-22,158,36120,8750,63980,,,,,,,0x03,
8230,-989,-40,159,27860,8680,71400,,,,,,,0x03,
8240,-1002,-77,163,23800,8610,77420,,,,,,,0x03,
8250,-1021,-115,163,22960,7070,79590,,,,,,,0x03,
8259,-1034,-132,166,25550,4620,78050,,,,,,,0x03,
8269,-1054,-125,165,29120,2800,75740,,,,,,,0x03,
8279,-1071,-135,164,32690,-70,74690,,,,,,,0x03,
8288,-1077,-141,179,38640,-2450,72240,,,,,,,0x03,
8298,-1061,-137,195,47320,-2240,67340,,,,,,,0x03,
8308,-1041,-120,203,55790,-1260,63140,,,,,,,0x03,
8317,-1026,-100,184,61250,-280,60480,,,,,,,0x03,
8327,-1027,-75,158,65170,-560,58450,,,,,,,0x03,
8337,-1021,-41,172,68040,-1890,56140,,,,,,,0x03,
8346,-1014,-11,195,69160,-2310,56000,,,,,,,0x03,
8356,-1015,11,206,71610,-2660,56840,,,,,,,0x03,
8366,-1018,23,204,72450,-2660,58380,,,,,,,0x03,
8375,-1039,13,189,65730,-3640,63490,,,,,,,0x03,
8385,-1046,0,178,57540,-5110,69230,,,,,,,0x03,
8395,-1045,-4,196,52780,-7000,71540,,,,,,,0x03,
8404,-1054,21,200,46690,-9660,72380,,,,,,,0x03,
8414,-1051,39,198,40810,-11200,74270,,,,,,,0x03,
8424,-1052,50,197,36750,-11900,76930,,,,,,,0x03,
8433,-1044,48,198,32480,-12740,79030,,,,,,,0x03,
8443,-1046,38,199,31710,-14490,79660,,,,,,,0x03,
8453,-1047,39,218,32060,-15680,78050,,,,,,,0x03,
8462,-1053,51,225,30380,-16100,76510,,,,,,,0x03,
8472,-1043,60,229,31010,-16310,75110,,,,,,,0x03,
8482,-1035,48,226,33530,-16170,73640,,,,,,,0x03,
8491,-1029,42,220,36190,-16310,70630,,,,,,,0x03,
8501,-1016,46,211,37520,-17290,65240,,,,,,,0x03,
8511,-1010,55,204,37170,-18060,59360,,,,,,,0x03,
8520,-1003,75,206,35700,-18970,54180,,,,,,,0x03,
8530,-999,91,211,33950,-18900,49840,,,,,,,0x03,
8540,-997,91,201,32060,-17990,47600,,,,,,,0x03,
8549,-984,98,195,29400,-17570,46620,,,,,,,0x03,
8559,-971,111,183,25410,-16800,45920,,,,,,,0x03,
8569,-956,117,180,21980,-17290,44240,,,,,,,0x03,
8578,-951,126,168,19460,-17150,41510,,,,,,,0x03,
8588,-947,138,166,16660,-17430,38500,,,,,,,0x03,
8598,-943,136,165,11970,-18060,36330,,,,,,,0x03,
8607,-939,130,161,6930,-17990,34300,,,,,,,0x03,
8617,-936,122,151,2310,-19040,30380,,,,,,,0x03,
8627,-926,109,148,-1050,-19460,25340,,,,,,,0x03,
8636,-918,103,137,-2940,-19600,18690,,,,,,,0x03,
8646,-911,100,125,-4480,-20160,11830,,,,,,,0x03,
8656,-908,98,116,-7420,-20300,5460,,,,,,,0x03,
8665,-898,103,114,-10850,-19600,-490,,,,,,,0x03,
8675,-888,108,98,-12110,-17640,-6440,,,,,,,0x03,
8685,-881,111,70,-11270,-15540,-12880,,,,,,,0x03,
8694,-880,124,44,-11970,-13020,-19810,,,,,,,0x03,
8704,-877,147,19,-15610,-9380,-25060,,,,,,,0x03,
8714,-870,171,0,-20650,-4760,-28840,,,,,,,0x03,
8723,-867,183,-10,-23450,1190,-32200,,,,,,,0x03,
8733,-870,183,-19,-24990,8190,-34160,,,,,,,0x03,
8743,-860,181,-23,-25690,16030,-34440,,,,,,,0x03,
8752,-850,179,-26,-25410,24290,-34090,,,,,,,0x03,
8762,-831,192,-32,-22820,32130,-34300,,,,,,,0x03,
8772,-804,222,-33,-16170,38850,-35070,,,,,,,0x03,
8781,-794,263,-20,-12390,42770,-34580,,,,,,,0x03,
8791,-811,274,-7,-14980,43750,-31990,,,,,,,0x03,
8801,-840,253,26,-21840,46270,-26250,,,,,,,0x03,
8811,-875,215,50,-30660,50610,-17500,,,,,,,0x03,
8820,-897,167,58,-35840,54460,-9240,,,,,,,0x03,
8830,-913,129,46,-37660,56630,-5180,,,,,,,0x03,
8840,-907,109,56,-38290,56560,-6230,,,,,,,0x03,
8849,-892,114,105,-39620,56630,-8610,,,,,,,0x03,
8859,-861,157,205,-41020,54390,-11690,,,,,,,0x03,
8869,-816,249,310,-38080,49910,-16030,,,,,,,0x03,
8878,-890,312,253,-14910,43400,-21070,,,,,,,0x03,
8888,-983,310,258,-18200,33530,-11970,,,,,,,0x03,
8898,-1056,271,445,-65030,48230,15260,,,,,,,0x03,
8907,-1079,167,760,-118370,65660,38080,,,,,,,0x03,
8917,-1274,-39,830,-153020,44800,54670,,,,,,,0x03,
8927,-1547,-287,570,-120610,26180,46270,,,,,,,0x03,
8936,-1522,-222,371,-44730,29470,22330,,,,,,,0x03,
8946,-1361,-63,279,8680,17430,420,,,,,,,0x03,
8956,-1305,51,150,45640,-3990,-16870,,,,,,,0x03,
8965,-1297,116,48,76650,-14140,-33320,,,,,,,0x03,
8975,-1257,183,0,89250,-16870,-38990,,,,,,,0x03,
8985,-1182,236,-9,89810,-16590,-37030,,,,,,,0x03,
8994,-1109,239,-32,87990,-13300,-32270,,,,,,,0x03,
9004,-1049,199,-38,87990,-8890,-31640,,,,,,,0x03,
9014,-1002,181,-38,86590,-4900,-36260,,,,,,,0x03,
9023,-964,204,-31,77630,-1190,-41720,,,,,,,0x03,
9033,-923,262,-25,63420,2240,-42280,,,,,,,0x03,
9043,-890,303,-28,48720,4690,-36190,,,,,,,0x03,
9052,-859,325,-30,34230,6300,-26950,,,,,,,0x03,
9062,-829,322,-25,17920,6230,-16450,,,,,,,0x03,
9072,-810,292,-3,1470,4970,-6440,,,,,,,0x03,
9081,-813,242,29,-11480,3080,-140,,,,,,,0x03,
9091,-840,190,48,-20300,210,2310,,,,,,,0x03,
9101,-876,154,74,-26810,-2030,3080,,,,,,,0x03,
9110,-914,136,103,-32970,-3360,3430,,,,,,,0x03,
9120,-952,124,128,-35770,-3850,2660,,,,,,,0x03,
9130,-984,121,138,-34930,-3710,1190,,,,,,,0x03,
9139,-1013,131,136,-32760,-3290,-770,,,,,,,0x03,
9149,-1034,141,131,-31570,-3780,-1190,,,,,,,0x03,
9159,-1046,147,131,-29120,-4690,-700,,,,,,,0x03,
9168,-1049,137,134,-24920,-6370,-630,,,,,,,0x03,
9178,-1048,118,129,-20370,-7420,-280,,,,,,,0x03,
9188,-1039,104,125,-14700,-7490,-700,,,,,,,0x03,
9197,-1027,93,117,-8050,-7210,-2030,,,,,,,0x03,
9207,-1012,85,113,-1960,-6580,-3220,,,,,,,0x03,
9217,-997,85,108,1470,-5040,-4270,,,,,,,0x03,
9226,-988,87,96,3920,-3640,-4900,,,,,,,0x03,
9236,-976,87,90,6860,-2730,-5880,,,,,,,0x03,
9246,-966,93,92,7630,-1750,-6930,,,,,,,0x03,
9255,-966,107,85,6020,-700,-7840,,,,,,,0x03,
9265,-969,122,74,5180,350,-7980,,,,,,,0x03,
9275,-971,136,73,3710,1400,-7210,,,,,,,0x03,
9284,-971,133,75,980,2310,-5390,,,,,,,0x03,
9294,-971,121,81,-210,3080,-4060,,,,,,,0x03,
9304,-973,111,82,0,3010,-3710,,,,,,,0x03,
9313,-973,109,84,350,2870,-4690,,,,,,,0x03,
9323,-977,111,77,-1260,2450,-5250,,,,,,,0x03,
9333,-981,111,73,-1680,2100,-5320,,,,,,,0x03,
9342,-982,112,75,-1960,2100,-5390,,,,,,,0x03,
9352,-982,114,73,-2870,1610,-5530,,,,,,,0x03,
9362,-981,117,82,-3500,1400,-6020,,,,,,,0x03,
9371,-986,115,87,-5320,840,-6230,,,,,,,0x03,
9381,-990,107,84,-6510,910,-6580,,,,,,,0x03,
9391,-990,103,84,-7140,1890,-6720,,,,,,,0x03,
9400,-988,98,88,-7770,2380,-6930,,,,,,,0x03,
9410,-993,95,88,-7420,2800,-7210,,,,,,,0x03,
9420,-996,93,88,-7420,2730,-6860,,,,,,,0x03,
9429,-1004,93,85,-8960,2240,-5950,,,,,,,0x03,
9439,-1010,96,86,-10010,1400,-5390,,,,,,,0x03,
9449,-1017,101,87,-10990,980,-4690,,,,,,,0x03,
9458,-1028,96,91,-11620,1120,-3150,,,,,,,0x03,
9468,-1035,79,94,-10290,1260,-1610,,,,,,,0x03,
9478,-1033,61,96,-6790,1820,-1400,,,,,,,0x03,
9487,-1029,53,96,-2800,2380,-2590,,,,,,,0x03,
9497,-1020,60,98,770,2870,-4480,,,,,,,0x03,
9507,-1013,72,91,4060,3010,-6020,,,,,,,0x03,
9517,-1008,82,80,5740,2030,-6370,,,,,,,0x03,
9526,-1002,84,76,6370,2170,-5740,,,,,,,0x03,
9536,-994,86,83,6860,2870,-5180,,,,,,,0x03,
9546,-994,87,75,7980,3080,-5110,,,,,,,0x03,
9555,-1000,84,63,8470,2800,-5110,,,,,,,0x03,
9565,-1005,75,65,7490,2800,-4340,,,,,,,0x03,
9575,-1005,65,73,7280,3080,-3920,,,,,,,0x03,
9584,-1007,63,71,8050,3080,-4480,,,,,,,0x03,
9594,-1006,72,66,8750,2800,-5460,,,,,,,0x03,
9604,-1002,81,71,8470,2520,-5530,,,,,,,0x03,
9613,-1001,85,71,7840,1610,-5110,,,,,,,0x03,
9623,-1005,83,69,7980,840,-4760,,,,,,,0x03,
9633,-1002,86,71,7280,560,-4200,,,,,,,0x03,
9642,-1000,87,69,6230,280,-3570,,,,,,,0x03,
9652,-995,84,74,6510,140,-3010,,,,,,,0x03,
9662,-986,77,83,7210,210,-2940,,,,,,,0x03,
9671,-982,77,85,9450,350,-4060,,,,,,,0x03,
9681,-983,82,71,11550,70,-5320,,,,,,,0x03,
9691,-981,92,68,11760,0,-5670,,,,,,,0x03,
9700,-979,98,75,8820,140,-4970,,,,,,,0x03,
9710,-979,92,75,5740,140,-3500,,,,,,,0x03,
9720,-984,80,75,5880,0,-2590,,,,,,,0x03,
9729,-987,78,76,5670,-280,-2450,,,,,,,0x03,
9739,-990,84,73,5180,-280,-2310,,,,,,,0x03,
9749,-990,89,70,6020,-140,-1890,,,,,,,0x03,
9758,-988,96,72,7210,70,-1470,,,,,,,0x03,
9768,-987,97,73,7420,0,-1190,,,,,,,0x03,
9778,-982,95,74,6510,-280,-490,,,,,,,0x03,
9787,-980,93,74,6230,-420,0,,,,,,,0x03,
9797,-979,89,71,6720,-980,140,,,,,,,0x03,
9807,-979,92,72,7210,-910,-70,,,,,,,0x03,
9816,-976,96,66,6230,-700,70,,,,,,,0x03,
9826,-976,96,63,5180,-210,420,,,,,,,0x03,
9836,-976,94,68,4970,350,70,,,,,,,0x03,
9845,-981,88,66,4060,630,-210,,,,,,,0x03,
9855,-989,85,59,3010,1190,-630,,,,,,,0x03,
9865,-990,85,58,1610,1750,-980,,,,,,,0x03,
9874,-989,90,62,210,2100,-910,,,,,,,0x03,
9884,-992,91,62,-1190,2030,-490,,,,,,,0x03,
9894,-996,92,65,-2730,1470,-70,,,,,,,0x03,
9903,-997,93,67,-3570,1260,700,,,,,,,0x03,
9913,-998,93,71,-3640,1120,1120,,,,,,,0x03,
9923,-1000,92,77,-2870,700,1330,,,,,,,0x03,
9932,-999,91,86,-2380,350,1470,,,,,,,0x03,
9942,-998,89,93,-1960,140,1820,,,,,,,0x03,
9952,-993,95,90,-1260,-420,1540,,,,,,,0x03,
9961,-988,103,84,-1260,-1400,1260,,,,,,,0x03,
9971,-987,106,84,-2310,-1680,1890,,,,,,,0x03,
9981,-987,101,91,-1890,-1470,2800,,,,,,,0x03,
9990,-989,87,80,-70,-1330,3080,,,,,,,0x03,
10000,-1001,77,69,1470,-2310,1750,,,,,,,0x03,
10010,-1004,74,70,490,-1890,1610,,,,,,,0x03,
10019,-1002,70,76,490,-770,1400,,,,,,,0x03,
10029,-1005,68,68,3150,-350,0,,,,,,,0x03,
10039,-1006,67,61,4550,-490,-1120,,,,,,,0x03,
10048,-1008,68,59,4200,-210,-1680,,,,,,,0x03,
10058,-1006,74,59,3990,140,-1960,,,,,,,0x03,
10068,-1002,77,57,4200,770,-1680,,,,,,,0x03,
10077,-998,83,54,4060,1120,-1470,,,,,,,0x03,
10087,-994,87,51,3570,980,-1190,,,,,,,0x03,
10097,-991,84,57,3500,840,-1190,,,,,,,0x03,
10106,-991,84,64,3080,210,-1330,,,,,,,0x03,
10116,-989,84,66,3920,-280,-1610,,,,,,,0x03,
10126,-989,83,64,4340,-910,-1680,,,,,,,0x03,
10135,-989,82,65,3010,-1050,-1260,,,,,,,0x03,
10145,-985,81,70,2170,-700,-1260,,,,,,,0x03,
10155,-986,82,71,1960,-210,-1960,,,,,,,0x03,
10164,-989,78,65,1890,-140,-2450,,,,,,,0x03,
10174,-998,73,61,1680,210,-2590,,,,,,,0x03,
10184,-1011,61,40,630,490,-1960,,,,,,,0x03,
10193,-1025,40,19,350,1540,-1540,,,,,,,0x03,
10203,-1047,6,-5,-210,3010,-770,,,,,,,0x03,
10213,-1081,-37,-31,70,4690,350,,,,,,,0x03,
10223,-1106,-75,-48,1540,7630,840,,,,,,,0x03,
10232,-1121,-101,-68,4130,10500,-280,,,,,,,0x03,
10242,-1127,-111,-80,6580,13300,-2730,,,,,,,0x03,
10252,-1119,-104,-84,7630,16310,-5740,,,,,,,0x03,
10261,-1111,-82,-93,7140,18620,-10150,,,,,,,0x03,
10271,-1104,-55,-97,3710,19880,-15680,,,,,,,0x03,
10281,-1101,-40,-90,-4410,21000,-20090,,,,,,,0x03,
10290,-1098,-40,-68,-17010,23380,-22750,,,,,,,0x03,
10300,-1086,-53,-44,-32550,25200,-24220,,,,,,,0x03,
10310,-1062,-67,-23,-44940,25900,-26600,,,,,,,0x03,
10319,-1038,-75,-7,-53550,25060,-30030,,,,,,,0x03,
10329,-1012,-74,-4,-60480,22890,-34090,,,,,,,0x03,
10339,-995,-80,4,-66500,19110,-37800,,,,,,,0x03,
10348,-989,-88,18,-74270,13720,-39900,,,,,,,0x03,
10358,-981,-102,33,-81900,7840,-41720,,,,,,,0x03,
10368,-970,-127,42,-85050,2660,-44450,,,,,,,0x03,
10377,-947,-138,43,-78540,-420,-49210,,,,,,,0x03,
10387,-925,-153,26,-66920,-3010,-53620,,,,,,,0x03,
10397,-911,-171,3,-60270,-5250,-54320,,,,,,,0x03,
10406,-894,-213,-3,-63980,-5180,-50610,,,,,,,0x03,
10416,-847,-232,-51,-72100,-2310,-48300,,,,,,,0x03,
10426,-935,-286,2,-71260,-210,-50470,,,,,,,0x03,
10435,-943,-275,-45,-62650,12810,-57050,,,,,,,0x03,
10445,-938,-252,-25,-39200,30240,-70210,,,,,,,0x03,
10455,-928,-210,-24,-23800,35630,-79870,,,,,,,0x03,
10464,-944,-167,-43,-14420,39200,-87430,,,,,,,0x03,
10474,-986,-127,-63,-350,44240,-95410,,,,,,,0x03,
10484,-908,-68,-108,18970,56070,-101570,,,,,,,0x03,
10493,-1016,-37,-77,46690,75110,-101500,,,,,,,0x03,
10503,-1019,-21,-67,58030,86730,-96880,,,,,,,0x03,
10513,-950,6,-127,57330,83930,-85750,,,,,,,0x03,
10522,-899,46,-141,58940,73220,-77560,,,,,,,0x03,
10532,-873,91,-116,47670,64890,-69160,,,,,,,0x03,
10542,-834,154,-115,22260,55160,-55580,,,,,,,0x03,
10551,-806,200,-71,1750,45360,-38080,,,,,,,0x03,
10561,-785,196,-85,-15260,39410,-16870,,,,,,,0x03,
10571,-787,156,-100,-18760,38430,-490,,,,,,,0x03,
10580,-752,151,-53,-14140,42770,6580,,,,,,,0x03,
10590,-724,183,-41,-23380,38710,13020,,,,,,,0x03,
10600,-730,220,-104,-43120,28000,20720,,,,,,,0x03,
10609,-794,217,-205,-44380,23030,26110,,,,,,,0x03,
10619,-716,268,-103,-21490,33040,26740,,,,,,,0x03,
10629,-850,219,73,-19950,30520,38150,,,,,,,0x03,
10638,-885,58,114,-49560,17570,55790,,,,,,,0x03,
10648,-947,-151,198,-74760,21140,63000,,,,,,,0x03,
10658,-983,-336,240,-92960,7770,59710,,,,,,,0x03,
10667,-1081,-481,114,-109200,-8470,42560,,,,,,,0x03,
10677,-1317,-528,-142,-110390,-5880,14700,,,,,,,0x03,
10687,-1440,-446,-411,-95270,17990,-17640,,,,,,,0x03,
10696,-1471,-306,-478,-74480,60060,-35000,,,,,,,0x03,
10706,-1453,-242,-319,-61670,107800,-28770,,,,,,,0x03,
10716,-1385,-173,-46,-63910,129010,-9660,,,,,,,0x03,
10725,-1166,-115,113,-62230,92540,2800,,,,,,,0x03,
10735,-1061,-113,55,-28560,36400,3850,,,,,,,0x03,
10745,-1091,-148,-91,13720,350,-6720,,,,,,,0x03,
10754,-1167,-171,-157,37870,-12880,-17850,,,,,,,0x03,
10764,-1187,-153,-149,42210,-11480,-19110,,,,,,,0x03,
10774,-1161,-123,-115,42980,-6650,-13790,,,,,,,0x03,
10783,-1090,-98,-93,47740,-1820,-9660,,,,,,,0x03,
10793,-1023,-106,-106,49070,-2590,-9800,,,,,,,0x03,
10803,-994,-108,-135,44170,-3920,-15330,,,,,,,0x03,
10812,-987,-92,-152,33180,-5320,-19460,,,,,,,0x03,
10822,-980,-85,-197,20090,-8050,-18620,,,,,,,0x03,
10832,-988,-105,-241,10710,-9730,-15470,,,,,,,0x03,
10841,-1018,-151,-292,2380,-9380,-10570,,,,,,,0x03,
10851,-1043,-196,-312,350,-4830,-6370,,,,,,,0x03,
10861,-1040,-211,-282,1470,2660,-3780,,,,,,,0x03,
10870,-1013,-199,-232,2100,6860,-2590,,,,,,,0x03,
10880,-979,-175,-194,2660,5530,-2170,,,,,,,0x03,
10890,-948,-154,-175,2590,1750,-2520,,,,,,,0x03,
10899,-920,-135,-173,3220,-1750,-2940,,,,,,,0x03,
10909,-901,-124,-174,3430,-4830,-4340,,,,,,,0x03,
10919,-894,-106,-184,840,-7700,-6440,,,,,,,0x03,
10929,-887,-81,-199,-4830,-9940,-7980,,,,,,,0x03,
10938,-893,-57,-218,-11690,-10570,-7770,,,,,,,0x03,
10948,-900,-43,-234,-19110,-9590,-5250,,,,,,,0x03,
10958,-906,-51,-251,-29750,-7630,-420,,,,,,,0x03,
10967,-918,-76,-272,-40040,-4480,4340,,,,,,,0x03,
10977,-931,-109,-286,-46480,-630,7490,,,,,,,0x03,
10987,-947,-149,-288,-51240,2940,9870,,,,,,,0x03,
10996,-962,-191,-277,-54740,6230,11130,,,,,,,0x03,
11006,-977,-225,-254,-56630,8190,11060,,,,,,,0x03,
11016,-988,-250,-229,-53480,7980,9450,,,,,,,0x03,
11025,-996,-264,-210,-49000,5320,5880,,,,,,,0x03,
11035,-999,-262,-210,-43400,980,1050,,,,,,,0x03,
11045,-994,-246,-211,-35560,-3010,-4760,,,,,,,0x03,
11054,-988,-212,-227,-29260,-5880,-10150,,,,,,,0x03,
11064,-978,-173,-240,-26810,-7070,-12810,,,,,,,0x03,
11074,-965,-146,-250,-27790,-6650,-12110,,,,,,,0x03,
11083,-956,-139,-258,-30870,-6370,-9450,,,,,,,0x03,
11093,-958,-154,-267,-34090,-5740,-6300,,,,,,,0x03,
11103,-956,-175,-254,-35770,-3500,-4550,,,,,,,0x03,
11112,-954,-185,-237,-37450,-1750,-5390,,,,,,,0x03,
11122,-960,-186,-235,-37940,-1470,-7560,,,,,,,0x03,
11132,-962,-183,-237,-35770,-1750,-9800,,,,,,,0x03,
11141,-962,-178,-236,-32340,-840,-11060,,,,,,,0x03,
11151,-963,-180,-235,-29890,210,-11200,,,,,,,0x03,
11161,-963,-187,-238,-27370,840,-11130,,,,,,,0x03,
11170,-961,-196,-242,-23660,1610,-11970,,,,,,,0x03,
11180,-963,-209,-246,-20440,2240,-12670,,,,,,,0x03,
11190,-967,-224,-252,-17430,2870,-14070,,,,,,,0x03,
11199,-965,-227,-265,-14210,3150,-16310,,,,,,,0x03,
11209,-953,-214,-289,-9100,4830,-19250,,,,,,,0x03,
11219,-938,-192,-311,-2730,5250,-22820,,,,,,,0x03,
11228,-928,-176,-319,2100,5040,-25970,,,,,,,0x03,
11238,-917,-172,-312,1400,7000,-25760,,,,,,,0x03,
11248,-902,-171,-292,-700,9590,-22890,,,,,,,0x03,
11257,-888,-169,-275,-2800,11200,-18900,,,,,,,0x03,
11267,-876,-181,-268,-5390,11970,-14280,,,,,,,0x03,
11277,-868,-203,-271,-5460,13020,-9310,,,,,,,0x03,
11286,-868,-220,-278,-2240,14630,-5950,,,,,,,0x03,
11296,-878,-239,-277,2380,16940,-2590,,,,,,,0x03,
11306,-891,-259,-274,7840,18970,1260,,,,,,,0x03,
11315,-916,-270,-269,16380,19180,3290,,,,,,,0x03,
11325,-945,-262,-264,26250,17360,3080,,,,,,,0x03,
11335,-980,-248,-249,33460,15120,3570,,,,,,,0x03,
11344,-1004,-229,-232,37940,13790,5110,,,,,,,0x03,
11354,-1016,-210,-233,39620,12740,6580,,,,,,,0x03,
11364,-1025,-198,-245,39270,11760,7630,,,,,,,0x03,
11373,-1036,-189,-253,38290,11550,8330,,,,,,,0x03,
11383,-1037,-169,-254,35070,11340,8820,,,,,,,0x03,
11393,-1019,-138,-252,29330,10920,10360,,,,,,,0x03,
11402,-987,-114,-251,22960,9800,14000,,,,,,,0x03,
11412,-955,-114,-257,19460,7210,18060,,,,,,,0x03,
11422,-928,-132,-269,18480,3360,20510,,,,,,,0x03,
11431,-920,-158,-293,17990,210,21000,,,,,,,0x03,
11441,-930,-194,-314,17780,-1610,20230,,,,,,,0x03,
11451,-936,-215,-319,18760,-1400,17780,,,,,,,0x03,
11460,-945,-204,-308,19880,-840,12600,,,,,,,0x03,
11470,-954,-167,-291,18270,-1400,8120,,,,,,,0x03,
11480,-966,-132,-280,13300,-1890,7210,,,,,,,0x03,
11489,-973,-119,-271,7840,-2100,8750,,,,,,,0x03,
11499,-985,-140,-269,3150,-1960,10500,,,,,,,0x03,
11509,-1001,-186,-278,-210,-2870,10640,,,,,,,0x03,
11518,-997,-225,-255,-2240,-1890,7420,,,,,,,0x03,
11528,-996,-235,-216,-6930,280,2800,,,,,,,0x03,
11538,-1006,-225,-195,-9170,2170,-1820,,,,,,,0x03,
11547,-1029,-198,-192,-6860,5600,-5880,,,,,,,0x03,
11557,-1053,-185,-210,-3640,9380,-6860,,,,,,,0x03,
11567,-1082,-214,-189,-5040,15540,-3640,,,,,,,0x03,
11576,-1176,-273,-240,-2800,23030,-1680,,,,,,,0x03,
11586,-1283,-322,-335,17990,35560,-3010,,,,,,,0x03,
11596,-1301,-325,-359,44450,56770,-1820,,,,,,,0x03,
11605,-1118,-291,-222,51100,51030,11060,,,,,,,0x03,
11615,-942,-238,-43,33670,-1050,27930,,,,,,,0x03,
11625,-896,-163,53,33180,-42840,26180,,,,,,,0x03,
11635,-884,1,157,43680,-66220,14420,,,,,,,0x03,
11644,-907,130,21,58940,-82390,16660,,,,,,,0x03,
11654,-1020,266,-127,115080,-87360,16380,,,,,,,0x03,
11664,-1056,401,-238,171640,-80360,23310,,,,,,,0x03,
11673,-1116,500,-392,199430,-72100,49770,,,,,,,0x03,
11683,-1120,495,-436,203420,-63490,84700,,,,,,,0x03,
11693,-1051,332,-297,173880,-56280,122710,,,,,,,0x03,
11702,-1017,135,-224,124740,-51590,157570,,,,,,,0x03,
11712,-942,-48,-144,102830,-50820,167790,,,,,,,0x03,
11722,-920,-223,-56,109480,-43190,172270,,,,,,,0x03,
11731,-813,-285,-34,116900,-33110,164920,,,,,,,0x03,
11741,-720,-266,-32,115570,-26530,144620,,,,,,,0x03,
11751,-622,-168,-62,99470,-25200,121100,,,,,,,0x03,
11760,-519,-35,-99,75180,-30240,101010,,,,,,,0x03,
11770,-532,47,-187,46690,-36610,88970,,,,,,,0x03,
11780,-522,91,-192,16730,-31570,83580,,,,,,,0x03,
11789,-550,80,-150,-21140,-22330,86310,,,,,,,0x03,
11799,-585,23,-132,-49700,-20510,87500,,,,,,,0x03,
11809,-587,-55,-119,-47950,-18550,75320,,,,,,,0x03,
11818,-822,-280,-488,-55510,-35700,70350,,,,,,,0x03,
11828,-1115,-599,-966,-54740,-60480,59780,,,,,,,0x03,
11838,-1408,-939,-792,-68950,-33180,27230,,,,,,,0x03,
11847,-1764,-1059,-546,-143360,41440,-10360,,,,,,,0x03,
11857,-1638,-547,-260,-212730,99960,-37030,,,,,,,0x03,
11867,-1359,141,214,-243180,107310,-23240,,,,,,,0x03,
11876,-1098,369,372,-237930,73010,22400,,,,,,,0x03,
11886,-996,83,142,-153650,39270,37520,,,,,,,0x03,
11896,-980,36,4,-14210,10780,-3360,,,,,,,0x03,
11905,-1044,120,-38,71120,-14910,-41720,,,,,,,0x03,
11915,-1118,167,-109,70070,-26530,-41160,,,,,,,0x03,
11925,-1106,207,-100,50260,-19180,-24710,,,,,,,0x03,
11934,-1069,241,-83,35630,-11060,-10010,,,,,,,0x03,
11944,-1057,222,-129,25480,-8050,-280,,,,,,,0x03,
11954,-1072,141,-204,17640,-4620,6440,,,,,,,0x03,
11963,-1069,61,-236,6300,-770,9870,,,,,,,0x03,
11973,-1042,-12,-223,-6160,1820,9030,,,,,,,0x03,
11983,-1021,-46,-194,-15610,420,3780,,,,,,,0x03,
11992,-1006,-35,-170,-14350,-2870,-3010,,,,,,,0x03,
12002,-1005,3,-161,-3780,-5810,-9170,,,,,,,0x03,
12012,-1011,62,-163,8750,-8540,-12110,,,,,,,0x03,
12021,-1018,118,-176,17780,-12110,-10920,,,,,,,0x03,
12031,-1012,172,-183,20090,-15050,-7420,,,,,,,0x03,
12041,-994,214,-179,15260,-16870,-1680,,,,,,,0x03,
12050,-976,220,-171,8050,-18410,7560,,,,,,,0x03,
12060,-955,187,-153,2590,-18970,15330,,,,,,,0x03,
12070,-948,127,-126,-1680,-17920,19880,,,,,,,0x03,
12079,-946,66,-97,-5460,-16380,20020,,,,,,,0x03,
12089,-953,15,-70,-7350,-14630,16450,,,,,,,0x03,
12099,-954,-7,-24,-6720,-13300,10220,,,,,,,0x03,
12108,-963,-2,12,-4060,-11830,2590,,,,,,,0x03,
12118,-985,30,-3,2240,-12180,-5250,,,,,,,0x03,
12128,-1002,78,-35,7350,-11200,-10500,,,,,,,0x03,
12137,-1011,131,-49,7490,-7770,-11340,,,,,,,0x03,
12147,-1010,170,-49,7910,-4550,-9520,,,,,,,0x03,
12157,-1010,172,-37,12600,-2100,-7000,,,,,,,0x03,
12166,-1023,146,-15,15260,350,-3500,,,,,,,0x03,
12176,-1039,107,-20,14560,1820,-490,,,,,,,0x03,
12186,-1046,82,-32,18480,2240,-560,,,,,,,0x03,
12195,-1051,58,-52,26600,2310,-3430,,,,,,,0x03,
12205,-1053,50,-81,32270,1750,-7560,,,,,,,0x03,
12215,-1048,83,-97,30100,840,-11270,,,,,,,0x03,
12224,-1024,148,-69,21630,1260,-11970,,,,,,,0x03,
12234,-1013,205,-48,16730,-280,-8890,,,,,,,0x03,
12244,-1019,229,-41,21210,-2940,-3570,,,,,,,0x03,
12253,-1027,217,-49,25900,-5390,3430,,,,,,,0x03,
12263,-1029,192,-51,28770,-7280,8190,,,,,,,0x03,
12273,-1022,174,-60,28840,-9660,9870,,,,,,,0x03,
12282,-1015,165,-57,27580,-11970,9730,,,,,,,0x03,
12292,-999,150,-46,27860,-14350,7910,,,,,,,0x03,
12302,-983,132,-47,28980,-16170,3920,,,,,,,0x03,
12311,-960,117,-50,29540,-17920,-1890,,,,,,,0x03,
12321,-936,114,-63,29540,-18410,-8680,,,,,,,0x03,
12331,-904,127,-70,28770,-17500,-15470,,,,,,,0x03,
12341,-873,140,-77,25690,-16240,-20020,,,,,,,0x03,
12350,-851,150,-83,21980,-15260,-22820,,,,,,,0x03,
12360,-850,150,-79,17640,-14770,-23940,,,,,,,0x03,
12370,-849,143,-78,11900,-14000,-22540,,,,,,,0x03,
12379,-873,109,-88,5040,-13580,-19530,,,,,,,0x03,
12389,-906,70,-88,-910,-12110,-16660,,,,,,,0x03,
12399,-936,27,-93,-5040,-9730,-14210,,,,,,,0x03,
12408,-960,-4,-105,-5880,-7840,-14560,,,,,,,0x03,
12418,-982,-26,-116,-6440,-6930,-15960,,,,,,,0x03,
12428,-997,-37,-123,-8820,-5460,-15540,,,,,,,0x03,
12437,-1006,-42,-128,-9940,-3570,-14490,,,,,,,0x03,
12447,-1011,-51,-137,-10780,-2310,-12530,,,,,,,0x03,
12457,-1019,-66,-146,-10500,-1470,-10360,,,,,,,0x03,
12466,-1032,-73,-152,-8470,-1050,-8960,,,,,,,0x03,
12476,-1038,-73,-154,-7140,-560,-8400,,,,,,,0x03,
12486,-1035,-65,-155,-5040,560,-7770,,,,,,,0x03,
12495,-1016,-48,-140,-2100,1750,-7070,,,,,,,0x03,
12505,-990,-27,-114,-2730,1610,-4410,,,,,,,0x03,
12515,-988,-11,-91,-3080,70,1820,,,,,,,0x03,
12524,-1010,-12,-82,2520,-1050,8260,,,,,,,0x03,
12534,-1027,-19,-72,13650,-1890,12040,,,,,,,0x03,
12544,-1048,-14,-82,26390,-3500,11480,,,,,,,0x03,
12553,-1058,7,-112,40040,-4060,8190,,,,,,,0x03,
12563,-1056,32,-165,48230,-2030,4340,,,,,,,0x03,
12573,-1044,63,-218,52150,2730,140,,,,,,,0x03,
12582,-1023,117,-204,54040,9870,-3430,,,,,,,0x03,
12592,-999,168,-147,48720,16450,-2940,,,,,,,0x03,
12602,-981,192,-103,42560,20930,0,,,,,,,0x03,
12611,-970,184,-47,38360,22750,3010,,,,,,,0x03,
12621,-977,138,-8,28420,20510,6230,,,,,,,0x03,
12631,-996,88,-7,21210,16450,6440,,,,,,,0x03,
12640,-1000,71,-33,19040,12530,3990,,,,,,,0x03,
12650,-1001,72,-67,15680,9730,3360,,,,,,,0x03,
12660,-986,73,-99,11200,8190,5880,,,,,,,0x03,
12669,-982,60,-126,7840,7350,9030,,,,,,,0x03,
12679,-980,46,-149,2870,7070,12600,,,,,,,0x03,
12689,-978,33,-149,-3920,7700,15540,,,,,,,0x03,
12698,-969,32,-138,-14140,7210,17850,,,,,,,0x03,
12708,-956,39,-132,-25200,6160,18620,,,,,,,0x03,
12718,-949,45,-122,-34090,5040,17360,,,,,,,0x03,
12727,-954,48,-102,-43260,3570,15470,,,,,,,0x03,
12737,-967,43,-69,-53900,1890,14070,,,,,,,0x03,
12747,-983,29,-34,-66430,-560,13300,,,,,,,0x03,
12756,-999,8,-9,-78190,-3080,11130,,,,,,,0x03,
12766,-1011,-2,-5,-82600,-5600,6370,,,,,,,0x03,
12776,-1016,8,1,-77140,-6650,-840,,,,,,,0x03,
12785,-1026,47,-2,-68460,-6720,-7350,,,,,,,0x03,
12795,-1037,94,-46,-53760,-6580,-10850,,,,,,,0x03,
12805,-1025,127,-48,-39340,-5390,-11550,,,,,,,0x03,
12814,-1021,110,-29,-36470,-5040,-9310,,,,,,,0x03,
12824,-1007,64,19,-39060,-5530,-8120,,,,,,,0x03,
12834,-1020,0,52,-38500,-7700,-11550,,,,,,,0x03,
12843,-1046,-49,68,-34790,-10290,-18830,,,,,,,0x03,
12853,-1080,-61,26,-23170,-10290,-28000,,,,,,,0x03,
12863,-1100,-26,-68,-5740,-7420,-36470,,,,,,,0x03,
12872,-1082,45,-152,1400,-2030,-38640,,,,,,,0x03,
12882,-1041,131,-188,-3430,3640,-33460,,,,,,,0x03,
12892,-1003,182,-157,-10010,5880,-22750,,,,,,,0x03,
12901,-1003,160,-104,-10570,5110,-10150,,,,,,,0x03,
12911,-1041,81,-54,-1470,2660,-980,,,,,,,0x03,
12921,-1117,-3,-43,7910,560,3640,,,,,,,0x03,
12930,-1203,-62,-31,14770,-2170,6300,,,,,,,0x03,
12940,-1241,-104,-10,14000,-6020,10430,,,,,,,0x03,
12950,-1256,-129,-56,7490,-16170,13790,,,,,,,0x03,
12959,-1272,-130,-80,13440,-25410,8680,,,,,,,0x03,
12969,-1262,-96,-72,18970,-30170,3220,,,,,,,0x03,
12979,-1229,-48,-60,15820,-29050,1960,,,,,,,0x03,
12988,-1179,11,-33,12460,-27300,3780,,,,,,,0x03,
12998,-1136,35,-9,7560,-28910,8820,,,,,,,0x03,
13008,-1110,47,-2,7420,-32410,8890,,,,,,,0x03,
13017,-1120,76,0,8120,-35840,7630,,,,,,,0x03,
13027,-1118,85,-26,11200,-38010,7980,,,,,,,0x03,
13037,-1112,92,-55,16310,-38500,10290,,,,,,,0x03,
13047,-1079,88,-75,21910,-36960,13580,,,,,,,0x03,
13056,-1029,62,-103,30450,-33950,14700,,,,,,,0x03,
13066,-961,43,-123,40320,-31710,11550,,,,,,,0x03,
13076,-896,64,-149,44590,-30940,5600,,,,,,,0x03,
13085,-832,121,-163,42910,-30030,-490,,,,,,,0x03,
13095,-774,185,-180,39760,-28070,-3850,,,,,,,0x03,
13105,-715,249,-168,37870,-23310,-4760,,,,,,,0x03,
13114,-646,289,-132,30590,-18970,-1120,,,,,,,0x03,
13124,-610,301,-128,19670,-18130,5810,,,,,,,0x03,
13134,-604,300,-162,13720,-16870,10500,,,,,,,0x03,
13143,-602,290,-171,10570,-11410,14770,,,,,,,0x03,
13153,-610,271,-167,3710,-4550,20230,,,,,,,0x03,
13163,-588,254,-112,-11200,1050,25410,,,,,,,0x03,
13172,-583,244,-80,-36260,1190,29680,,,,,,,0x03,
13182,-592,250,-75,-51940,1890,29750,,,,,,,0x03,
13192,-576,256,-74,-51660,3640,28560,,,,,,,0x03,
13201,-649,195,-42,-42910,1400,28350,,,,,,,0x03,
13211,-600,164,17,-36190,1190,29120,,,,,,,0x03,
13221,-543,78,233,-32620,-910,28070,,,,,,,0x03,
13230,-589,-28,323,-27160,-19250,15960,,,,,,,0x03,
13240,-692,-75,266,-20090,-48510,-7700,,,,,,,0x03,
13250,-888,-86,-8,-31500,-61250,-26040,,,,,,,0x03,
13259,-1116,-106,-218,-52080,-33880,-31850,,,,,,,0x03,
13269,-1295,-200,-241,-82740,25760,-25060,,,,,,,0x03,
13279,-1400,-321,-188,-100730,105000,-23310,,,,,,,0x03,
13288,-1478,-351,57,-93800,172130,-31850,,,,,,,0x03,
13298,-1474,-188,103,-90580,155960,-42000,,,,,,,0x03,
13308,-1301,-48,-2,-50120,76720,-59150,,,,,,,0x03,
13317,-1125,104,74,-16730,21770,-68880,,,,,,,0x03,
13327,-1112,124,32,-24780,-5320,-69580,,,,,,,0x03,
13337,-1184,86,-5,-17640,-21980,-64330,,,,,,,0x03,
13346,-1231,83,35,2100,-27510,-49700,,,,,,,0x03,
13356,-1201,110,70,17220,-23520,-30730,,,,,,,0x03,
13366,-1089,92,139,39410,-20160,-16590,,,,,,,0x03,
13375,-1040,10,131,69160,-21910,-20020,,,,,,,0x03,
13385,-1022,-13,96,98070,-20720,-35070,,,,,,,0x03,
13395,-1001,16,70,102200,-19740,-42770,,,,,,,0x03,
13404,-976,58,22,82880,-21350,-42350,,,,,,,0x03,
13414,-981,56,-71,63840,-21700,-39410,,,,,,,0x03,
13424,-1024,2,-162,55020,-12880,-36610,,,,,,,0x03,
13433,-1033,-58,-208,44520,4060,-34440,,,,,,,0x03,
13443,-1053,-106,-181,26460,21280,-33250,,,,,,,0x03,
13453,-1044,-127,-102,2450,30940,-32620,,,,,,,0x03,
13462,-1032,-125,-7,-20230,30310,-32060,,,,,,,0x03,
13472,-1051,-121,11,-25620,21770,-31920,,,,,,,0x03,
13482,-1069,-94,6,-14140,13510,-33670,,,,,,,0x03,
13491,-1064,-38,18,-6510,7420,-32970,,,,,,,0x03,
13501,-1063,12,22,-1680,2380,-27090,,,,,,,0x03,
13511,-1063,35,19,9170,-1960,-19320,,,,,,,0x03,
13520,-1058,23,3,19390,-4970,-10360,,,,,,,0x03,
13530,-1051,-1,-22,21560,-7210,-1330,,,,,,,0x03,
13540,-1039,-19,-43,17080,-8610,5530,,,,,,,0x03,
13549,-1017,12,-64,6090,-8680,7700,,,,,,,0x03,
13559,-1013,-51,-54,-5320,-4620,5880,,,,,,,0x03,
13569,-994,-3,-40,-20160,-2100,14630,,,,,,,0x03,
13578,-983,6,-36,-32900,-70,15050,,,,,,,0x03,
13588,-954,47,-24,-35980,2450,3570,,,,,,,0x03,
13598,-1057,-32,-4,-36820,1960,4410,,,,,,,0x03,
13607,-1003,-7,-3,-42070,-1890,11970,,,,,,,0x03,
13617,-1003,-19,-36,-40320,-280,9590,,,,,,,0x03,
13627,-1006,-13,-40,-34300,-1400,6860,,,,,,,0x03,
13636,-1006,-10,-56,-37520,-6020,8400,,,,,,,0x03,
13646,-1003,-25,-81,-45290,-7490,13020,,,,,,,0x03,
13656,-1008,-65,-76,-48440,-7840,17290,,,,,,,0x03,
13665,-1014,-123,-76,-47670,-8750,18620,,,,,,,0x03,
13675,-1017,-160,-58,-42140,-10010,15540,,,,,,,0x03,
13685,-1025,-174,-42,-35420,-11200,9800,,,,,,,0x03,
13694,-1019,-161,-29,-27160,-11340,3290,,,,,,,0x03,
13704,-1010,-131,-21,-18480,-10640,-2660,,,,,,,0x03,
13714,-1003,-93,-17,-9800,-10080,-7280,,,,,,,0x03,
13723,-990,-54,-21,-3290,-8050,-10080,,,,,,,0x03,
13733,-982,-25,-22,-1330,-5670,-10360,,,,,,,0x03,
13743,-977,-17,-20,-1470,-4270,-8680,,,,,,,0x03,
13753,-975,-26,-18,-2170,-3010,-7000,,,,,,,0x03,
13762,-975,-40,-15,-2450,-1750,-6930,,,,,,,0x03,
13772,-980,-49,-14,-2660,-140,-7910,,,,,,,0x03,
13782,-983,-65,-7,-1960,770,-9030,,,,,,,0x03,
13791,-991,-79,-5,0,2170,-9800,,,,,,,0x03,
13801,-996,-93,4,3500,3290,-11480,,,,,,,0x03,
13811,-1001,-94,14,6650,3780,-13370,,,,,,,0x03,
13820,-1017,-98,8,11200,3220,-15820,,,,,,,0x03,
13830,-1034,-107,10,16100,5250,-17220,,,,,,,0x03,
13840,-1055,-113,1,19250,7980,-16870,,,,,,,0x03,
13849,-1062,-116,-16,18550,8960,-15540,,,,,,,0x03,
13859,-1066,-117,-49,19180,10710,-14700,,,,,,,0x03,
13869,-1059,-124,-80,23730,12110,-13860,,,,,,,0x03,
13878,-1008,-105,-89,25410,13930,-11410,,,,,,,0x03,
13888,-971,-86,-96,20930,15400,-7280,,,,,,,0x03,
13898,-983,-90,-101,14630,11970,-1190,,,,,,,0x03,
13907,-1044,-108,-90,5250,5530,4900,,,,,,,0x03,
13917,-1100,-135,-65,-5810,-2030,10990,,,,,,,0x03,
13927,-1169,-167,-23,-13580,-6790,16870,,,,,,,0x03,
13936,-1213,-203,9,-20930,-11760,21490,,,,,,,0x03,
13946,-1209,-214,13,-30660,-16940,24780,,,,,,,0x03,
13956,-1180,-172,9,-35280,-23800,22330,,,,,,,0x03,
13965,-1138,-106,22,-29120,-29540,15610,,,,,,,0x03,
13975,-1130,-53,3,-16380,-33670,9940,,,,,,,0x03,
13985,-1114,-31,11,1610,-36190,8890,,,,,,,0x03,
13994,-1093,-22,4,16030,-35980,10920,,,,,,,0x03,
14004,-1075,7,-15,31990,-33600,9870,,,,,,,0x03,
14014,-1050,44,-39,49280,-28000,9240,,,,,,,0x03,
14023,-1019,71,-96,63980,-23030,10640,,,,,,,0x03,
14033,-993,111,-132,77070,-19320,10920,,,,,,,0x03,
14043,-972,131,-126,80780,-17570,13930,,,,,,,0x03,
14052,-974,115,-105,71470,-17780,21560,,,,,,,0x03,
14062,-979,69,-76,53760,-18900,30590,,,,,,,0x03,
14072,-986,9,-45,38570,-20160,35910,,,,,,,0x03,
14081,-1000,-26,-16,32130,-20930,36190,,,,,,,0x03,
14091,-1000,-17,3,33390,-21000,33320,,,,,,,0x03,
14101,-989,25,6,38570,-20440,28980,,,,,,,0x03,
14110,-960,82,5,42350,-19180,24920,,,,,,,0x03,
14120,-925,129,12,40880,-17710,22960,,,,,,,0x03,
14130,-894,156,22,34650,-16730,23240,,,,,,,0x03,
14139,-880,165,28,26460,-16450,24780,,,,,,,0x03,
14149,-876,150,34,18550,-15750,26810,,,,,,,0x03,
14159,-869,107,41,13160,-14070,28560,,,,,,,0x03,
14168,-869,58,45,10430,-11970,28280,,,,,,,0x03,
14178,-862,20,50,7140,-10080,26670,,,,,,,0x03,
14188,-837,14,50,3360,-8190,23240,,,,,,,0x03,
14197,-805,39,47,630,-6440,18060,,,,,,,0x03,
14207,-774,61,48,-2100,-5110,12880,,,,,,,0x03,
14217,-751,74,53,-5530,-4130,9730,,,,,,,0x03,
14226,-724,88,59,-10150,-3710,7770,,,,,,,0x03,
14236,-616,155,63,-15820,-6370,-350,,,,,,,0x03,
14246,-828,29,74,-25620,-10990,3360,,,,,,,0x03,
14255,-700,62,78,-37100,-8750,4900,,,,,,,0x03,
14265,-701,76,74,-42070,-10430,2240,,,,,,,0x03,
14275,-677,77,75,-46690,-15050,3080,,,,,,,0x03,
14284,-650,75,79,-56000,-20440,2380,,,,,,,0x03,
14294,-566,85,83,-73080,-31360,70,,,,,,,0x03,
14304,-715,-4,93,-94640,-50750,280,,,,,,,0x03,
14313,-592,-39,68,-103530,-54950,-4970,,,,,,,0x03,
14323,-718,-168,163,-65380,-55510,-27370,,,,,,,0x03,
14333,-748,-238,222,28280,-38500,-74130,,,,,,,0x03,
14342,-741,-206,159,48510,-14980,-112980,,,,,,,0x03,
14352,-997,-137,133,6790,5040,-122150,,,,,,,0x03,
14362,-1107,-53,99,-14140,31150,-131880,,,,,,,0x03,
14371,-1098,39,100,-2870,47110,-137480,,,,,,,0x03,
14381,-1122,64,192,-3290,56700,-126980,,,,,,,0x03,
14391,-1193,3,220,1470,80710,-113120,,,,,,,0x03,
14400,-1373,-160,211,31430,92960,-107240,,,,,,,0x03,
14410,-1538,-478,253,41580,88480,-97440,,,,,,,0x03,
14420,-1638,-675,-115,31290,97860,-79870,,,,,,,0x03,
14429,-1379,-511,-69,43120,55790,-88270,,,,,,,0x03,
14439,-1261,-364,36,25550,-16590,-93520,,,,,,,0x03,
14449,-1327,-288,-74,-23870,-47320,-73780,,,,,,,0x03,
14459,-1360,-279,-191,-26670,-22120,-49980,,,,,,,0x03,
14468,-1286,-298,-111,-1820,7210,-29540,,,,,,,0x03,
14478,-1216,-305,-14,12040,22470,-13720,,,,,,,0x03,
14488,-1121,-257,68,19320,26530,-7210,,,,,,,0x03,
14497,-1045,-198,128,21490,22750,-11060,,,,,,,0x03,
14507,-989,-97,164,21140,17430,-16170,,,,,,,0x03,
14517,-926,14,208,27230,12180,-20090,,,,,,,0x03,
14526,-867,111,241,29890,1120,-17640,,,,,,,0x03,
14536,-858,138,213,24080,-14840,-8540,,,,,,,0x03,
14546,-878,91,136,12810,-27720,3990,,,,,,,0x03,
14555,-920,-12,55,3290,-29960,17010,,,,,,,0x03,
14565,-969,-172,-6,-3080,-24640,23940,,,,,,,0x03,
14575,-1012,-313,-47,-9730,-17780,23660,,,,,,,0x03,
14584,-1046,-410,-74,-18900,-11970,17290,,,,,,,0x03,
14594,-1074,-470,-92,-24430,-5950,6300,,,,,,,0x03,
14604,-1091,-485,-80,-26250,-1120,-5600,,,,,,,0x03,
14613,-1088,-457,-64,-26110,2100,-16030,,,,,,,0x03,
14623,-1078,-403,-29,-24570,2030,-22750,,,,,,,0x03,
14633,-1073,-343,-5,-21490,-2170,-23870,,,,,,,0x03,
14642,-1055,-281,23,-17220,-7350,-21280,,,,,,,0x03,
14652,-1032,-224,49,-14490,-11550,-16520,,,,,,,0x03,
14662,-1001,-189,78,-13510,-16660,-10360,,,,,,,0x03,
14671,-978,-203,90,-13230,-23030,-3640,,,,,,,0x03,
14681,-950,-221,91,-11900,-28280,-280,,,,,,,0x03,
14691,-917,-209,102,-12040,-29610,-3500,,,,,,,0x03,
14700,-899,-181,113,-9310,-29050,-10360,,,,,,,0x03,
14710,-877,-155,100,-8470,-32480,-11830,,,,,,,0x03,
14720,-891,-141,75,-7770,-31430,-12390,,,,,,,0x03,
14729,-887,-137,56,-4060,-26320,-10150,,,,,,,0x03,
14739,-908,-162,26,-4200,-18410,-6580,,,,,,,0x03,
14749,-940,-188,35,-4690,-9310,-5530,,,,,,,0x03,
14758,-959,-205,57,-7980,-3990,-4130,,,,,,,0x03,
14768,-986,-238,51,-13650,-2590,-1540,,,,,,,0x03,
14778,-1012,-270,60,-14140,-1610,350,,,,,,,0x03,
14787,-1031,-303,70,-11550,770,1120,,,,,,,0x03,
14797,-1029,-328,86,-7700,2240,1120,,,,,,,0x03,
14807,-1022,-332,97,-2590,2240,-770,,,,,,,0x03,
14816,-1009,-324,101,3500,1470,-4340,,,,,,,0x03,
14826,-994,-298,104,7560,-350,-5740,,,,,,,0x03,
14836,-982,-270,100,10780,-1960,-5040,,,,,,,0x03,
14845,-963,-231,112,14140,-1260,-4690,,,,,,,0x03,
14855,-941,-203,108,13090,-3150,-1120,,,,,,,0x03,
14865,-935,-185,102,13650,-5250,3780,,,,,,,0x03,
14874,-950,-177,102,13860,-6020,8190,,,,,,,0x03,
14884,-973,-173,101,10640,-8400,12950,,,,,,,0x03,
14894,-998,-169,94,7210,-9940,18130,,,,,,,0x03,
14903,-1012,-169,94,4480,-10780,23520,,,,,,,0x03,
14913,-1009,-180,91,1750,-12810,26950,,,,,,,0x03,
14923,-992,-194,91,-910,-14140,28700,,,,,,,0x03,
14932,-989,-205,101,-5530,-15190,30590,,,,,,,0x03,
14942,-993,-224,102,-11550,-17500,33530,,,,,,,0x03,
14952,-1034,-256,93,-13370,-20370,34860,,,,,,,0x03,
14961,-1063,-276,104,-14770,-21630,33950,,,,,,,0x03,
14971,-1078,-310,109,-17850,-23310,32270,,,,,,,0x03,
14981,-1098,-328,99,-17920,-24010,28070,,,,,,,0x03,
14990,-1107,-327,107,-13300,-22890,20440,,,,,,,0x03,
15000,-1099,-306,116,-10990,-22330,14000,,,,,,,0x03,
15010,-1090,-286,115,-11060,-22190,8540,,,,,,,0x03,
15019,-1079,-270,121,-10500,-22610,3920,,,,,,,0x03,
15029,-1074,-265,135,-11410,-23170,2310,,,,,,,0x03,
15039,-1074,-268,137,-14070,-25410,1750,,,,,,,0x03,
15048,-1072,-271,132,-14700,-28000,1540,,,,,,,0x03,
15058,-1062,-258,120,-12740,-29750,140,,,,,,,0x03,
15068,-1052,-269,115,-8330,-30100,-3990,,,,,,,0x03,
15077,-1039,-235,116,-4200,-29680,-4760,,,,,,,0x03,
15087,-1017,-188,117,-770,-29050,-7210,,,,,,,0x03,
15097,-990,-142,119,2870,-28420,-7490,,,,,,,0x03,
15106,-970,-109,127,6090,-27020,-4970,,,,,,,0x03,
15116,-936,-48,145,8680,-25970,-2030,,,,,,,0x03,
15126,-956,-104,208,9520,-25900,1260,,,,,,,0x03,
15136,-925,-67,197,10780,-26600,10430,,,,,,,0x03,
15145,-934,-65,146,15330,-28280,13440,,,,,,,0x03,
15155,-919,-78,123,21420,-25620,15610,,,,,,,0x03,
15165,-907,-105,112,25690,-21840,16170,,,,,,,0x03,
15174,-893,-123,85,30030,-20020,14420,,,,,,,0x03,
15184,-872,-112,86,31780,-16730,11970,,,,,,,0x03,
15194,-849,-101,102,28490,-13440,10080,,,,,,,0x03,
15203,-842,-89,124,22120,-11550,10080,,,,,,,0x03,
15213,-851,-103,147,13580,-10150,11200,,,,,,,0x03,
15223,-861,-109,169,6160,-8750,10640,,,,,,,0x03,
15232,-854,-94,187,1540,-7700,9030,,,,,,,0x03,
15242,-870,-89,203,-2940,-7910,8680,,,,,,,0x03,
15252,-878,-100,214,-7490,-9310,9520,,,,,,,0x03,
15261,-873,-111,217,-10290,-9870,9730,,,,,,,0x03,
15271,-847,-119,224,-11410,-9450,7840,,,,,,,0x03,
15281,-814,-104,230,-13160,-10780,6090,,,,,,,0x03,
15290,-785,-90,231,-17150,-13860,5600,,,,,,,0x03,
15300,-755,-93,221,-23590,-17640,6440,,,,,,,0x03,
15310,-729,-87,199,-29890,-20510,7070,,,,,,,0x03,
15319,-709,-49,185,-37100,-23240,7000,,,,,,,0x03,
15329,-684,-17,162,-46690,-26670,8960,,,,,,,0x03,
15339,-655,-9,143,-57610,-29260,12740,,,,,,,0x03,
15348,-638,-6,131,-67480,-33670,15190,,,,,,,0x03,
15358,-626,9,118,-76930,-40600,17360,,,,,,,0x03,
15368,-475,65,108,-86940,-47880,17290,,,,,,,0x03,
15377,-646,-9,125,-110110,-63910,11270,,,,,,,0x03,
15387,-621,-27,110,-124040,-81200,4760,,,,,,,0x03,
15397,-627,-64,83,-105350,-83020,-5390,,,,,,,0x03,
15406,-722,-69,200,14070,-48510,-54600,,,,,,,0x03,
15416,-1073,90,222,111230,13440,-104930,,,,,,,0x03,
15426,-958,222,67,28700,35980,-82040,,,,,,,0x03,
15435,-1001,179,-38,-39130,69860,840,,,,,,,0x03,
15445,-940,-171,333,-7070,122220,36120,,,,,,,0x03,
15455,-950,-444,716,18900,142310,24780,,,,,,,0x03,
15464,-1126,-660,759,16100,110670,4620,,,,,,,0x03,
15474,-1316,-799,593,30800,61740,-23660,,,,,,,0x03,
15484,-1523,-859,369,43050,34650,-53900,,,,,,,0x03,
15493,-1623,-802,317,33320,30800,-73010,,,,,,,0x03,
15503,-1651,-647,285,27720,46060,-80290,,,,,,,0x03,
15513,-1576,-492,230,45500,55440,-80780,,,,,,,0x03,
15522,-1427,-377,153,57820,47180,-64330,,,,,,,0x03,
15532,-1306,-328,44,51520,36540,-38010,,,,,,,0x03,
15542,-1200,-329,5,45290,35350,-14420,,,,,,,0x03,
15551,-1100,-333,30,42910,34580,-2730,,,,,,,0x03,
15561,-1021,-292,46,39970,29820,-2800,,,,,,,0x03,
15571,-957,-198,73,36330,25480,-7630,,,,,,,0x03,
15580,-908,-99,121,34440,24500,-9450,,,,,,,0x03,
15590,-874,-27,155,29400,25480,-6020,,,,,,,0x03,
15600,-849,13,193,23030,23380,-910,,,,,,,0x03,
15609,-849,9,211,12530,13720,7350,,,,,,,0x03,
15619,-883,-41,199,-1050,3990,17010,,,,,,,0x03,
15629,-921,-118,186,-8120,-490,22960,,,,,,,0x03,
15638,-957,-201,172,-9800,-2660,26040,,,,,,,0x03,
15648,-979,-278,154,-10010,-4900,26110,,,,,,,0x03,
15658,-983,-330,128,-9100,-6720,22890,,,,,,,0x03,
15667,-982,-354,104,-4550,-7910,15470,,,,,,,0x03,
15677,-965,-341,94,1470,-7770,5530,,,,,,,0x03,
15687,-952,-294,84,7700,-6440,-3500,,,,,,,0x03,
15696,-936,-241,86,10010,-5950,-9030,,,,,,,0x03,
15706,-931,-200,91,6230,-5250,-10080,,,,,,,0x03,
15716,-927,-179,87,-770,-4060,-8260,,,,,,,0x03,
15725,-929,-193,84,-6160,-2450,-4550,,,,,,,0x03,
15735,-944,-240,79,-10290,-1610,-280,,,,,,,0x03,
15745,-947,-273,78,-13860,-1470,350,,,,,,,0x03,
15754,-947,-270,80,-17500,-1540,-2380,,,,,,,0x03,
15764,-947,-248,85,-20160,-2240,-4480,,,,,,,0x03,
15774,-946,-226,98,-21280,-3150,-4970,,,,,,,0x03,
15783,-943,-208,111,-20510,-3640,-4620,,,,,,,0x03,
15793,-940,-202,124,-18830,-4550,-3710,,,,,,,0x03,
15803,-940,-210,129,-17290,-4900,-2590,,,,,,,0x03,
15812,-947,-221,141,-15190,-4970,-2310,,,,,,,0x03,
15822,-951,-223,149,-13370,-4340,-2730,,,,,,,0x03,
15832,-954,-222,162,-10220,-2030,-3290,,,,,,,0x03,
15842,-968,-227,192,-7840,-910,-2800,,,,,,,0x03,
15851,-996,-259,203,-7280,-1120,-140,,,,,,,0x03,
15861,-1033,-309,206,-1540,-840,140,,,,,,,0x03,
15871,-1072,-341,194,4200,-1190,-1400,,,,,,,0x03,
15880,-1094,-358,181,8190,-980,-3220,,,,,,,0x03,
15890,-1109,-375,163,12390,0,-4760,,,,,,,0x03,
15900,-1108,-385,158,16940,1610,-6790,,,,,,,0x03,
15909,-1105,-385,177,19390,3850,-9100,,,,,,,0x03,
15919,-1100,-389,208,19110,3710,-10640,,,,,,,0x03,
15929,-1110,-395,224,17290,1400,-11760,,,,,,,0x03,
15938,-1116,-394,227,17430,-910,-13790,,,,,,,0x03,
15948,-1116,-385,225,22120,-1050,-16730,,,,,,,0x03,
15958,-1106,-369,210,28000,-1260,-18970,,,,,,,0x03,
15967,-1069,-339,200,34650,-980,-21490,,,,,,,0x03,
15977,-1031,-316,208,39340,-1470,-23240,,,,,,,0x03,
15987,-1013,-294,201,38990,-5880,-23380,,,,,,,0x03,
15996,-1000,-276,189,37380,-10150,-22960,,,,,,,0x03,
16006,-993,-273,153,38430,-12110,-22610,,,,,,,0x03,
16016,-979,-278,131,42350,-11550,-23800,,,,,,,0x03,
16025,-956,-272,117,39130,-12950,-24500,,,,,,,0x03,
16035,-947,-248,98,32900,-14770,-24920,,,,,,,0x03,
16045,-928,-226,105,28280,-14000,-24290,,,,,,,0x03,
16054,-910,-222,110,23800,-12670,-21140,,,,,,,0x03,
16064,-892,-233,113,21350,-11270,-18830,,,,,,,0x03,
16074,-877,-239,111,19040,-11830,-18550,,,,,,,0x03,
16083,-865,-225,106,14420,-13510,-18340,,,,,,,0x03,
16093,-862,-203,100,10290,-14700,-17710,,,,,,,0x03,
16103,-861,-196,105,4970,-15260,-14560,,,,,,,0x03,
16112,-856,-223,129,840,-15680,-10640,,,,,,,0x03,
16122,-868,-258,148,-3080,-15890,-7420,,,,,,,0x03,
16132,-870,-277,172,-2240,-14910,-9170,,,,,,,0x03,
16141,-860,-275,186,-1890,-15470,-12110,,,,,,,0x03,
16151,-880,-268,173,-1470,-17710,-14770,,,,,,,0x03,
16161,-897,-258,170,-910,-16730,-17290,,,,,,,0x03,
16170,-907,-256,172,-490,-14210,-17850,,,,,,,0x03,
16180,-931,-274,186,560,-12530,-16800,,,,,,,0x03,
16190,-962,-308,197,2730,-10710,-16590,,,,,,,0x03,
16199,-983,-340,201,8960,-8470,-17640,,,,,,,0x03,
16209,-984,-365,235,12530,-4970,-18200,,,,,,,0x03,
16219,-990,-382,249,15330,-5110,-19460,,,,,,,0x03,
16228,-984,-392,256,17290,-5180,-21630,,,,,,,0x03,
16238,-981,-395,220,21700,-7490,-22750,,,,,,,0x03,
16248,-953,-384,223,24220,-7910,-23800,,,,,,,0x03,
16257,-941,-370,201,23800,-10360,-24290,,,,,,,0x03,
16267,-932,-339,187,22540,-12600,-24220,,,,,,,0x03,
16277,-909,-306,170,18900,-13860,-23170,,,,,,,0x03,
16286,-888,-267,169,14770,-14280,-21840,,,,,,,0x03,
16296,-865,-234,159,10290,-14280,-19810,,,,,,,0x03,
16306,-837,-208,171,7280,-12880,-17150,,,,,,,0x03,
16315,-820,-199,186,2730,-12670,-13370,,,,,,,0x03,
16325,-817,-206,175,-700,-13860,-10150,,,,,,,0x03,
16335,-821,-211,162,-1960,-13650,-8680,,,,,,,0x03,
16344,-818,-203,161,-1890,-11900,-7770,,,,,,,0x03,
16354,-817,-197,148,-2100,-10290,-5810,,,,,,,0x03,
16364,-813,-195,143,-2310,-8400,-3220,,,,,,,0x03,
16373,-816,-200,145,-2800,-6650,-630,,,,,,,0x03,
16383,-827,-213,157,-4620,-5180,2170,,,,,,,0x03,
16393,-831,-235,183,-5950,-4270,4690,,,,,,,0x03,
16402,-837,-266,215,-8190,-3920,6720,,,,,,,0x03,
16412,-855,-292,225,-9660,-5040,7140,,,,,,,0x03,
16422,-875,-309,227,-9170,-5180,6300,,,,,,,0x03,
16431,-890,-322,232,-7770,-4130,5390,,,,,,,0x03,
16441,-908,-330,229,-6300,-3010,4130,,,,,,,0x03,
16451,-915,-336,237,-6300,-2030,3640,,,,,,,0x03,
16460,-919,-344,241,-6370,-2100,3570,,,,,,,0x03,
16470,-926,-351,238,-6160,-2800,3640,,,,,,,0x03,
16480,-929,-353,230,-5460,-3150,3500,,,,,,,0x03,
16489,-928,-345,229,-2870,-2100,3220,,,,,,,0x03,
16499,-919,-333,240,-1470,-210,3850,,,,,,,0x03,
16509,-908,-329,239,-1820,420,5250,,,,,,,0x03,
16518,-901,-317,235,-2030,560,5670,,,,,,,0x03,
16528,-891,-296,216,-1960,1260,5950,,,,,,,0x03,
16538,-883,-274,198,-1400,2380,6370,,,,,,,0x03,
16548,-877,-249,189,-1050,3990,7770,,,,,,,0x03,
16557,-865,-226,198,-1890,6300,10360,,,,,,,0x03,
16567,-852,-208,195,-2660,8120,13510,,,,,,,0x03,
16577,-830,-199,207,-2800,9800,16450,,,,,,,0x03,
16586,-820,-191,202,-4830,10290,19180,,,,,,,0x03,
16596,-821,-179,174,-4900,9800,20790,,,,,,,0x03,
16606,-817,-160,145,-3850,12040,22260,,,,,,,0x03,
16615,-813,-136,130,-1050,15540,24220,,,,,,,0x03,
16625,-804,-105,158,-980,19600,27300,,,,,,,0x03,
16635,-814,-85,196,-3990,21770,31990,,,,,,,0x03,
16644,-847,-93,200,-5530,21000,36400,,,,,,,0x03,
16654,-891,-128,174,-2730,21630,39270,,,,,,,0x03,
16664,-921,-181,150,2660,26390,40250,,,,,,,0x03,
16673,-960,-244,104,8820,31990,38640,,,,,,,0x03,
16683,-974,-290,119,15330,39200,33810,,,,,,,0x03,
16693,-977,-326,169,19180,46270,27020,,,,,,,0x03,
16702,-975,-367,215,19250,47670,19600,,,,,,,0x03,
16712,-974,-396,258,15750,45990,13930,,,,,,,0x03,
16722,-976,-406,229,10990,40040,9520,,,,,,,0x03,
16731,-981,-376,146,5530,33390,6790,,,,,,,0x03,
16741,-986,-315,79,4130,32690,6230,,,,,,,0x03,
16751,-986,-258,50,6440,37030,8820,,,,,,,0x03,
16760,-963,-221,61,2520,39620,15610,,,,,,,0x03,
16770,-950,-222,59,-5530,38710,23660,,,,,,,0x03,
16780,-951,-244,39,-11480,37590,29890,,,,,,,0x03,
16789,-946,-249,51,-13370,38500,32200,,,,,,,0x03,
16799,-933,-229,97,-13720,39340,31640,,,,,,,0x03,
16809,-934,-218,141,-17290,37520,30380,,,,,,,0x03,
16818,-946,-216,149,-22750,32970,29750,,,,,,,0x03,
16828,-954,-220,125,-25480,28630,29330,,,,,,,0x03,
16838,-953,-207,100,-25690,25620,27860,,,,,,,0x03,
16847,-949,-177,90,-23800,25340,25970,,,,,,,0x03,
16857,-966,-139,85,-17990,26880,24220,,,,,,,0x03,
16867,-958,-118,145,-12670,31990,23240,,,,,,,0x03,
16876,-963,-150,249,-18340,33530,26110,,,,,,,0x03,
16886,-1009,-260,317,-31360,27580,29820,,,,,,,0x03,
16896,-1077,-404,326,-42350,18340,30030,,,,,,,0x03,
16905,-1153,-514,267,-49000,8400,26040,,,,,,,0x03,
16915,-1225,-548,134,-41580,2520,15260,,,,,,,0x03,
16925,-1243,-500,26,-24990,5250,2170,,,,,,,0x03,
16934,-1212,-409,-46,-11340,10570,-6720,,,,,,,0x03,
16944,-1164,-311,-90,-1470,16310,-9730,,,,,,,0x03,
16954,-1077,-221,-99,4340,22610,-7140,,,,,,,0x03,
16963,-998,-171,-76,5670,25690,-1540,,,,,,,0x03,
16973,-946,-142,-53,2800,27300,2730,,,,,,,0x03,
16983,-900,-99,-28,1960,31220,3990,,,,,,,0x03,
16992,-854,-36,11,1890,33320,3640,,,,,,,0x03,
17002,-818,21,37,0,29610,3010,,,,,,,0x03,
17012,-799,86,75,-490,21630,5530,,,,,,,0x03,
17021,-806,109,111,1540,13440,11480,,,,,,,0x03,
17031,-835,73,152,-4200,2030,21210,,,,,,,0x03,
17041,-884,-15,190,-24290,-9590,33950,,,,,,,0x03,
17050,-982,-145,208,-49840,-17430,44940,,,,,,,0x03,
17060,-1130,-295,140,-59640,-15540,47460,,,,,,,0x03,
17070,-1271,-530,58,-40320,-3150,40600,,,,,,,0x03,
17079,-1451,-844,-19,-26180,16870,33320,,,,,,,0x03,
17089,-1403,-829,-200,-31920,25970,19250,,,,,,,0x03,
17099,-1236,-694,-160,-14210,14700,-14350,,,,,,,0x03,
17108,-1220,-468,-116,2310,9310,-32970,,,,,,,0x03,
17118,-1129,-230,-4,10430,8400,-36190,,,,,,,0x03,
17128,-1052,-64,65,18410,7420,-26950,,,,,,,0x03,
17137,-1005,19,102,29050,8260,-11270,,,,,,,0x03,
17147,-972,40,109,43470,8890,1120,,,,,,,0x03,
17157,-958,31,76,56140,6370,7210,,,,,,,0x03,
17166,-948,16,24,59080,1540,10850,,,,,,,0x03,
17176,-936,0,-15,55160,-490,13720,,,,,,,0x03,
17186,-929,-45,-40,43120,910,17080,,,,,,,0x03,
17195,-929,-125,-51,23100,3150,20020,,,,,,,0x03,
17205,-945,-212,-56,3780,4970,17010,,,,,,,0x03,
17215,-964,-252,-46,-9380,4200,8400,,,,,,,0x03,
17224,-985,-231,-33,-16170,2450,-1050,,,,,,,0x03,
17234,-1003,-183,-16,-17430,1050,-6790,,,,,,,0x03,
17244,-1016,-158,0,-16100,350,-7070,,,,,,,0x03,
17254,-1028,-164,14,-13300,-420,-4760,,,,,,,0x03,
17263,-1039,-178,20,-7700,-770,-3080,,,,,,,0x03,
17273,-1039,-177,21,-1470,-700,-2240,,,,,,,0x03,
17283,-1017,-155,11,3710,-350,-1470,,,,,,,0x03,
17292,-994,-123,5,7490,-630,-560,,,,,,,0x03,
17302,-972,-99,-4,8400,-840,210,,,,,,,0x03,
17312,-947,-75,-4,8120,420,280,,,,,,,0x03,
17321,-930,-59,0,6720,1330,980,,,,,,,0x03,
17331,-923,-72,0,2660,1120,2170,,,,,,,0x03,
17341,-932,-105,3,-2590,980,2940,,,,,,,0x03,
17350,-957,-139,8,-8960,1050,2310,,,,,,,0x03,
17360,-987,-171,7,-14980,1610,1470,,,,,,,0x03,
17370,-1021,-210,-4,-19460,2030,1190,,,,,,,0x03,
17379,-1053,-247,-23,-21280,2520,0,,,,,,,0x03,
17389,-1073,-264,-34,-19110,3640,-3150,,,,,,,0x03,
17399,-1077,-253,-40,-14560,5250,-6650,,,,,,,0x03,
17408,-1076,-236,-43,-8890,6860,-9170,,,,,,,0x03,
17418,-1056,-206,-38,-4060,9100,-10360,,,,,,,0x03,
17428,-1027,-179,-22,-2730,10500,-10150,,,,,,,0x03,
17437,-1006,-158,-13,-2240,11830,-10010,,,,,,,0x03,
17447,-986,-150,5,-910,13300,-10360,,,,,,,0x03,
17457,-975,-153,24,-1960,12810,-10010,,,,,,,0x03,
17466,-982,-166,22,-3710,11620,-10360,,,,,,,0x03,
17476,-989,-187,20,-5460,10850,-10710,,,,,,,0x03,
17486,-996,-215,12,-8050,9730,-9730,,,,,,,0x03,
17495,-1013,-241,-2,-8820,7140,-9520,,,,,,,0x03,
17505,-1034,-267,-19,-7700,3990,-9800,,,,,,,0x03,
17515,-1038,-282,-53,-3500,2380,-10290,,,,,,,0x03,
17524,-1038,-280,-78,2030,1050,-13020,,,,,,,0x03,
17534,-1033,-261,-95,6020,-70,-15820,,,,,,,0x03,
17544,-1028,-236,-107,8260,-70,-17570,,,,,,,0x03,
17553,-1018,-202,-110,10710,1960,-18970,,,,,,,0x03,
17563,-994,-154,-99,12880,4340,-19320,,,,,,,0x03,
17573,-961,-109,-83,12740,5950,-18200,,,,,,,0x03,
17582,-930,-77,-71,10780,6090,-16030,,,,,,,0x03,
17592,-905,-54,-58,7000,5110,-13650,,,,,,,0x03,
17602,-880,-37,-41,3220,3920,-11130,,,,,,,0x03,
17611,-870,-31,-33,-140,1400,-8260,,,,,,,0x03,
17621,-864,-34,-26,-4900,-1960,-5180,,,,,,,0x03,
17631,-869,-45,-27,-10010,-4550,-2100,,,,,,,0x03,
17640,-884,-70,-22,-12950,-6300,700,,,,,,,0x03,
17650,-899,-106,-16,-14910,-7070,3780,,,,,,,0x03,
17660,-915,-153,-15,-16450,-7980,6160,,,,,,,0x03,
17669,-932,-194,-17,-18410,-8820,6440,,,,,,,0x03,
17679,-949,-216,-26,-18200,-8400,4830,,,,,,,0x03,
17689,-964,-219,-33,-15890,-7350,2590,,,,,,,0x03,
17698,-969,-216,-41,-13440,-5530,420,,,,,,,0x03,
17708,-971,-210,-44,-11130,-3570,-70,,,,,,,0x03,
17718,-967,-199,-46,-11270,-2450,840,,,,,,,0x03,
17727,-968,-191,-45,-12250,-2520,2310,,,,,,,0x03,
17737,-969,-186,-35,-14070,-3080,4760,,,,,,,0x03,
17747,-973,-193,-21,-13650,-2590,7280,,,,,,,0x03,
17756,-974,-206,-11,-12950,-2660,9030,,,,,,,0x03,
17766,-984,-224,-12,-13440,-3500,10500,,,,,,,0x03,
17776,-1001,-241,-15,-13160,-3290,10430,,,,,,,0x03,
17785,-1013,-248,-18,-11900,-1680,8680,,,,,,,0x03,
17795,-1021,-258,-26,-9170,770,6930,,,,,,,0x03,
17805,-1022,-263,-24,-5320,2730,4970,,,,,,,0x03,
17814,-1021,-254,-21,-1960,4200,2590,,,,,,,0x03,
17824,-1014,-235,-20,1050,4900,490,,,,,,,0x03,
17834,-1005,-215,-18,3430,5180,-910,,,,,,,0x03,
17843,-998,-195,-17,5110,5110,-1820,,,,,,,0x03,
17853,-990,-172,-16,7070,4900,-2310,,,,,,,0x03,
17863,-986,-153,-18,8470,4760,-1750,,,,,,,0x03,
17872,-980,-147,-28,8470,4690,-70,,,,,,,0x03,
17882,-975,-149,-36,8750,4830,1330,,,,,,,0x03,
17892,-975,-155,-40,8890,5390,2240,,,,,,,0x03,
17901,-976,-162,-45,7840,5740,2940,,,,,,,0x03,
17911,-980,-171,-49,6090,5950,3430,,,,,,,0x03,
17921,-989,-181,-50,3920,5880,3640,,,,,,,0x03,
17930,-999,-191,-52,2030,5600,3780,,,,,,,0x03,
17940,-1015,-202,-54,1470,5110,3710,,,,,,,0x03,
17950,-1019,-211,-56,3220,5110,2590,,,,,,,0x03,
17960,-1021,-218,-57,6440,5740,1260,,,,,,,0x03,
17969,-1018,-219,-57,8260,5810,420,,,,,,,0x03,
17979,-1014,-214,-53,9520,5530,-350,,,,,,,0x03,
17989,-1007,-200,-46,11130,5810,-1330,,,,,,,0x03,
17998,-998,-178,-47,13230,6230,-2170,,,,,,,0x03,
18008,-992,-158,-50,16450,6860,-2730,,,,,,,0x03,
18018,-988,-141,-58,18200,7770,-2170,,,,,,,0x03,
18027,-980,-132,-62,17080,8470,-490,,,,,,,0x03,
18037,-977,-137,-70,14910,9240,1540,,,,,,,0x03,
18047,-977,-149,-60,14490,10010,2520,,,,,,,0x03,
18056,-974,-168,-42,11620,10290,3500,,,,,,,0x03,
18066,-977,-194,-29,8610,9030,3920,,,,,,,0x03,
18076,-987,-219,-30,5950,6860,2590,,,,,,,0x03,
18085,-1002,-227,-45,4550,5460,350,,,,,,,0x03,
18095,-1006,-219,-49,3290,5530,-1050,,,,,,,0x03,
18105,-1009,-201,-52,4410,5880,-1750,,,,,,,0x03,
18114,-1004,-180,-55,7490,6020,-2310,,,,,,,0x03,
18124,-994,-165,-56,9520,6090,-1050,,,,,,,0x03,
18134,-989,-172,-63,10080,5670,1190,,,,,,,0x03,
18143,-984,-187,-67,8960,4970,2520,,,,,,,0x03,
18153,-981,-193,-77,7980,4690,2030,,,,,,,0x03,
18163,-978,-183,-75,7350,5460,700,,,,,,,0x03,
18172,-975,-173,-75,7280,6790,280,,,,,,,0x03,
18182,-973,-167,-76,7910,7560,350,,,,,,,0x03,
18192,-972,-166,-74,7980,7770,490,,,,,,,0x03,
18201,-976,-162,-80,7910,8400,700,,,,,,,0x03,
18211,-981,-159,-87,8400,9240,630,,,,,,,0x03,
18221,-989,-155,-106,9030,10430,980,,,,,,,0x03,
18230,-992,-153,-122,10080,12040,1890,,,,,,,0x03,
18240,-988,-164,-102,10360,14140,3150,,,,,,,0x03,
18250,-990,-185,-67,10640,14140,4340,,,,,,,0x03,
18259,-1000,-205,-49,9240,11060,4270,,,,,,,0x03,
18269,-1006,-211,-52,7000,8260,4060,,,,,,,0x03,
18279,-1008,-207,-65,7490,6790,3010,,,,,,,0x03,
18288,-1005,-194,-72,9100,5880,2100,,,,,,,0x03,
18298,-1001,-182,-84,9520,5110,2030,,,,,,,0x03,
18308,-998,-170,-87,9870,4130,2870,,,,,,,0x03,
18317,-993,-168,-90,10080,3360,4130,,,,,,,0x03,
18327,-985,-169,-85,9590,2310,4900,,,,,,,0x03,
18337,-983,-176,-79,6580,630,5950,,,,,,,0x03,
18346,-985,-185,-83,5110,-420,6090,,,,,,,0x03,
18356,-985,-187,-72,5530,-910,4830,,,,,,,0x03,
18366,-984,-188,-70,2730,-2800,4760,,,,,,,0x03,
18375,-984,-184,-67,350,-5110,4690,,,,,,,0x03,
18385,-979,-172,-54,-1190,-7140,4270,,,,,,,0x03,
18395,-986,-160,-61,-2520,-9940,4550,,,,,,,0x03,
18404,-1001,-169,-96,-1890,-11410,4970,,,,,,,0x03,
18414,-1002,-197,-114,-1190,-10430,5040,,,,,,,0x03,
18424,-1001,-209,-102,-2240,-9940,4340,,,,,,,0x03,
18433,-1002,-186,-98,-3710,-9310,3430,,,,,,,0x03,
18443,-993,-148,-100,-2730,-7630,3220,,,,,,,0x03,
18453,-981,-137,-90,-2590,-6580,5460,,,,,,,0x03,
18462,-973,-135,-96,-6370,-7350,8330,,,,,,,0x03,
18472,-975,-146,-116,-8890,-8260,9800,,,,,,,0x03,
18482,-979,-144,-135,-8120,-8470,9520,,,,,,,0x03,
18491,-985,-117,-148,-6650,-6930,9380,,,,,,,0x03,
18501,-988,-85,-137,-5810,-4480,11130,,,,,,,0x03,
18511,-993,-76,-140,-4970,-1890,14560,,,,,,,0x03,
18520,-999,-81,-146,-2030,980,17850,,,,,,,0x03,
18530,-1001,-94,-148,1680,4760,21350,,,,,,,0x03,
18540,-997,-109,-156,5600,8120,23870,,,,,,,0x03,
18549,-1007,-117,-185,10780,11410,24780,,,,,,,0x03,
18559,-1021,-78,-211,16450,14560,24010,,,,,,,0x03,
18569,-1012,-24,-220,17990,18200,25550,,,,,,,0x03,
18578,-1001,-1,-210,18060,22050,29680,,,,,,,0x03,
18588,-1006,-21,-197,17430,25130,34370,,,,,,,0x03,
18598,-1010,-58,-176,14910,28140,37240,,,,,,,0x03,
18607,-1009,-79,-154,10570,30940,37660,,,,,,,0x03,
18617,-998,-77,-135,3570,31850,36820,,,,,,,0x03,
18627,-974,-70,-115,-1960,30730,34090,,,,,,,0x03,
18636,-958,-60,-88,-7490,27650,29820,,,,,,,0x03,
18646,-927,-33,-53,-13580,22820,27300,,,,,,,0x03,
18656,-893,-17,20,-20650,17220,26740,,,,,,,0x03,
18666,-849,-21,203,-32760,9240,29400,,,,,,,0x03,
18675,-681,-33,872,-72030,-3710,39270,,,,,,,0x03,
18685,-828,-258,746,-136150,-52220,59640,,,,,,,0x03,
18695,-1200,-483,220,-83090,-118160,44240,,,,,,,0x03,
18704,-1234,-500,12,-16590,-121170,-6300,,,,,,,0x03,
18714,-1122,-277,-117,-32480,-101430,-41160,,,,,,,0x03,
18724,-1099,4,-202,-60480,-66010,-49910,,,,,,,0x03,
18733,-1054,180,-206,-38710,-17990,-38780,,,,,,,0x03,
18743,-1013,96,-120,2310,16520,-18060,,,,,,,0x03,
18753,-1066,-105,-110,18760,23730,-3920,,,,,,,0x03,
18762,-1143,-292,-67,23590,25550,1050,,,,,,,0x03,
18772,-1233,-436,-8,26880,33110,-280,,,,,,,0x03,
18782,-1288,-525,65,38990,26530,-8680,,,,,,,0x03,
18791,-1326,-572,15,54670,7070,-21840,,,,,,,0x03,
18801,-1354,-544,-55,68180,2310,-39760,,,,,,,0x03,
18811,-1317,-432,-76,87990,6720,-59710,,,,,,,0x03,
18820,-1240,-320,-89,103950,7280,-72660,,,,,,,0x03,
18830,-1198,-241,-141,104860,4620,-76720,,,,,,,0x03,
18840,-1141,-195,-179,100450,1750,-77210,,,,,,,0x03,
18849,-1086,-138,-143,89880,-1960,-73570,,,,,,,0x03,
18859,-1029,-87,-90,76860,-5950,-67620,,,,,,,0x03,
18869,-996,-82,-81,66080,-12810,-59850,,,,,,,0x03,
18878,-989,-79,-92,60970,-18200,-52780,,,,,,,0x03,
18888,-993,-97,-59,65240,-18340,-48580,,,,,,,0x03,
18898,-984,-124,-30,63770,-20790,-45290,,,,,,,0x03,
18907,-1017,-127,-63,52990,-26810,-42210,,,,,,,0x03,
18917,-1028,-121,-68,49840,-27930,-39900,,,,,,,0x03,
18927,-1038,-126,-36,47250,-28210,-35210,,,,,,,0x03,
18936,-1032,-162,-27,41090,-31010,-31500,,,,,,,0x03,
18946,-1030,-190,-44,32760,-33250,-28280,,,,,,,0x03,
18956,-1020,-201,-51,26880,-33040,-27510,,,,,,,0x03,
18965,-994,-190,-61,18340,-33250,-26460,,,,,,,0x03,
18975,-963,-163,-59,9450,-33250,-24430,,,,,,,0x03,
18985,-920,-129,-46,840,-33810,-21910,,,,,,,0x03,
18994,-898,-110,-52,-5810,-34230,-18760,,,,,,,0x03,
19004,-887,-101,-53,-9940,-33040,-15190,,,,,,,0x03,
19014,-868,-101,-26,-12810,-31780,-10780,,,,,,,0x03,
19023,-856,-105,-18,-15540,-32690,-6440,,,,,,,0x03,
19033,-851,-117,-9,-17360,-33670,-1750,,,,,,,0x03,
19043,-857,-138,-3,-18620,-34160,2240,,,,,,,0x03,
19052,-861,-160,2,-19950,-33740,5390,,,,,,,0x03,
19062,-865,-175,5,-20580,-32830,6650,,,,,,,0x03,
19072,-859,-178,11,-22260,-32620,6650,,,,,,,0x03,
19081,-856,-178,24,-23100,-32900,6860,,,,,,,0x03,
19091,-857,-177,27,-23940,-33320,8260,,,,,,,0x03,
19101,-854,-179,49,-24710,-34370,10710,,,,,,,0x03,
19110,-857,-185,70,-25900,-35420,12390,,,,,,,0x03,
19120,-850,-190,89,-25970,-37380,13230,,,,,,,0x03,
19130,-854,-208,94,-26180,-39830,14210,,,,,,,0x03,
19139,-853,-232,80,-26110,-42630,14560,,,,,,,0x03,
19149,-863,-251,56,-26530,-43260,13510,,,,,,,0x03,
19159,-876,-266,6,-24010,-41580,8260,,,,,,,0x03,
19168,-879,-250,-31,-20930,-34020,1610,,,,,,,0x03,
19178,-870,-229,-6,-19110,-18760,-1890,,,,,,,0x03,
19188,-861,-219,63,-21420,-7350,-3150,,,,,,,0x03,
19197,-871,-239,127,-25900,-2800,-4060,,,,,,,0x03,
19207,-913,-295,170,-24780,350,-4200,,,,,,,0x03,
19217,-970,-385,179,-17780,-980,-6510,,,,,,,0x03,
19226,-1021,-444,148,-9940,-5460,-14770,,,,,,,0x03,
19236,-1050,-455,109,-2240,-5810,-26250,,,,,,,0x03,
19246,-1060,-421,96,3220,-2660,-34580,,,,,,,0x03,
19255,-1047,-362,78,6650,-1540,-38990,,,,,,,0x03,
19265,-1022,-282,66,10570,-700,-41090,,,,,,,0x03,
19275,-990,-210,74,11410,140,-40040,,,,,,,0x03,
19284,-959,-152,78,9520,0,-34720,,,,,,,0x03,
19294,-924,-116,92,6650,70,-27440,,,,,,,0x03,
19304,-895,-104,112,5320,630,-20440,,,,,,,0x03,
19313,-885,-109,113,4480,-140,-14000,,,,,,,0x03,
19323,-890,-129,91,4690,-280,-8890,,,,,,,0x03,
19333,-903,-162,69,5950,1400,-5390,,,,,,,0x03,
19342,-916,-197,48,6860,3150,-3500,,,,,,,0x03,
19352,-922,-214,56,7000,5950,-3080,,,,,,,0x03,
19362,-927,-215,87,5530,6440,-1820,,,,,,,0x03,
19372,-929,-218,120,2800,5320,700,,,,,,,0x03,
19381,-941,-227,140,2240,3290,2660,,,,,,,0x03,
19391,-963,-233,149,4060,1750,3990,,,,,,,0x03,
19401,-984,-238,142,7980,1050,5460,,,,,,,0x03,
19410,-1001,-250,115,11410,490,7350,,,,,,,0x03,
19420,-1003,-269,87,13650,1330,8820,,,,,,,0x03,
19430,-992,-284,77,15120,3010,9100,,,,,,,0x03,
19439,-976,-296,78,14350,3640,8330,,,,,,,0x03,
19449,-968,-301,82,12250,3430,6370,,,,,,,0x03,
19459,-959,-302,89,10290,3150,4270,,,,,,,0x03,
19468,-953,-290,105,8890,3500,3080,,,,,,,0x03,
19478,-942,-275,128,7210,3640,2870,,,,,,,0x03,
19488,-943,-262,136,5740,2660,3150,,,,,,,0x03,
19497,-950,-256,130,5040,1750,3430,,,,,,,0x03,
19507,-964,-258,117,5390,1890,3990,,,,,,,0x03,
19517,-972,-260,96,6090,2660,4480,,,,,,,0x03,
19526,-976,-264,75,6860,3990,4690,,,,,,,0x03,
19536,-972,-261,63,7350,5810,4550,,,,,,,0x03,
19546,-962,-253,66,7490,6930,4480,,,,,,,0x03,
19555,-945,-245,87,6580,7910,5180,,,,,,,0x03,
19565,-937,-241,105,5740,7770,5950,,,,,,,0x03,
19575,-938,-238,101,5530,6580,6580,,,,,,,0x03,
19584,-943,-238,85,6650,6440,7070,,,,,,,0x03,
19594,-950,-235,57,8610,6860,6790,,,,,,,0x03,
19604,-949,-214,51,9800,8890,6370,,,,,,,0x03,
19613,-941,-189,47,10220,11060,7070,,,,,,,0x03,
19623,-924,-163,58,10430,13020,8820,,,,,,,0x03,
19633,-915,-141,77,9940,14630,11760,,,,,,,0x03,
19642,-910,-132,83,9800,14420,14770,,,,,,,0x03,
19652,-911,-126,95,10570,15120,17640,,,,,,,0x03,
19662,-917,-124,116,10080,15400,20160,,,,,,,0x03,
19671,-919,-129,141,8050,15680,22470,,,,,,,0x03,
19681,-942,-163,149,6930,14070,24710,,,,,,,0x03,
19691,-974,-238,157,6650,13650,25340,,,,,,,0x03,
19700,-1009,-316,154,7490,14070,21700,,,,,,,0x03,
19710,-1034,-374,125,9870,14280,16030,,,,,,,0x03,
19720,-1055,-408,84,11130,14840,10430,,,,,,,0x03,
