#Format version: 1.0
time[ms],accX[mg],accY[mg],accZ[mg],gyroX[mdps],gyroY[mdps],gyroZ[mdps],magnX[mG],magnY[mG],magnZ[mG],press[hPa],temp[°C],hum[0,-65,-166,-1001,-1120,-350,5880,,,,,,,0x03,
10,-62,-189,-985,-1750,70,6860,,,,,,,0x03,
19,-69,-218,-980,-1750,420,6930,,,,,,,0x03,
29,-78,-235,-978,-70,700,6230,,,,,,,0x03,
39,-73,-221,-979,2450,770,5600,,,,,,,0x03,
48,-67,-198,-976,3360,280,5390,,,,,,,0x03,
58,-70,-192,-981,2030,-140,4970,,,,,,,0x03,
67,-75,-195,-985,210,-420,4480,,,,,,,0x03,
77,-73,-195,-988,-560,-420,4060,,,,,,,0x03,
87,-69,-188,-987,70,-280,4270,,,,,,,0x03,
96,-70,-189,-984,770,-70,4690,,,,,,,0x03,
106,-73,-189,-983,1540,210,4830,,,,,,,0x03,
116,-75,-185,-979,2660,420,4970,,,,,,,0x03,
125,-73,-177,-977,3360,560,4970,,,,,,,0x03,
135,-73,-172,-976,3360,490,5320,,,,,,,0x03,
145,-80,-176,-977,3010,490,5460,,,,,,,0x03,
154,-85,-185,-977,2730,420,5320,,,,,,,0x03,
164,-83,-185,-979,2310,420,4970,,,,,,,0x03,
174,-76,-181,-981,2240,560,4340,,,,,,,0x03,
183,-71,-178,-983,1890,560,3990,,,,,,,0x03,
193,-72,-173,-985,1470,700,3570,,,,,,,0x03,
202,-69,-176,-981,1680,980,3500,,,,,,,0x03,
212,-71,-181,-982,1540,1260,3570,,,,,,,0x03,
222,-75,-187,-985,1820,1400,3430,,,,,,,0x03,
231,-83,-195,-987,1890,1470,3220,,,,,,,0x03,
241,-85,-189,-997,2170,1610,3010,,,,,,,0x03,
251,-77,-177,-996,2800,1820,3080,,,,,,,0x03,
260,-76,-166,-995,2590,1890,3430,,,,,,,0x03,
270,-85,-166,-990,1540,1890,3780,,,,,,,0x03,
280,-90,-178,-995,1120,1890,4130,,,,,,,0x03,
289,-88,-190,-996,1750,1820,4550,,,,,,,0x03,
299,-79,-184,-998,3080,1750,4690,,,,,,,0x03,
308,-84,-177,-999,3500,1540,5040,,,,,,,0x03,
318,-93,-172,-1001,2310,1330,5320,,,,,,,0x03,
328,-94,-169,-1004,980,1260,5880,,,,,,,0x03,
337,-90,-174,-1002,210,1050,6790,,,,,,,0x03,
347,-80,-181,-1000,280,910,7490,,,,,,,0x03,
357,-73,-174,-998,1960,1330,8260,,,,,,,0x03,
366,-79,-185,-984,1960,1050,9030,,,,,,,0x03,
376,-70,-194,-994,0,700,8260,,,,,,,0x03,
386,-71,-191,-994,630,980,7770,,,,,,,0x03,
395,-85,-171,-982,280,840,7490,,,,,,,0x03,
405,-81,-159,-984,-1190,1050,7420,,,,,,,0x03,
415,-73,-178,-974,-1680,980,7840,,,,,,,0x03,
424,-69,-188,-981,-980,1120,7560,,,,,,,0x03,
434,-75,-187,-986,1820,1540,7210,,,,,,,0x03,
443,-79,-174,-986,3150,1610,6860,,,,,,,0x03,
453,-81,-152,-989,2590,1680,6510,,,,,,,0x03,
463,-87,-148,-982,700,1680,6860,,,,,,,0x03,
472,-91,-169,-979,-2030,1610,6860,,,,,,,0x03,
482,-85,-193,-983,-2800,1750,6580,,,,,,,0x03,
492,-78,-207,-980,-1050,2100,6020,,,,,,,0x03,
501,-77,-207,-981,1400,2380,5180,,,,,,,0x03,
511,-78,-192,-981,3430,2590,4550,,,,,,,0x03,
521,-82,-175,-984,3500,2590,4060,,,,,,,0x03,
530,-88,-169,-984,1750,2450,3710,,,,,,,0x03,
540,-87,-175,-984,-700,2170,3500,,,,,,,0x03,
549,-82,-185,-989,-2310,2170,3640,,,,,,,0x03,
559,-74,-198,-989,-1890,2310,3430,,,,,,,0x03,
569,-76,-204,-987,-280,2310,3150,,,,,,,0x03,
578,-83,-206,-988,1540,2380,2730,,,,,,,0x03,
588,-87,-196,-986,2520,2100,2100,,,,,,,0x03,
598,-87,-180,-988,2310,1890,1750,,,,,,,0x03,
607,-85,-178,-988,980,1540,1890,,,,,,,0x03,
617,-83,-185,-987,-910,1260,2030,,,,,,,0x03,
627,-78,-193,-989,-1610,1190,2030,,,,,,,0x03,
636,-70,-197,-992,-630,1400,2240,,,,,,,0x03,
646,-71,-194,-994,910,1680,2660,,,,,,,0x03,
656,-73,-193,-994,2030,1890,2730,,,,,,,0x03,
665,-72,-180,-991,1470,1820,2660,,,,,,,0x03,
675,-71,-167,-990,-420,1610,2870,,,,,,,0x03,
684,-70,-176,-984,-2520,1470,3500,,,,,,,0x03,
694,-75,-198,-983,-3990,1400,3990,,,,,,,0x03,
704,-80,-210,-983,-3430,1330,3850,,,,,,,0x03,
713,-77,-203,-990,-1750,1540,3780,,,,,,,0x03,
723,-74,-181,-996,-280,1680,4200,,,,,,,0x03,
733,-69,-170,-997,-350,1470,4830,,,,,,,0x03,
742,-68,-170,-993,-1680,1190,5180,,,,,,,0x03,
752,-70,-176,-992,-2240,1330,5250,,,,,,,0x03,
762,-68,-181,-988,-1960,1400,5670,,,,,,,0x03,
771,-65,-177,-986,-1540,1400,5880,,,,,,,0x03,
781,-65,-174,-983,-770,1400,6090,,,,,,,0x03,
790,-62,-173,-989,-280,1400,6370,,,,,,,0x03,
800,-58,-170,-995,0,1400,6370,,,,,,,0x03,
810,-59,-166,-995,350,1470,6370,,,,,,,0x03,
819,-68,-160,-999,70,1400,6300,,,,,,,0x03,
829,-74,-152,-1001,-840,1470,6300,,,,,,,0x03,
839,-73,-152,-998,-1890,1260,6580,,,,,,,0x03,
848,-72,-156,-995,-3430,770,6720,,,,,,,0x03,
858,-71,-160,-994,-4620,350,6580,,,,,,,0x03,
868,-66,-161,-993,-4480,210,6510,,,,,,,0x03,
877,-61,-166,-993,-3570,350,6650,,,,,,,0x03,
887,-62,-169,-984,-2030,560,6440,,,,,,,0x03,
897,-64,-179,-994,-2100,210,5810,,,,,,,0x03,
906,-60,-172,-996,-1960,140,4620,,,,,,,0x03,
916,-65,-153,-992,-1750,-70,4200,,,,,,,0x03,
925,-69,-146,-994,-3640,-490,4130,,,,,,,0x03,
935,-62,-156,-992,-5040,-700,4130,,,,,,,0x03,
945,-58,-168,-995,-5110,-770,3850,,,,,,,0x03,
954,-54,-169,-999,-3850,-770,3430,,,,,,,0x03,
964,-53,-166,-999,-1750,-700,3430,,,,,,,0x03,
974,-59,-157,-997,-840,-700,3150,,,,,,,0x03,
983,-59,-146,-1003,-700,-560,2800,,,,,,,0x03,
993,-54,-138,-1001,-1190,-560,2590,,,,,,,0x03,
1003,-53,-132,-995,-2590,-770,2310,,,,,,,0x03,
1012,-60,-128,-992,-4550,-770,1960,,,,,,,0x03,
1022,-63,-134,-987,-5950,-770,1820,,,,,,,0x03,
1031,-56,-153,-981,-6440,-770,1890,,,,,,,0x03,
1041,-52,-167,-983,-6160,-840,1400,,,,,,,0x03,
1051,-56,-169,-986,-4620,-770,630,,,,,,,0x03,
1060,-60,-166,-988,-3080,-630,280,,,,,,,0x03,
1070,-61,-164,-993,-2590,-700,140,,,,,,,0x03,
1080,-62,-162,-996,-2520,-770,-350,,,,,,,0x03,
1089,-61,-159,-994,-2520,-630,-490,,,,,,,0x03,
1099,-61,-159,-992,-2870,-630,-560,,,,,,,0x03,
1109,-65,-166,-991,-3710,-910,-700,,,,,,,0x03,
1118,-67,-174,-994,-4060,-980,-980,,,,,,,0x03,
1128,-64,-174,-997,-3640,-910,-1260,,,,,,,0x03,
1138,-62,-168,-1001,-3640,-1050,-1470,,,,,,,0x03,
1147,-65,-160,-1004,-3640,-1120,-1680,,,,,,,0x03,
1157,-69,-150,-1006,-2940,-980,-1610,,,,,,,0x03,
1166,-69,-141,-1008,-2310,-1050,-1330,,,,,,,0x03,
1176,-67,-137,-1007,-2380,-1190,-1050,,,,,,,0x03,
1186,-70,-129,-1007,-2240,-1330,-840,,,,,,,0x03,
1195,-77,-119,-1008,-2240,-1400,-280,,,,,,,0x03,
1205,-72,-123,-1007,-3360,-1680,490,,,,,,,0x03,
1215,-70,-137,-1007,-4550,-1960,770,,,,,,,0x03,
1224,-81,-154,-1005,-5460,-2380,560,,,,,,,0x03,
1234,-88,-159,-1007,-5600,-2590,350,,,,,,,0x03,
1244,-80,-153,-1007,-5110,-2800,490,,,,,,,0x03,
1253,-73,-139,-1005,-4410,-2940,700,,,,,,,0x03,
1263,-76,-131,-1001,-4060,-3220,840,,,,,,,0x03,
1272,-78,-125,-994,-4340,-3710,1120,,,,,,,0x03,
1282,-76,-119,-992,-5040,-3990,1330,,,,,,,0x03,
1292,-72,-126,-989,-5250,-3990,1610,,,,,,,0x03,
1301,-71,-144,-984,-5530,-3920,1680,,,,,,,0x03,
1311,-70,-153,-984,-4970,-3570,1050,,,,,,,0x03,
1321,-64,-150,-984,-2940,-2940,560,,,,,,,0x03,
1330,-62,-143,-988,-1190,-2310,210,,,,,,,0x03,
1340,-62,-130,-988,-210,-1820,-280,,,,,,,0x03,
1350,-65,-119,-990,-700,-1680,-770,,,,,,,0x03,
1359,-59,-107,-988,-2310,-1470,-1050,,,,,,,0x03,
1369,-58,-111,-990,-4060,-980,-1120,,,,,,,0x03,
1379,-67,-128,-990,-5320,-560,-1120,,,,,,,0x03,
1388,-73,-139,-990,-4760,-140,-1400,,,,,,,0x03,
1398,-68,-144,-990,-2870,210,-1470,,,,,,,0x03,
1407,-66,-141,-993,-560,420,-1400,,,,,,,0x03,
1417,-72,-137,-991,560,420,-1540,,,,,,,0x03,
1427,-76,-129,-993,420,280,-1820,,,,,,,0x03,
1436,-73,-131,-996,-700,0,-1750,,,,,,,0x03,
1446,-73,-138,-1000,-1960,-350,-1960,,,,,,,0x03,
1456,-80,-140,-1004,-2240,-560,-2100,,,,,,,0x03,
1465,-82,-139,-1003,-1960,-630,-2030,,,,,,,0x03,
1475,-83,-137,-1002,-2310,-910,-2240,,,,,,,0x03,
1485,-79,-131,-1006,-2380,-980,-2310,,,,,,,0x03,
1494,-85,-129,-1005,-1960,-770,-1750,,,,,,,0x03,
1504,-92,-125,-1002,-1820,-980,-1680,,,,,,,0x03,
1513,-86,-123,-1002,-2030,-1120,-1680,,,,,,,0x03,
1523,-82,-129,-1004,-2030,-910,-980,,,,,,,0x03,
1533,-73,-133,-1002,-1470,-980,-560,,,,,,,0x03,
1542,-65,-130,-1001,-770,-910,-700,,,,,,,0x03,
1552,-68,-124,-1002,-210,-770,-490,,,,,,,0x03,
1562,-71,-128,-997,-140,-910,-140,,,,,,,0x03,
1571,-74,-131,-992,-840,-1050,70,,,,,,,0x03,
1581,-75,-135,-989,-1610,-1190,140,,,,,,,0x03,
1591,-71,-143,-988,-2240,-1400,-210,,,,,,,0x03,
1600,-59,-144,-990,-2450,-1610,-700,,,,,,,0x03,
1610,-58,-144,-994,-1470,-1330,-1050,,,,,,,0x03,
1620,-62,-141,-991,-70,-1050,-1260,,,,,,,0x03,
1629,-69,-129,-993,630,-560,-1260,,,,,,,0x03,
1639,-67,-124,-995,700,-280,-1050,,,,,,,0x03,
1648,-66,-123,-997,-210,-350,-980,,,,,,,0x03,
1658,-75,-121,-1000,-1330,-630,-1260,,,,,,,0x03,
1668,-75,-122,-995,-2030,-840,-1120,,,,,,,0x03,
1677,-69,-129,-995,-2660,-770,-700,,,,,,,0x03,
1687,-66,-141,-996,-2310,-630,-420,,,,,,,0x03,
1697,-66,-153,-994,-840,-560,-700,,,,,,,0x03,
1706,-67,-146,-992,840,-420,-840,,,,,,,0x03,
1716,-70,-145,-995,1400,-350,-840,,,,,,,0x03,
1726,-76,-143,-996,770,-490,-1190,,,,,,,0x03,
1735,-82,-135,-999,140,-490,-1400,,,,,,,0x03,
1745,-77,-131,-999,-770,-490,-1330,,,,,,,0x03,
1755,-69,-127,-1002,-1680,-700,-1610,,,,,,,0x03,
1764,-70,-126,-1005,-1540,-700,-1470,,,,,,,0x03,
1774,-73,-123,-1001,-1120,-630,-1260,,,,,,,0x03,
1783,-70,-121,-1001,-980,-630,-980,,,,,,,0x03,
1793,-71,-129,-995,-980,-630,-490,,,,,,,0x03,
1803,-76,-141,-991,-910,-630,-350,,,,,,,0x03,
1812,-75,-150,-992,-140,-560,-350,,,,,,,0x03,
1822,-71,-150,-992,700,-630,-350,,,,,,,0x03,
1832,-69,-143,-996,1050,-840,-700,,,,,,,0x03,
1841,-71,-133,-997,1050,-840,-840,,,,,,,0x03,
1851,-71,-133,-999,350,-910,-840,,,,,,,0x03,
1861,-65,-147,-1001,-420,-910,-560,,,,,,,0x03,
1870,-67,-150,-998,-140,-980,-700,,,,,,,0x03,
1880,-65,-139,-998,490,-840,-1540,,,,,,,0x03,
1889,-67,-125,-998,980,-700,-910,,,,,,,0x03,
1899,-66,-123,-995,280,-700,-980,,,,,,,0x03,
1909,-64,-123,-997,-700,-770,-1050,,,,,,,0x03,
1918,-61,-132,-998,0,-490,70,,,,,,,0x03,
1928,-64,-136,-997,1120,140,1540,,,,,,,0x03,
1938,-70,-134,-998,1470,140,980,,,,,,,0x03,
1947,-69,-131,-993,1120,-420,-350,,,,,,,0x03,
1957,-67,-140,-996,-70,-560,-1190,,,,,,,0x03,
1967,-68,-148,-998,-560,-280,-210,,,,,,,0x03,
1976,-71,-147,-994,70,-210,-70,,,,,,,0x03,
1986,-76,-135,-997,70,-140,-490,,,,,,,0x03,
1996,-77,-132,-999,-140,-280,-210,,,,,,,0x03,
2005,-69,-141,-1000,-210,-630,70,,,,,,,0x03,
2015,-73,-140,-1001,0,-630,210,,,,,,,0x03,
2024,-78,-131,-1003,350,-420,350,,,,,,,0x03,
2034,-75,-126,-1001,140,-420,770,,,,,,,0x03,
2044,-66,-131,-998,-210,-560,1120,,,,,,,0x03,
2053,-68,-139,-995,-280,-770,770,,,,,,,0x03,
2063,-74,-138,-994,140,-770,560,,,,,,,0x03,
2073,-76,-139,-994,630,-630,700,,,,,,,0x03,
2082,-73,-142,-993,910,-560,980,,,,,,,0x03,
2092,-71,-142,-997,1400,-630,910,,,,,,,0x03,
2102,-77,-136,-1002,2380,-560,1050,,,,,,,0x03,
2111,-79,-127,-1002,2380,-630,1400,,,,,,,0x03,
2121,-77,-126,-995,840,-840,1610,,,,,,,0x03,
2130,-71,-138,-998,-140,-560,1680,,,,,,,0x03,
2140,-75,-149,-991,-140,-560,1680,,,,,,,0x03,
2150,-74,-145,-992,490,-490,1400,,,,,,,0x03,
2159,-69,-143,-987,1470,-560,1400,,,,,,,0x03,
2169,-69,-144,-992,1330,-560,1260,,,,,,,0x03,
2179,-65,-140,-993,1050,-630,700,,,,,,,0x03,
2188,-66,-142,-996,630,-630,490,,,,,,,0x03,
2198,-68,-146,-994,350,-840,210,,,,,,,0x03,
2208,-69,-151,-993,350,-910,70,,,,,,,0x03,
2217,-71,-148,-999,840,-770,210,,,,,,,0x03,
2227,-73,-143,-996,770,-770,280,,,,,,,0x03,
2237,-74,-139,-1001,490,-770,210,,,,,,,0x03,
2246,-74,-138,-1002,420,-770,560,,,,,,,0x03,
2256,-69,-134,-999,420,-700,840,,,,,,,0x03,
2265,-63,-132,-997,490,-630,1050,,,,,,,0x03,
2275,-65,-139,-999,560,-770,1330,,,,,,,0x03,
2285,-68,-140,-998,1120,-700,1330,,,,,,,0x03,
2294,-69,-132,-997,1820,-560,1330,,,,,,,0x03,
2304,-71,-127,-999,1330,-420,1470,,,,,,,0x03,
2314,-72,-129,-1001,490,-350,1470,,,,,,,0x03,
2323,-71,-132,-1002,-210,-350,1470,,,,,,,0x03,
2333,-66,-127,-1000,-630,-350,1400,,,,,,,0x03,
2343,-70,-130,-993,-1050,-490,1610,,,,,,,0x03,
2352,-85,-138,-996,-1330,-420,1540,,,,,,,0x03,
2362,-91,-143,-995,-770,-420,1470,,,,,,,0x03,
2371,-84,-137,-991,-210,-840,1540,,,,,,,0x03,
2381,-80,-127,-996,-980,-1190,1330,,,,,,,0x03,
2391,-79,-125,-998,-1960,-1400,1260,,,,,,,0x03,
2400,-76,-133,-997,-3080,-1680,1400,,,,,,,0x03,
2410,-73,-136,-999,-3780,-1820,1050,,,,,,,0x03,
2420,-75,-137,-1001,-3360,-1680,770,,,,,,,0x03,
2429,-80,-131,-998,-3220,-1820,700,,,,,,,0x03,
2439,-78,-129,-1000,-3290,-1680,560,,,,,,,0x03,
2449,-77,-126,-1002,-3080,-1540,700,,,,,,,0x03,
2458,-80,-121,-1002,-2590,-1470,1050,,,,,,,0x03,
2468,-78,-125,-1000,-1820,-1470,1190,,,,,,,0x03,
2478,-82,-126,-1002,-1540,-1260,1190,,,,,,,0x03,
2487,-82,-122,-999,-980,-1120,1120,,,,,,,0x03,
2497,-78,-116,-997,-1120,-1190,980,,,,,,,0x03,
2506,-76,-108,-994,-2310,-1470,910,,,,,,,0x03,
2516,-81,-108,-994,-3500,-1610,770,,,,,,,0x03,
2526,-84,-113,-994,-4410,-1540,770,,,,,,,0x03,
2535,-84,-124,-996,-4550,-1400,980,,,,,,,0x03,
2545,-80,-136,-1002,-3290,-1120,980,,,,,,,0x03,
2555,-78,-136,-1000,-1540,-980,840,,,,,,,0x03,
2564,-78,-121,-998,-420,-1120,420,,,,,,,0x03,
2574,-79,-110,-991,-840,-1330,210,,,,,,,0x03,
2584,-79,-118,-986,-2730,-1540,210,,,,,,,0x03,
2593,-80,-133,-988,-4130,-1610,-140,,,,,,,0x03,
2603,-81,-144,-989,-3500,-1400,-210,,,,,,,0x03,
2612,-80,-143,-993,-1610,-1120,-350,,,,,,,0x03,
2622,-77,-134,-1002,350,-770,-560,,,,,,,0x03,
2632,-77,-124,-1005,1750,-560,-490,,,,,,,0x03,
2641,-75,-113,-1000,1820,-630,-420,,,,,,,0x03,
2651,-70,-105,-1000,910,-630,-420,,,,,,,0x03,
2661,-67,-107,-993,-630,-840,-350,,,,,,,0x03,
2670,-70,-124,-991,-2310,-1120,-420,,,,,,,0x03,
2680,-73,-141,-993,-2800,-1120,-770,,,,,,,0x03,
2690,-78,-149,-996,-1750,-1050,-980,,,,,,,0x03,
2699,-77,-147,-994,0,-980,-1120,,,,,,,0x03,
2709,-78,-136,-995,1400,-980,-1260,,,,,,,0x03,
2719,-76,-124,-997,2240,-980,-1190,,,,,,,0x03,
2728,-72,-119,-998,2170,-910,-910,,,,,,,0x03,
2738,-64,-122,-1000,1680,-840,-770,,,,,,,0x03,
2747,-63,-128,-998,1330,-910,-910,,,,,,,0x03,
2757,-71,-130,-996,630,-980,-1190,,,,,,,0x03,
2767,-76,-129,-997,0,-840,-1610,,,,,,,0x03,
2776,-72,-129,-996,-350,-560,-1820,,,,,,,0x03,
2786,-67,-127,-993,-140,-490,-1820,,,,,,,0x03,
2796,-66,-125,-993,350,-420,-1960,,,,,,,0x03,
2805,-69,-122,-995,630,-420,-1960,,,,,,,0x03,
2815,-72,-122,-998,490,-280,-1820,,,,,,,0x03,
2825,-73,-131,-1001,210,-210,-1540,,,,,,,0x03,
2834,-76,-137,-1001,0,-420,-1680,,,,,,,0x03,
2844,-84,-135,-1005,-140,-560,-1890,,,,,,,0x03,
2853,-82,-125,-1005,-140,-630,-1890,,,,,,,0x03,
2863,-74,-126,-1005,-280,-770,-1470,,,,,,,0x03,
2873,-67,-130,-1003,-420,-980,-1400,,,,,,,0x03,
2882,-70,-130,-1001,-70,-1120,-1330,,,,,,,0x03,
2892,-71,-132,-999,210,-1120,-1120,,,,,,,0x03,
2902,-70,-137,-997,210,-1050,-1050,,,,,,,0x03,
2911,-68,-140,-997,350,-1190,-1190,,,,,,,0x03,
2921,-74,-135,-998,560,-1190,-1400,,,,,,,0x03,
2931,-72,-123,-999,770,-1260,-1260,,,,,,,0x03,
2940,-70,-119,-997,420,-1260,-840,,,,,,,0x03,
2950,-70,-122,-998,-490,-1260,-700,,,,,,,0x03,
2960,-70,-125,-999,-770,-1190,-560,,,,,,,0x03,
2969,-74,-127,-999,-630,-1050,-350,,,,,,,0x03,
2979,-76,-125,-997,-630,-980,-280,,,,,,,0x03,
2988,-76,-122,-993,-910,-840,-210,,,,,,,0x03,
2998,-75,-124,-991,-1400,-770,0,,,,,,,0x03,
3008,-70,-130,-993,-1680,-770,70,,,,,,,0x03,
3017,-69,-138,-995,-980,-560,140,,,,,,,0x03,
3027,-73,-142,-995,210,-420,-70,,,,,,,0x03,
3037,-81,-138,-996,1120,-420,-350,,,,,,,0x03,
3046,-81,-126,-998,1400,-420,-490,,,,,,,0x03,
3056,-78,-120,-1002,700,-630,-280,,,,,,,0x03,
3066,-77,-119,-1000,-350,-770,-140,,,,,,,0x03,
3075,-79,-124,-995,-1540,-840,-70,,,,,,,0x03,
3085,-79,-132,-996,-2170,-910,0,,,,,,,0x03,
3094,-77,-144,-998,-1610,-910,280,,,,,,,0x03,
3104,-80,-146,-997,-350,-770,210,,,,,,,0x03,
3114,-78,-135,-997,1190,-630,210,,,,,,,0x03,
3123,-76,-128,-998,1750,-560,630,,,,,,,0x03,
3133,-78,-124,-999,980,-770,560,,,,,,,0x03,
3143,-77,-120,-999,280,-770,490,,,,,,,0x03,
3152,-75,-123,-997,-560,-770,700,,,,,,,0x03,
3162,-70,-130,-993,-1400,-840,700,,,,,,,0x03,
3172,-70,-142,-991,-1400,-700,560,,,,,,,0x03,
3181,-73,-146,-991,-630,-630,280,,,,,,,0x03,
3191,-76,-138,-993,770,-490,0,,,,,,,0x03,
3201,-79,-130,-997,1680,-350,-70,,,,,,,0x03,
3210,-79,-122,-999,1400,-420,0,,,,,,,0x03,
3220,-78,-116,-997,490,-490,0,,,,,,,0x03,
3229,-74,-115,-998,-770,-560,0,,,,,,,0x03,
3239,-72,-122,-995,-1540,-490,420,,,,,,,0x03,
3249,-71,-131,-995,-1610,-350,490,,,,,,,0x03,
3258,-75,-133,-1000,-910,-210,420,,,,,,,0x03,
3268,-82,-134,-1001,420,-70,700,,,,,,,0x03,
3278,-84,-135,-1003,1540,70,770,,,,,,,0x03,
3287,-82,-132,-1000,1610,-140,770,,,,,,,0x03,
3297,-79,-129,-1001,630,-490,630,,,,,,,0x03,
3307,-80,-126,-999,-770,-840,420,,,,,,,0x03,
3316,-82,-128,-999,-1750,-1120,560,,,,,,,0x03,
3326,-79,-137,-1000,-1960,-1190,560,,,,,,,0x03,
3335,-73,-139,-1000,-910,-1190,490,,,,,,,0x03,
3345,-71,-136,-1001,560,-1190,280,,,,,,,0x03,
3355,-74,-126,-999,1750,-1120,140,,,,,,,0x03,
3364,-78,-118,-992,1540,-1050,140,,,,,,,0x03,
3374,-77,-112,-992,-70,-1120,70,,,,,,,0x03,
3384,-78,-115,-992,-1610,-1190,210,,,,,,,0x03,
3393,-79,-131,-992,-2310,-1190,420,,,,,,,0x03,
3403,-77,-144,-992,-1750,-1120,350,,,,,,,0x03,
3413,-72,-143,-993,-280,-980,-70,,,,,,,0x03,
3422,-72,-130,-991,1120,-840,-420,,,,,,,0x03,
3432,-75,-125,-990,1470,-560,-490,,,,,,,0x03,
3442,-77,-125,-989,1470,-490,-560,,,,,,,0x03,
3451,-72,-128,-992,1540,-420,-700,,,,,,,0x03,
3461,-72,-128,-994,1610,-420,-840,,,,,,,0x03,
3470,-77,-122,-998,1540,-350,-1330,,,,,,,0x03,
3480,-72,-119,-1000,1050,-210,-1260,,,,,,,0x03,
3490,-66,-126,-1005,700,-70,-1260,,,,,,,0x03,
3499,-71,-133,-1003,1190,70,-1470,,,,,,,0x03,
3509,-79,-125,-1001,2030,280,-1750,,,,,,,0x03,
3519,-81,-114,-1003,1960,350,-1540,,,,,,,0x03,
3528,-82,-109,-1003,910,0,-1190,,,,,,,0x03,
3538,-86,-114,-1003,-420,-350,-910,,,,,,,0x03,
3548,-85,-117,-1006,-1400,-560,-560,,,,,,,0x03,
3557,-81,-127,-1006,-1680,-630,-140,,,,,,,0x03,
3567,-80,-137,-1003,-1400,-770,70,,,,,,,0x03,
3576,-79,-138,-1004,-420,-770,140,,,,,,,0x03,
3586,-81,-134,-1001,770,-770,280,,,,,,,0x03,
3596,-84,-129,-998,840,-910,350,,,,,,,0x03,
3605,-82,-126,-996,770,-980,560,,,,,,,0x03,
3615,-78,-126,-994,420,-1120,840,,,,,,,0x03,
3625,-73,-123,-993,-280,-1260,700,,,,,,,0x03,
3634,-73,-123,-991,-1050,-1400,630,,,,,,,0x03,
3644,-71,-134,-989,-1890,-1470,770,,,,,,,0x03,
3654,-63,-140,-989,-1960,-1400,630,,,,,,,0x03,
3663,-65,-141,-992,-980,-1120,420,,,,,,,0x03,
3673,-70,-139,-994,-70,-840,210,,,,,,,0x03,
3683,-73,-131,-994,770,-630,0,,,,,,,0x03,
3692,-67,-122,-995,1540,-420,0,,,,,,,0x03,
3702,-68,-120,-995,1680,-210,280,,,,,,,0x03,
3711,-71,-119,-998,1470,-140,350,,,,,,,0x03,
3721,-72,-117,-1000,1120,-70,420,,,,,,,0x03,
3731,-75,-117,-1000,280,-140,630,,,,,,,0x03,
3740,-77,-124,-999,-420,-140,630,,,,,,,0x03,
3750,-79,-135,-1001,-560,-140,700,,,,,,,0x03,
3760,-78,-147,-1002,420,-140,770,,,,,,,0x03,
3769,-78,-150,-1003,2030,-140,560,,,,,,,0x03,
3779,-78,-140,-1005,3710,140,560,,,,,,,0x03,
3789,-80,-131,-1004,4270,70,280,,,,,,,0x03,
3798,-80,-120,-999,3570,-210,-70,,,,,,,0x03,
3808,-77,-115,-993,2450,-350,-280,,,,,,,0x03,
3817,-75,-120,-991,1330,-700,-280,,,,,,,0x03,
3827,-72,-125,-992,280,-1190,-560,,,,,,,0x03,
3837,-76,-122,-992,-350,-1540,-840,,,,,,,0x03,
3846,-78,-120,-994,-1190,-1680,-1050,,,,,,,0x03,
3856,-75,-122,-997,-2030,-1750,-1190,,,,,,,0x03,
3866,-74,-127,-1002,-2100,-1540,-980,,,,,,,0x03,
3875,-70,-129,-1004,-1330,-1400,-980,,,,,,,0x03,
3885,-68,-127,-1002,0,-1190,-1050,,,,,,,0x03,
3895,-69,-130,-999,1120,-1120,-910,,,,,,,0x03,
3904,-66,-131,-997,1890,-910,-980,,,,,,,0x03,
3914,-66,-132,-995,2660,-840,-1050,,,,,,,0x03,
3924,-70,-128,-989,2590,-840,-1260,,,,,,,0x03,
3933,-77,-122,-988,1610,-910,-1470,,,,,,,0x03,
3943,-78,-127,-991,-70,-1050,-1470,,,,,,,0x03,
3952,-75,-133,-998,-1120,-1120,-1540,,,,,,,0x03,
3962,-74,-136,-1001,-1120,-1120,-1820,,,,,,,0x03,
3972,-72,-134,-1004,-350,-1050,-2030,,,,,,,0x03,
3981,-71,-127,-1005,770,-910,-2170,,,,,,,0x03,
3991,-73,-122,-1001,1540,-910,-2310,,,,,,,0x03,
4001,-76,-114,-999,1260,-910,-2240,,,,,,,0x03,
4010,-79,-111,-995,350,-980,-1820,,,,,,,0x03,
4020,-82,-120,-993,-840,-980,-1400,,,,,,,0x03,
4030,-79,-132,-999,-1470,-980,-1120,,,,,,,0x03,
4039,-73,-136,-1001,-1050,-1050,-910,,,,,,,0x03,
4049,-72,-133,-1000,-140,-1120,-910,,,,,,,0x03,
4058,-82,-130,-999,-70,-1190,-910,,,,,,,0x03,
4068,-84,-130,-997,-560,-1190,-770,,,,,,,0x03,
4078,-79,-135,-997,-840,-1190,-490,,,,,,,0x03,
4087,-82,-141,-995,-700,-1260,-350,,,,,,,0x03,
4097,-88,-137,-997,-490,-1470,-420,,,,,,,0x03,
4107,-85,-132,-1000,-560,-1540,-210,,,,,,,0x03,
4116,-80,-131,-1002,-910,-1680,140,,,,,,,0x03,
4126,-77,-135,-1003,-770,-1750,420,,,,,,,0x03,
4136,-73,-135,-1000,-280,-1680,700,,,,,,,0x03,
4145,-68,-133,-998,-70,-1610,980,,,,,,,0x03,
4155,-70,-137,-993,-140,-1680,1190,,,,,,,0x03,
4165,-76,-139,-992,-490,-1610,1260,,,,,,,0x03,
4174,-74,-136,-989,-630,-1540,1470,,,,,,,0x03,
4184,-63,-138,-988,-350,-1190,1820,,,,,,,0x03,
4193,-62,-151,-990,210,-770,1890,,,,,,,0x03,
4203,-63,-155,-988,1050,-490,1400,,,,,,,0x03,
4213,-67,-149,-983,1960,-280,1050,,,,,,,0x03,
4222,-65,-144,-985,2100,-70,770,,,,,,,0x03,
4232,-65,-140,-992,1820,210,560,,,,,,,0x03,
4242,-67,-142,-994,1400,280,630,,,,,,,0x03,
4251,-75,-142,-996,910,280,350,,,,,,,0x03,
4261,-82,-134,-999,1050,280,350,,,,,,,0x03,
4271,-85,-130,-1002,1050,350,700,,,,,,,0x03,
4280,-84,-130,-1002,910,140,980,,,,,,,0x03,
4290,-86,-131,-1003,840,0,1050,,,,,,,0x03,
4299,-89,-132,-999,770,-140,1260,,,,,,,0x03,
4309,-94,-138,-997,280,-420,1260,,,,,,,0x03,
4319,-93,-148,-995,-140,-700,1190,,,,,,,0x03,
4328,-89,-154,-996,210,-980,1050,,,,,,,0x03,
4338,-88,-150,-1000,980,-1120,840,,,,,,,0x03,
4348,-87,-137,-1002,1680,-1120,770,,,,,,,0x03,
4357,-83,-129,-1003,1470,-1260,840,,,,,,,0x03,
4367,-77,-123,-1003,490,-1470,770,,,,,,,0x03,
4377,-75,-118,-1000,-490,-1470,490,,,,,,,0x03,
4386,-79,-117,-993,-1190,-1400,560,,,,,,,0x03,
4396,-78,-125,-990,-1610,-1260,770,,,,,,,0x03,
4406,-77,-133,-990,-1470,-1190,700,,,,,,,0x03,
4415,-78,-128,-993,-350,-1120,560,,,,,,,0x03,
4425,-80,-122,-993,490,-1050,770,,,,,,,0x03,
4434,-81,-118,-993,70,-1050,980,,,,,,,0x03,
4444,-78,-124,-992,-1120,-1190,980,,,,,,,0x03,
4454,-74,-128,-995,-2100,-1330,840,,,,,,,0x03,
4463,-78,-128,-992,-2660,-1400,700,,,,,,,0x03,
4473,-80,-127,-991,-3500,-1470,560,,,,,,,0x03,
4483,-73,-131,-995,-4270,-1400,420,,,,,,,0x03,
4492,-62,-141,-995,-3780,-1050,350,,,,,,,0x03,
4502,-59,-146,-996,-1680,-560,280,,,,,,,0x03,
4512,-66,-140,-995,1050,-70,-70,,,,,,,0x03,
4521,-75,-126,-991,2240,140,-490,,,,,,,0x03,
4531,-80,-120,-991,1890,420,-700,,,,,,,0x03,
4540,-83,-128,-992,1050,280,-490,,,,,,,0x03,
4550,-83,-132,-995,350,140,-490,,,,,,,0x03,
4560,-82,-130,-1001,140,0,-700,,,,,,,0x03,
4569,-80,-128,-1004,-140,-210,-770,,,,,,,0x03,
4579,-77,-131,-1006,-350,-210,-630,,,,,,,0x03,
4589,-77,-140,-1006,-70,-140,-420,,,,,,,0x03,
4598,-81,-143,-1007,910,-140,-490,,,,,,,0x03,
4608,-88,-134,-1002,2030,-210,-700,,,,,,,0x03,
4618,-89,-123,-999,1960,-420,-630,,,,,,,0x03,
4627,-84,-119,-998,700,-770,-490,,,,,,,0x03,
4637,-79,-120,-998,-630,-1120,-350,,,,,,,0x03,
4647,-79,-130,-1000,-1610,-1260,-280,,,,,,,0x03,
4656,-78,-138,-1001,-1610,-1260,-350,,,,,,,0x03,
4666,-76,-147,-999,-490,-1120,-420,,,,,,,0x03,
4675,-79,-147,-1000,1050,-1050,-700,,,,,,,0x03,
4685,-89,-128,-997,2240,-980,-1190,,,,,,,0x03,
4695,-94,-104,-995,2170,-1120,-1330,,,,,,,0x03,
4704,-88,-100,-994,630,-1190,-840,,,,,,,0x03,
4714,-79,-115,-996,-1050,-1470,-560,,,,,,,0x03,
4724,-76,-127,-1000,-1680,-1470,-490,,,,,,,0x03,
4733,-76,-133,-1000,-1260,-1260,-420,,,,,,,0x03,
4743,-78,-139,-999,-840,-1120,-490,,,,,,,0x03,
4753,-81,-143,-997,-560,-980,-840,,,,,,,0x03,
4762,-80,-140,-996,70,-980,-1050,,,,,,,0x03,
4772,-79,-135,-992,420,-1120,-1120,,,,,,,0x03,
4782,-78,-133,-991,210,-1330,-1190,,,,,,,0x03,
4791,-75,-138,-988,-700,-1540,-1260,,,,,,,0x03,
4801,-74,-141,-992,-1960,-1820,-1750,,,,,,,0x03,
4810,-80,-139,-997,-2590,-1890,-2100,,,,,,,0x03,
4820,-84,-135,-1001,-2380,-1750,-2170,,,,,,,0x03,
4830,-86,-125,-1005,-2380,-1610,-2100,,,,,,,0x03,
4839,-85,-120,-1001,-2590,-1750,-1890,,,,,,,0x03,
4849,-79,-118,-991,-3570,-1960,-1750,,,,,,,0x03,
4859,-70,-124,-1001,-4200,-1890,-1610,,,,,,,0x03,
4868,-71,-127,-987,-4410,-2170,-1400,,,,,,,0x03,
4878,-71,-139,-989,-4410,-1820,-1820,,,,,,,0x03,
4888,-74,-146,-984,-3220,-1470,-1820,,,,,,,0x03,
4897,-74,-155,-986,-1540,-1190,-1750,,,,,,,0x03,
4907,-76,-158,-991,1330,-770,-2100,,,,,,,0x03,
4916,-85,-143,-991,3360,-490,-2310,,,,,,,0x03,
4926,-87,-124,-991,3710,-490,-2660,,,,,,,0x03,
4936,-81,-123,-997,2660,-490,-2660,,,,,,,0x03,
4945,-81,-124,-997,1120,-560,-2660,,,,,,,0x03,
4955,-82,-124,-998,840,-490,-2730,,,,,,,0x03,
4965,-78,-130,-998,1050,-420,-2520,,,,,,,0x03,
4974,-78,-132,-1000,1260,-490,-2450,,,,,,,0x03,
4984,-83,-133,-1000,2030,-420,-2590,,,,,,,0x03,
4994,-78,-130,-1001,3150,-70,-2380,,,,,,,0x03,
5003,-75,-123,-1004,3920,140,-1960,,,,,,,0x03,
5013,-71,-115,-1002,4550,280,-1680,,,,,,,0x03,
5023,-76,-112,-1001,3990,140,-1330,,,,,,,0x03,
5032,-82,-112,-999,1890,-210,-1190,,,,,,,0x03,
5042,-83,-122,-995,-280,-280,-1260,,,,,,,0x03,
5051,-84,-140,-995,-1610,-350,-1190,,,,,,,0x03,
5061,-84,-157,-995,-1470,-420,-1260,,,,,,,0x03,
5071,-83,-158,-996,140,-350,-1540,,,,,,,0x03,
5080,-86,-146,-997,1680,-420,-1610,,,,,,,0x03,
5090,-85,-133,-997,1750,-770,-1680,,,,,,,0x03,
5100,-89,-127,-1000,700,-1190,-1470,,,,,,,0x03,
5109,-85,-131,-997,-910,-1470,-1050,,,,,,,0x03,
5119,-78,-138,-1001,-1820,-1540,-700,,,,,,,0x03,
5129,-76,-140,-1004,-1890,-1610,-560,,,,,,,0x03,
5138,-72,-139,-1005,-910,-1400,-630,,,,,,,0x03,
5148,-72,-136,-1003,490,-1050,-630,,,,,,,0x03,
5157,-77,-128,-1000,1610,-980,-630,,,,,,,0x03,
5167,-80,-122,-992,2310,-840,-420,,,,,,,0x03,
5177,-83,-122,-983,1470,-910,-210,,,,,,,0x03,
5186,-84,-127,-980,-630,-1260,-140,,,,,,,0x03,
5196,-80,-141,-987,-2380,-1540,-140,,,,,,,0x03,
5206,-79,-156,-996,-2450,-1610,-210,,,,,,,0x03,
5215,-77,-159,-1003,-980,-1400,-560,,,,,,,0x03,
5225,-73,-146,-1006,1120,-980,-700,,,,,,,0x03,
5235,-69,-135,-1008,3010,-630,-630,,,,,,,0x03,
5244,-68,-131,-1005,3850,-420,-420,,,,,,,0x03,
5254,-73,-126,-998,4060,-490,-420,,,,,,,0x03,
5264,-81,-122,-993,3360,-630,-280,,,,,,,0x03,
5273,-83,-127,-988,1890,-840,-280,,,,,,,0x03,
5283,-79,-136,-989,910,-910,-140,,,,,,,0x03,
5292,-80,-149,-992,910,-980,-140,,,,,,,0x03,
5302,-86,-152,-993,1680,-980,-630,,,,,,,0x03,
5312,-87,-146,-997,2870,-910,-1050,,,,,,,0x03,
5321,-85,-139,-994,3290,-910,-1050,,,,,,,0x03,
5331,-87,-138,-993,2380,-1260,-1260,,,,,,,0x03,
5341,-86,-131,-997,1330,-1260,-1610,,,,,,,0x03,
5350,-79,-128,-990,-70,-1400,-1820,,,,,,,0x03,
5360,-76,-134,-992,-980,-1470,-1960,,,,,,,0x03,
5370,-81,-145,-991,-1050,-1470,-2170,,,,,,,0x03,
5379,-80,-146,-993,-560,-1400,-2240,,,,,,,0x03,
5389,-78,-140,-995,420,-1190,-2240,,,,,,,0x03,
5398,-78,-138,-993,1050,-1050,-2100,,,,,,,0x03,
5408,-79,-136,-996,560,-1120,-1890,,,,,,,0x03,
5418,-81,-134,-996,-560,-1190,-1890,,,,,,,0x03,
5427,-82,-138,-992,-1750,-1330,-1680,,,,,,,0x03,
5437,-81,-150,-992,-2660,-1330,-1540,,,,,,,0x03,
5447,-83,-163,-993,-2660,-1330,-1400,,,,,,,0x03,
5456,-78,-168,-997,-1330,-1260,-1540,,,,,,,0x03,
5466,-74,-161,-996,560,-1120,-1750,,,,,,,0x03,
5476,-74,-143,-999,1960,-980,-1750,,,,,,,0x03,
5485,-74,-127,-999,2030,-980,-1540,,,,,,,0x03,
5495,-73,-120,-992,700,-980,-1260,,,,,,,0x03,
5505,-73,-127,-989,-910,-1050,-840,,,,,,,0x03,
5514,-75,-144,-989,-1540,-980,-280,,,,,,,0x03,
5524,-75,-157,-990,-490,-770,-210,,,,,,,0x03,
5533,-76,-157,-993,1050,-560,-350,,,,,,,0x03,
5543,-80,-145,-998,2170,-490,-280,,,,,,,0x03,
5553,-79,-134,-1001,1610,-630,0,,,,,,,0x03,
5562,-78,-126,-1004,-280,-910,210,,,,,,,0x03,
5572,-81,-126,-1004,-1820,-1120,420,,,,,,,0x03,
5582,-83,-139,-1004,-2240,-1050,980,,,,,,,0x03,
5591,-80,-152,-1001,-1680,-910,1190,,,,,,,0x03,
5601,-77,-158,-998,210,-840,1190,,,,,,,0x03,
5611,-77,-156,-996,2240,-980,1260,,,,,,,0x03,
5620,-80,-151,-998,2940,-1120,1120,,,,,,,0x03,
5630,-76,-139,-1000,2660,-1190,980,,,,,,,0x03,
5639,-71,-134,-997,1610,-1190,1190,,,,,,,0x03,
5649,-76,-142,-993,560,-1120,1260,,,,,,,0x03,
5659,-80,-150,-995,350,-1050,1260,,,,,,,0x03,
5668,-82,-149,-995,1750,-700,1260,,,,,,,0x03,
5678,-79,-146,-993,3850,-280,1400,,,,,,,0x03,
5688,-81,-145,-996,5040,-70,1330,,,,,,,0x03,
5697,-84,-135,-996,5460,-140,910,,,,,,,0x03,
5707,-84,-116,-997,5110,-70,700,,,,,,,0x03,
5717,-86,-110,-997,3010,-210,1050,,,,,,,0x03,
5726,-86,-114,-995,70,-560,1120,,,,,,,0x03,
5736,-85,-122,-996,-1680,-560,1120,,,,,,,0x03,
5746,-79,-128,-996,-1820,-490,1120,,,,,,,0x03,
5755,-75,-133,-999,-1260,-420,1190,,,,,,,0x03,
5765,-78,-142,-996,0,-210,1120,,,,,,,0x03,
5774,-88,-146,-990,840,-140,840,,,,,,,0x03,
5784,-87,-141,-988,560,-350,700,,,,,,,0x03,
5794,-83,-138,-989,-840,-700,630,,,,,,,0x03,
5803,-84,-142,-993,-2310,-980,630,,,,,,,0x03,
5813,-84,-149,-993,-2940,-1050,420,,,,,,,0x03,
5823,-79,-157,-994,-2240,-1050,560,,,,,,,0x03,
5832,-82,-155,-996,-980,-1120,560,,,,,,,0x03,
5842,-83,-144,-995,420,-910,280,,,,,,,0x03,
5852,-77,-137,-994,1260,-700,490,,,,,,,0x03,
5861,-75,-133,-994,560,-910,420,,,,,,,0x03,
5871,-80,-128,-994,560,-840,0,,,,,,,0x03,
5880,-81,-127,-992,980,-420,210,,,,,,,0x03,
5890,-76,-130,-993,1190,-280,700,,,,,,,0x03,
5900,-77,-139,-991,2030,-140,770,,,,,,,0x03,
5909,-85,-140,-995,3010,70,840,,,,,,,0x03,
5919,-92,-132,-998,3430,280,840,,,,,,,0x03,
5929,-85,-124,-1000,3010,210,1050,,,,,,,0x03,
5938,-83,-122,-1000,1190,0,1330,,,,,,,0x03,
5948,-82,-122,-1000,-980,-140,1190,,,,,,,0x03,
5958,-84,-136,-997,-1960,-140,1260,,,,,,,0x03,
5967,-86,-155,-998,-2100,-140,1260,,,,,,,0x03,
5977,-89,-159,-996,-630,-210,910,,,,,,,0x03,
5987,-92,-155,-996,1260,-140,700,,,,,,,0x03,
5996,-94,-147,-998,2380,-280,560,,,,,,,0x03,
6006,-90,-138,-1000,2450,-490,420,,,,,,,0x03,
6015,-85,-129,-1001,1820,-700,490,,,,,,,0x03,
6025,-84,-127,-1004,490,-980,700,,,,,,,0x03,
6035,-83,-129,-1000,-630,-1050,910,,,,,,,0x03,
6044,-82,-148,-998,-1190,-1050,1190,,,,,,,0x03,
6054,-86,-159,-997,-560,-980,910,,,,,,,0x03,
6064,-89,-151,-994,1330,-840,630,,,,,,,0x03,
6073,-92,-130,-990,2100,-910,490,,,,,,,0x03,
6083,-87,-117,-990,1260,-980,420,,,,,,,0x03,
6093,-78,-121,-993,-350,-1050,840,,,,,,,0x03,
6102,-72,-131,-996,-1190,-910,980,,,,,,,0x03,
6112,-73,-141,-996,-560,-700,980,,,,,,,0x03,
6121,-76,-147,-993,840,-280,1050,,,,,,,0x03,
6131,-76,-143,-990,2030,0,840,,,,,,,0x03,
6141,-79,-133,-989,2940,210,630,,,,,,,0x03,
6150,-84,-127,-993,3080,280,700,,,,,,,0x03,
6160,-89,-126,-998,2170,210,910,,,,,,,0x03,
6170,-88,-130,-1006,1330,280,1190,,,,,,,0x03,
6179,-88,-135,-1004,490,140,1330,,,,,,,0x03,
6189,-89,-138,-1000,-560,-140,1400,,,,,,,0x03,
6199,-90,-149,-998,-1540,-350,1400,,,,,,,0x03,
6208,-89,-164,-994,-1820,-560,980,,,,,,,0x03,
6218,-88,-168,-999,-980,-630,350,,,,,,,0x03,
6228,-89,-156,-998,420,-770,-70,,,,,,,0x03,
6237,-95,-133,-997,630,-1120,-210,,,,,,,0x03,
6247,-98,-120,-993,-560,-1330,-70,,,,,,,0x03,
6256,-92,-129,-994,-1820,-1470,280,,,,,,,0x03,
6266,-83,-143,-993,-1890,-1400,560,,,,,,,0x03,
6276,-78,-149,-990,-1190,-1540,280,,,,,,,0x03,
6285,-84,-148,-992,-70,-1400,140,,,,,,,0x03,
6295,-86,-150,-989,700,-1120,210,,,,,,,0x03,
6305,-81,-149,-987,420,-1260,-70,,,,,,,0x03,
6314,-78,-138,-988,-70,-1330,-700,,,,,,,0x03,
6324,-76,-131,-987,-630,-1190,-700,,,,,,,0x03,
6334,-72,-135,-989,-1680,-1120,-490,,,,,,,0x03,
6343,-69,-144,-994,-1960,-980,-560,,,,,,,0x03,
6353,-70,-147,-994,-1190,-700,-840,,,,,,,0x03,
6362,-70,-145,-993,140,-280,-840,,,,,,,0x03,
6372,-73,-147,-993,980,0,-770,,,,,,,0x03,
6382,-79,-147,-993,1470,280,-840,,,,,,,0x03,
6391,-79,-137,-992,1680,350,-910,,,,,,,0x03,
6401,-78,-129,-995,1050,350,-630,,,,,,,0x03,
6411,-76,-133,-996,-210,210,-280,,,,,,,0x03,
6420,-80,-143,-997,-1470,0,-350,,,,,,,0x03,
6430,-82,-150,-1000,-1330,0,-350,,,,,,,0x03,
6440,-78,-154,-1003,-420,0,-140,,,,,,,0x03,
6449,-75,-151,-1003,700,-70,-210,,,,,,,0x03,
6459,-77,-143,-1004,1400,-140,-280,,,,,,,0x03,
6469,-80,-137,-1006,1120,-210,-70,,,,,,,0x03,
6478,-79,-132,-1005,210,-350,280,,,,,,,0x03,
6488,-80,-131,-1006,-1050,-490,770,,,,,,,0x03,
6497,-84,-136,-1003,-1820,-630,1260,,,,,,,0x03,
6507,-79,-151,-992,-1960,-910,1890,,,,,,,0x03,
6517,-72,-165,-991,-1540,-1120,2450,,,,,,,0x03,
6526,-66,-170,-988,-490,-1260,2310,,,,,,,0x03,
6536,-64,-167,-983,280,-1470,1890,,,,,,,0x03,
6546,-69,-163,-985,70,-1330,1540,,,,,,,0x03,
6555,-68,-164,-983,-350,-1120,1330,,,,,,,0x03,
6565,-72,-162,-990,-420,-910,1190,,,,,,,0x03,
6575,-71,-156,-989,280,-630,980,,,,,,,0x03,
6584,-74,-154,-997,1400,-420,1190,,,,,,,0x03,
6594,-78,-149,-999,2030,-490,1260,,,,,,,0x03,
6603,-78,-143,-996,2030,-630,1260,,,,,,,0x03,
6613,-75,-140,-990,1190,-630,1400,,,,,,,0x03,
6623,-76,-148,-986,70,-770,1470,,,,,,,0x03,
6632,-80,-155,-988,-490,-840,1330,,,,,,,0x03,
6642,-79,-155,-990,280,-630,1050,,,,,,,0x03,
6652,-71,-151,-993,1330,-560,1050,,,,,,,0x03,
6661,-63,-143,-999,1750,-560,700,,,,,,,0x03,
6671,-64,-138,-997,1540,-490,280,,,,,,,0x03,
6681,-71,-141,-994,1120,-210,210,,,,,,,0x03,
6690,-72,-154,-985,1120,0,350,,,,,,,0x03,
6700,-76,-158,-986,1680,210,140,,,,,,,0x03,
6710,-83,-156,-987,2520,210,-210,,,,,,,0x03,
6719,-86,-153,-991,2730,0,-420,,,,,,,0x03,
6729,-85,-150,-997,2100,-210,-700,,,,,,,0x03,
6738,-82,-149,-1005,1400,-280,-980,,,,,,,0x03,
6748,-81,-146,-1004,770,-490,-1120,,,,,,,0x03,
6758,-85,-142,-1003,-140,-560,-980,,,,,,,0x03,
6767,-86,-143,-998,-910,-560,-840,,,,,,,0x03,
6777,-78,-155,-997,-770,-560,-630,,,,,,,0x03,
6787,-74,-169,-995,-280,-560,-350,,,,,,,0x03,
6796,-80,-168,-994,700,-630,-840,,,,,,,0x03,
6806,-82,-155,-991,1330,-700,-980,,,,,,,0x03,
6816,-78,-151,-988,840,-770,-560,,,,,,,0x03,
6825,-82,-158,-985,-350,-1050,-490,,,,,,,0x03,
6835,-91,-168,-990,-980,-1190,-700,,,,,,,0x03,
6844,-89,-164,-993,-840,-1190,-770,,,,,,,0x03,
6854,-81,-159,-994,-420,-1260,-490,,,,,,,0x03,
6864,-78,-160,-997,-420,-1330,-420,,,,,,,0x03,
6873,-79,-158,-996,-70,-1190,-490,,,,,,,0x03,
6883,-78,-155,-990,210,-1260,-210,,,,,,,0x03,
6893,-80,-159,-985,-70,-1330,-70,,,,,,,0x03,
6902,-85,-170,-985,-280,-1330,0,,,,,,,0x03,
6912,-92,-174,-984,-210,-1330,-140,,,,,,,0x03,
6922,-87,-165,-990,210,-1330,-280,,,,,,,0x03,
6931,-83,-154,-994,560,-1260,-70,,,,,,,0x03,
6941,-86,-153,-998,280,-1330,70,,,,,,,0x03,
6951,-82,-150,-998,70,-1260,70,,,,,,,0x03,
6960,-79,-149,-994,-70,-1260,210,,,,,,,0x03,
6970,-83,-147,-991,-840,-1330,140,,,,,,,0x03,
6979,-88,-149,-987,-1680,-1330,0,,,,,,,0x03,
6989,-89,-153,-985,-2800,-1400,0,,,,,,,0x03,
6999,-84,-151,-991,-3150,-1260,-140,,,,,,,0x03,
7008,-79,-151,-993,-2100,-910,0,,,,,,,0x03,
7018,-77,-154,-998,-560,-490,350,,,,,,,0x03,
7028,-79,-153,-998,560,-280,350,,,,,,,0x03,
7037,-82,-139,-997,1120,-140,140,,,,,,,0x03,
7047,-89,-135,-994,350,-70,350,,,,,,,0x03,
7057,-93,-145,-990,-1400,-210,490,,,,,,,0x03,
7066,-91,-158,-991,-2660,-490,420,,,,,,,0x03,
7076,-93,-156,-993,-2660,-630,70,,,,,,,0x03,
7085,-96,-142,-996,-1890,-770,140,,,,,,,0x03,
7095,-98,-138,-997,-1750,-910,490,,,,,,,0x03,
7105,-95,-147,-997,-1680,-980,840,,,,,,,0x03,
7114,-88,-155,-997,-910,-980,910,,,,,,,0x03,
7124,-86,-152,-994,0,-1190,770,,,,,,,0x03,
7134,-85,-138,-992,-70,-1330,630,,,,,,,0x03,
7143,-85,-134,-993,-1470,-1470,700,,,,,,,0x03,
7153,-84,-145,-995,-3010,-1610,630,,,,,,,0x03,
7163,-83,-149,-996,-3220,-1470,490,,,,,,,0x03,
7172,-81,-148,-993,-2100,-1190,560,,,,,,,0x03,
7182,-85,-144,-995,-910,-840,700,,,,,,,0x03,
7192,-87,-138,-993,0,-700,700,,,,,,,0x03,
7201,-84,-129,-994,140,-770,630,,,,,,,0x03,
7211,-79,-126,-996,-910,-910,770,,,,,,,0x03,
7220,-73,-134,-997,-2240,-980,910,,,,,,,0x03,
7230,-75,-147,-998,-3640,-1120,630,,,,,,,0x03,
7240,-84,-150,-996,-3780,-1050,350,,,,,,,0x03,
7249,-90,-146,-997,-3080,-840,420,,,,,,,0x03,
7259,-92,-151,-997,-2100,-770,700,,,,,,,0x03,
7269,-89,-152,-1000,-490,-840,910,,,,,,,0x03,
7278,-82,-141,-1005,1260,-840,910,,,,,,,0x03,
7288,-82,-125,-1002,1750,-980,980,,,,,,,0x03,
7298,-84,-127,-998,350,-1050,980,,,,,,,0x03,
7307,-87,-134,-999,-630,-1120,1120,,,,,,,0x03,
7317,-81,-137,-991,-1260,-1120,1050,,,,,,,0x03,
7326,-75,-142,-991,-630,-910,840,,,,,,,0x03,
7336,-78,-141,-989,-70,-980,770,,,,,,,0x03,
7346,-78,-137,-986,630,-910,350,,,,,,,0x03,
7355,-79,-138,-978,1120,-910,210,,,,,,,0x03,
7365,-69,-157,-1000,-700,-1400,-420,,,,,,,0x03,
7375,-70,-119,-999,1120,-420,-1050,,,,,,,0x03,
7384,-94,-96,-982,420,-560,-280,,,,,,,0x03,
7394,-91,-123,-996,-4060,-910,70,,,,,,,0x03,
7404,-75,-155,-992,-4130,-700,0,,,,,,,0x03,
7413,-78,-152,-993,-1960,-560,-700,,,,,,,0x03,
7423,-86,-130,-997,350,-420,-770,,,,,,,0x03,
7433,-88,-133,-995,1540,-210,-280,,,,,,,0x03,
7442,-83,-134,-998,1260,-280,-210,,,,,,,0x03,
7452,-82,-121,-1001,280,-560,-560,,,,,,,0x03,
7461,-93,-105,-999,-1890,-910,-770,,,,,,,0x03,
7471,-99,-113,-996,-4480,-980,-350,,,,,,,0x03,
7481,-91,-138,-995,-6440,-1050,210,,,,,,,0x03,
7490,-80,-154,-996,-5740,-1190,70,,,,,,,0x03,
7500,-82,-153,-995,-3150,-1260,-490,,,,,,,0x03,
7510,-90,-137,-997,-1050,-1190,-840,,,,,,,0x03,
7519,-91,-127,-1001,-350,-1190,-770,,,,,,,0x03,
7529,-81,-127,-1001,-350,-1190,-700,,,,,,,0x03,
7539,-81,-128,-1005,-420,-1190,-840,,,,,,,0x03,
7548,-90,-125,-1000,-490,-1190,-1050,,,,,,,0x03,
7558,-86,-123,-999,-770,-1120,-1260,,,,,,,0x03,
7567,-84,-119,-994,-1330,-1470,-910,,,,,,,0x03,
7577,-82,-125,-990,-2590,-1820,-1050,,,,,,,0x03,
7587,-82,-135,-987,-3220,-1960,-1400,,,,,,,0x03,
7596,-88,-142,-986,-3920,-2030,-1400,,,,,,,0x03,
7606,-81,-144,-991,-3710,-1750,-1750,,,,,,,0x03,
7616,-78,-143,-998,-2450,-1330,-1750,,,,,,,0x03,
7625,-79,-134,-995,-1750,-1190,-1890,,,,,,,0x03,
7635,-75,-128,-999,-1260,-910,-2170,,,,,,,0x03,
7645,-75,-122,-991,-1680,-840,-2380,,,,,,,0x03,
7654,-80,-116,-993,-2450,-770,-2380,,,,,,,0x03,
7664,-83,-117,-991,-3290,-630,-2310,,,,,,,0x03,
7674,-84,-127,-993,-3570,-560,-1890,,,,,,,0x03,
7683,-85,-136,-994,-3220,-630,-1890,,,,,,,0x03,
7693,-88,-139,-999,-2590,-630,-2030,,,,,,,0x03,
7702,-90,-136,-1002,-1820,-560,-1820,,,,,,,0x03,
7712,-86,-139,-1006,-980,-490,-1330,,,,,,,0x03,
7722,-82,-140,-1007,140,-490,-1120,,,,,,,0x03,
7731,-83,-140,-1006,630,-490,-1120,,,,,,,0x03,
7741,-86,-133,-1004,630,-560,-1120,,,,,,,0x03,
7751,-87,-131,-995,-280,-840,-770,,,,,,,0x03,
7760,-83,-142,-993,-1890,-1190,-420,,,,,,,0x03,
7770,-79,-148,-1001,-3010,-1400,-770,,,,,,,0x03,
7780,-84,-140,-999,-2520,-1470,-1050,,,,,,,0x03,
7789,-80,-126,-996,-2030,-1540,-1260,,,,,,,0x03,
7799,-83,-123,-998,-2030,-1260,-910,,,,,,,0x03,
7808,-87,-127,-999,-1610,-1120,-770,,,,,,,0x03,
7818,-90,-123,-998,-700,-1120,-770,,,,,,,0x03,
7828,-87,-114,-994,-70,-1120,-560,,,,,,,0x03,
7837,-85,-115,-992,-700,-1260,-350,,,,,,,0x03,
7847,-89,-122,-990,-1820,-1400,-350,,,,,,,0x03,
7857,-90,-126,-987,-2660,-1540,-560,,,,,,,0x03,
7866,-88,-124,-988,-2940,-1610,-630,,,,,,,0x03,
7876,-80,-127,-986,-3570,-1680,-700,,,,,,,0x03,
7886,-80,-134,-987,-4270,-1540,-980,,,,,,,0x03,
7895,-76,-143,-1003,-3360,-1120,-1260,,,,,,,0x03,
7905,-73,-137,-1001,-1470,-770,-1680,,,,,,,0x03,
7915,-73,-129,-1007,350,-140,-2100,,,,,,,0x03,
7924,-84,-115,-1005,1470,0,-2170,,,,,,,0x03,
7934,-96,-101,-1003,630,-210,-2520,,,,,,,0x03,
7943,-98,-97,-995,-1190,-280,-2590,,,,,,,0x03,
7953,-97,-110,-994,-3570,-560,-2100,,,,,,,0x03,
7963,-99,-121,-998,-4550,-980,-1960,,,,,,,0x03,
7972,-92,-128,-997,-3780,-1120,-2030,,,,,,,0x03,
7982,-89,-125,-1000,-2800,-1330,-2030,,,,,,,0x03,
7992,-89,-119,-1003,-1540,-1330,-2170,,,,,,,0x03,
8001,-88,-117,-1001,-420,-1260,-2030,,,,,,,0x03,
8011,-88,-117,-1005,350,-1120,-1680,,,,,,,0x03,
8021,-87,-116,-1001,630,-1120,-1680,,,,,,,0x03,
8030,-85,-114,-998,560,-1120,-1610,,,,,,,0x03,
8040,-82,-115,-1002,-350,-1260,-1470,,,,,,,0x03,
8050,-84,-116,-1000,-1750,-1680,-1750,,,,,,,0x03,
8059,-87,-112,-999,-2660,-1890,-1890,,,,,,,0x03,
8069,-91,-110,-995,-3500,-1890,-1680,,,,,,,0x03,
8078,-88,-121,-994,-3990,-1890,-1400,,,,,,,0x03,
8088,-88,-135,-994,-3290,-1820,-1400,,,,,,,0x03,
8098,-84,-138,-996,-1120,-1610,-1540,,,,,,,0x03,
8107,-79,-128,-997,1400,-1330,-1540,,,,,,,0x03,
8117,-74,-116,-999,2940,-1050,-1470,,,,,,,0x03,
8127,-74,-110,-997,2660,-980,-1540,,,,,,,0x03,
8136,-78,-108,-994,1330,-980,-1680,,,,,,,0x03,
8146,-87,-108,-993,-280,-1050,-1680,,,,,,,0x03,
8156,-87,-112,-994,-1540,-1050,-1540,,,,,,,0x03,
8165,-88,-122,-997,-2030,-1120,-1400,,,,,,,0x03,
8175,-86,-130,-999,-1750,-1190,-1470,,,,,,,0x03,
8184,-83,-128,-1000,-490,-1190,-1610,,,,,,,0x03,
8194,-83,-122,-1001,490,-1050,-1820,,,,,,,0x03,
8204,-82,-118,-999,1050,-910,-1820,,,,,,,0x03,
8213,-84,-121,-996,630,-910,-1750,,,,,,,0x03,
8223,-86,-122,-997,350,-910,-1890,,,,,,,0x03,
8233,-87,-119,-993,420,-1050,-2030,,,,,,,0x03,
8242,-90,-121,-994,420,-910,-2030,,,,,,,0x03,
8252,-92,-120,-994,350,-910,-2100,,,,,,,0x03,
8262,-86,-119,-997,560,-910,-2100,,,,,,,0x03,
8271,-84,-123,-996,840,-840,-2030,,,,,,,0x03,
8281,-88,-120,-999,840,-840,-2240,,,,,,,0x03,
8291,-90,-116,-1000,1260,-840,-2030,,,,,,,0x03,
8300,-87,-116,-999,770,-840,-1820,,,,,,,0x03,
8310,-85,-117,-999,140,-980,-1820,,,,,,,0x03,
8319,-84,-122,-996,-630,-1190,-1890,,,,,,,0x03,
8329,-88,-121,-997,-1400,-1260,-2170,,,,,,,0x03,
8339,-88,-123,-997,-1400,-1120,-2240,,,,,,,0x03,
8348,-85,-127,-1001,-1120,-980,-2170,,,,,,,0x03,
8358,-85,-125,-996,-350,-910,-2450,,,,,,,0x03,
8368,-89,-121,-997,1050,-700,-2310,,,,,,,0x03,
8377,-94,-118,-1000,2030,-420,-1890,,,,,,,0x03,
8387,-87,-118,-997,2240,-630,-1610,,,,,,,0x03,
8397,-84,-114,-996,1540,-910,-1330,,,,,,,0x03,
8406,-90,-118,-994,490,-1050,-1260,,,,,,,0x03,
8416,-96,-122,-991,-910,-980,-1190,,,,,,,0x03,
8425,-95,-130,-991,-1610,-840,-980,,,,,,,0x03,
8435,-93,-144,-994,-1260,-630,-910,,,,,,,0x03,
8445,-88,-148,-996,490,-560,-1120,,,,,,,0x03,
8454,-80,-141,-998,2380,-490,-1330,,,,,,,0x03,
8464,-74,-128,-999,3080,-490,-1400,,,,,,,0x03,
8474,-80,-120,-997,2730,-420,-1540,,,,,,,0x03,
8483,-89,-117,-993,1330,-490,-1470,,,,,,,0x03,
8493,-94,-123,-991,-490,-700,-1400,,,,,,,0x03,
8503,-97,-130,-993,-1540,-840,-1260,,,,,,,0x03,
8512,-97,-135,-998,-770,-770,-1260,,,,,,,0x03,
8522,-94,-136,-1003,630,-700,-1120,,,,,,,0x03,
8532,-86,-128,-1008,1960,-770,-910,,,,,,,0x03,
8541,-78,-118,-1006,2450,-840,-700,,,,,,,0x03,
8551,-79,-111,-1002,1610,-910,-700,,,,,,,0x03,
8560,-81,-116,-992,-210,-980,-490,,,,,,,0x03,
8570,-83,-131,-988,-1890,-1050,-350,,,,,,,0x03,
8580,-84,-143,-991,-2100,-980,-420,,,,,,,0x03,
8589,-85,-143,-994,-980,-840,-490,,,,,,,0x03,
8599,-87,-131,-996,350,-840,-770,,,,,,,0x03,
8609,-85,-120,-997,980,-840,-700,,,,,,,0x03,
8618,-87,-123,-1002,1050,-560,-350,,,,,,,0x03,
8628,-86,-127,-999,1050,-630,-350,,,,,,,0x03,
8638,-82,-120,-998,1050,-700,-280,,,,,,,0x03,
8647,-88,-114,-997,490,-630,-210,,,,,,,0x03,
8657,-95,-117,-995,-420,-700,-280,,,,,,,0x03,
8666,-91,-121,-994,-840,-770,-70,,,,,,,0x03,
8676,-86,-124,-996,-700,-700,210,,,,,,,0x03,
8686,-86,-128,-994,0,-560,140,,,,,,,0x03,
8695,-88,-132,-994,700,-420,140,,,,,,,0x03,
8705,-88,-134,-996,1190,-350,140,,,,,,,0x03,
8715,-87,-132,-998,1960,-210,0,,,,,,,0x03,
8724,-86,-127,-998,2940,0,0,,,,,,,0x03,
8734,-85,-122,-997,2940,-70,70,,,,,,,0x03,
8744,-83,-116,-997,2170,-140,-140,,,,,,,0x03,
8753,-85,-119,-998,1610,-70,-140,,,,,,,0x03,
8763,-88,-127,-996,1400,-70,-70,,,,,,,0x03,
8773,-88,-130,-997,1890,0,-280,,,,,,,0x03,
8782,-88,-129,-994,2660,0,-420,,,,,,,0x03,
8792,-91,-123,-996,3010,0,-420,,,,,,,0x03,
8801,-93,-118,-994,2450,-140,-490,,,,,,,0x03,
8811,-86,-119,-996,1470,-210,-280,,,,,,,0x03,
8821,-83,-126,-996,560,-280,-70,,,,,,,0x03,
8830,-85,-132,-995,-350,-490,-210,,,,,,,0x03,
8840,-85,-133,-1000,-980,-560,-350,,,,,,,0x03,
8850,-83,-136,-998,-1330,-560,-280,,,,,,,0x03,
8859,-82,-141,-1002,-1120,-350,-210,,,,,,,0x03,
8869,-82,-135,-995,-280,-350,-140,,,,,,,0x03,
8879,-85,-127,-996,490,-350,140,,,,,,,0x03,
8888,-90,-126,-997,70,-560,420,,,,,,,0x03,
8898,-91,-125,-1000,-490,-840,490,,,,,,,0x03,
8907,-90,-123,-1003,-840,-980,840,,,,,,,0x03,
8917,-86,-126,-1007,-1190,-1120,1190,,,,,,,0x03,
8927,-86,-130,-1006,-770,-1120,1540,,,,,,,0x03,
8936,-87,-135,-1002,350,-840,1820,,,,,,,0x03,
8946,-85,-137,-999,1260,-700,1960,,,,,,,0x03,
8956,-83,-130,-998,1960,-630,1750,,,,,,,0x03,
8965,-84,-124,-993,2170,-700,1820,,,,,,,0x03,
8975,-88,-124,-991,1540,-770,1960,,,,,,,0x03,
8985,-92,-125,-993,490,-840,1820,,,,,,,0x03,
8994,-96,-128,-992,-420,-1050,1750,,,,,,,0x03,
9004,-99,-131,-993,-1050,-1120,1680,,,,,,,0x03,
9014,-94,-136,-997,-840,-1190,1470,,,,,,,0x03,
9023,-88,-138,-998,560,-1260,1190,,,,,,,0x03,
9033,-91,-137,-995,1890,-1330,910,,,,,,,0x03,
9042,-85,-135,-1001,2590,-1330,490,,,,,,,0x03,
9052,-80,-127,-995,2870,-1190,210,,,,,,,0x03,
9062,-84,-120,-994,1610,-1470,-210,,,,,,,0x03,
9071,-90,-104,-994,0,-1260,-560,,,,,,,0x03,
9081,-89,-113,-993,-1610,-1190,-420,,,,,,,0x03,
9091,-77,-124,-1001,-1400,-630,-910,,,,,,,0x03,
9100,-70,-126,-1003,2380,280,-980,,,,,,,0x03,
9110,-68,-121,-1005,6860,1260,-980,,,,,,,0x03,
9120,-64,-108,-1004,11060,2380,-1120,,,,,,,0x03,
9129,-69,-96,-1001,13650,3430,-770,,,,,,,0x03,
9139,-92,-83,-993,12530,3920,-210,,,,,,,0x03,
9148,-111,-91,-988,7700,3570,-140,,,,,,,0x03,
9158,-106,-119,-979,1960,2800,-140,,,,,,,0x03,
9168,-112,-159,-981,-1610,2240,210,,,,,,,0x03,
9177,-110,-192,-977,-2800,1190,-140,,,,,,,0x03,
9187,-102,-200,-983,-2310,70,-910,,,,,,,0x03,
9197,-94,-189,-988,-1120,-980,-1960,,,,,,,0x03,
9206,-96,-176,-999,-980,-1890,-2660,,,,,,,0x03,
9216,-97,-164,-1007,-1960,-2730,-3080,,,,,,,0x03,
9226,-84,-143,-1012,-3080,-2940,-3640,,,,,,,0x03,
9235,-63,-128,-1016,-2800,-2590,-3570,,,,,,,0x03,
9245,-61,-131,-1009,-1960,-2310,-3150,,,,,,,0x03,
9255,-78,-128,-993,-1820,-2310,-3290,,,,,,,0x03,
9264,-89,-116,-986,-1680,-2030,-3150,,,,,,,0x03,
9274,-88,-115,-980,-2730,-1890,-2170,,,,,,,0x03,
9283,-84,-117,-980,-4340,-2240,-1470,,,,,,,0x03,
9293,-80,-125,-986,-5670,-2590,-910,,,,,,,0x03,
9303,-75,-139,-999,-6090,-2590,-420,,,,,,,0x03,
9312,-68,-146,-1007,-4620,-2380,-490,,,,,,,0x03,
9322,-65,-143,-1010,-1960,-1750,-420,,,,,,,0x03,
9332,-66,-133,-1007,280,-910,-490,,,,,,,0x03,
9341,-72,-122,-1003,1190,-350,-560,,,,,,,0x03,
9351,-86,-122,-989,840,-70,-350,,,,,,,0x03,
9361,-100,-129,-984,-350,0,-420,,,,,,,0x03,
9370,-99,-132,-981,-280,0,-70,,,,,,,0x03,
9380,-90,-140,-982,560,-350,560,,,,,,,0x03,
9389,-85,-140,-995,1190,-560,630,,,,,,,0x03,
9399,-86,-137,-1001,1820,-770,770,,,,,,,0x03,
9409,-85,-137,-1007,2030,-770,980,,,,,,,0x03,
9418,-86,-130,-1012,1680,-770,700,,,,,,,0x03,
9428,-82,-122,-1009,1680,-560,700,,,,,,,0x03,
9438,-80,-125,-1000,1610,-490,910,,,,,,,0x03,
9447,-80,-129,-993,1330,-560,840,,,,,,,0x03,
9457,-83,-125,-991,1190,-630,770,,,,,,,0x03,
9467,-85,-126,-990,1120,-700,980,,,,,,,0x03,
9476,-83,-133,-991,420,-840,1190,,,,,,,0x03,
9486,-83,-127,-1001,-1120,-1190,910,,,,,,,0x03,
9496,-90,-122,-999,-2170,-1400,770,,,,,,,0x03,
9505,-95,-132,-1001,-2940,-1540,980,,,,,,,0x03,
9515,-93,-142,-1004,-3220,-1680,910,,,,,,,0x03,
9524,-85,-139,-1006,-1820,-1680,630,,,,,,,0x03,
9534,-80,-131,-999,-70,-1400,630,,,,,,,0x03,
9544,-80,-124,-994,350,-1400,700,,,,,,,0x03,
9553,-82,-125,-992,210,-1190,700,,,,,,,0x03,
9563,-84,-137,-989,630,-910,700,,,,,,,0x03,
9573,-88,-141,-988,1470,-770,630,,,,,,,0x03,
9582,-89,-132,-989,2240,-700,350,,,,,,,0x03,
9592,-85,-120,-991,2030,-700,280,,,,,,,0x03,
9602,-85,-121,-992,560,-910,420,,,,,,,0x03,
9611,-86,-128,-992,-1610,-1260,350,,,,,,,0x03,
9621,-83,-133,-996,-2800,-1190,350,,,,,,,0x03,
9630,-82,-147,-994,-2800,-840,560,,,,,,,0x03,
9640,-86,-156,-996,-1680,-560,350,,,,,,,0x03,
9650,-92,-153,-997,630,-210,0,,,,,,,0x03,
9659,-94,-141,-997,2870,-70,70,,,,,,,0x03,
9669,-90,-128,-997,3430,-140,140,,,,,,,0x03,
9679,-82,-121,-993,2940,-210,210,,,,,,,0x03,
9688,-80,-127,-990,1540,-420,350,,,,,,,0x03,
9698,-83,-145,-987,-70,-560,280,,,,,,,0x03,
9708,-87,-157,-986,-420,-700,-70,,,,,,,0x03,
9717,-91,-155,-989,-210,-630,-280,,,,,,,0x03,
9727,-96,-151,-994,140,-630,-280,,,,,,,0x03,
9737,-97,-146,-1000,280,-840,-280,,,,,,,0x03,
9746,-86,-132,-1001,770,-770,-350,,,,,,,0x03,
9756,-79,-123,-1001,980,-770,0,,,,,,,0x03,
9765,-78,-124,-998,490,-770,0,,,,,,,0x03,
9775,-83,-129,-993,140,-700,0,,,,,,,0x03,
9785,-90,-135,-993,-70,-630,210,,,,,,,0x03,
9794,-94,-142,-991,140,-490,70,,,,,,,0x03,
9804,-97,-144,-990,1050,-350,0,,,,,,,0x03,
9814,-95,-141,-993,1610,-420,140,,,,,,,0x03,
9823,-85,-131,-995,1820,-350,70,,,,,,,0x03,
9833,-79,-127,-1001,1610,-350,280,,,,,,,0x03,
9843,-84,-130,-1002,210,-630,490,,,,,,,0x03,
9852,-93,-133,-1003,-700,-700,210,,,,,,,0x03,
9862,-96,-134,-997,-1470,-770,350,,,,,,,0x03,
9871,-100,-137,-992,-2730,-1050,420,,,,,,,0x03,
9881,-94,-144,-989,-3500,-1260,210,,,,,,,0x03,
9891,-85,-147,-993,-3220,-1260,70,,,,,,,0x03,
9900,-79,-146,-995,-1960,-1260,0,,,,,,,0x03,
9910,-77,-145,-999,210,-840,-70,,,,,,,0x03,
9920,-79,-142,-996,1890,-630,70,,,,,,,0x03,
9929,-88,-134,-998,2940,-350,-70,,,,,,,0x03,
9939,-94,-123,-997,3150,-210,-140,,,,,,,0x03,
9949,-96,-119,-992,1960,-420,280,,,,,,,0x03,
9958,-91,-118,-991,-210,-770,420,,,,,,,0x03,
9968,-82,-121,-994,-1610,-910,420,,,,,,,0x03,
9978,-77,-131,-993,-2170,-840,490,,,,,,,0x03,
9987,-77,-143,-994,-1680,-560,350,,,,,,,0x03,
9997,-83,-154,-997,-140,-210,140,,,,,,,0x03,
10006,-93,-151,-995,2030,70,0,,,,,,,0x03,
10016,-93,-137,-994,3500,210,-140,,,,,,,0x03,
10026,-86,-127,-998,3640,0,70,,,,,,,0x03,
10035,-85,-128,-996,2030,-350,280,,,,,,,0x03,
10045,-89,-124,-997,-140,-630,70,,,,,,,0x03,
10055,-91,-123,-996,-2310,-840,0,,,,,,,0x03,
10064,-88,-131,-995,-3920,-910,210,,,,,,,0x03,
10074,-85,-149,-994,-3710,-770,210,,,,,,,0x03,
10084,-85,-154,-996,-1610,-560,140,,,,,,,0x03,
10093,-84,-143,-996,1190,-350,140,,,,,,,0x03,
10103,-80,-134,-997,3150,-140,350,,,,,,,0x03,
10112,-78,-130,-994,3500,-70,560,,,,,,,0x03,
10122,-81,-126,-991,2520,-210,420,,,,,,,0x03,
10132,-84,-128,-991,1190,-210,490,,,,,,,0x03,
10141,-87,-138,-985,-210,-210,840,,,,,,,0x03,
10151,-90,-154,-983,-1050,-420,770,,,,,,,0x03,
10161,-92,-169,-986,-420,-350,490,,,,,,,0x03,
10170,-89,-166,-993,1330,-140,140,,,,,,,0x03,
10180,-87,-147,-1000,2940,0,-280,,,,,,,0x03,
10190,-84,-122,-1001,3080,0,-350,,,,,,,0x03,
10199,-85,-109,-1004,1610,280,420,,,,,,,0x03,
10209,-91,-110,-997,-280,140,980,,,,,,,0x03,
10219,-96,-118,-992,-2520,70,840,,,,,,,0x03,
10228,-98,-136,-995,-3150,-210,1400,,,,,,,0x03,
10238,-94,-157,-998,-2030,-420,1960,,,,,,,0x03,
10247,-87,-154,-1005,70,-140,1820,,,,,,,0x03,
10257,-85,-141,-1012,2730,210,2100,,,,,,,0x03,
10267,-84,-127,-1015,3570,140,2660,,,,,,,0x03,
10276,-90,-118,-1011,2590,-140,2800,,,,,,,0x03,
10286,-93,-123,-1004,840,-350,3290,,,,,,,0x03,
10296,-95,-139,-995,-1610,-630,3710,,,,,,,0x03,
10305,-93,-153,-991,-3150,-980,3780,,,,,,,0x03,
10315,-87,-164,-991,-2800,-1050,3710,,,,,,,0x03,
10325,-83,-167,-994,-840,-980,3500,,,,,,,0x03,
10334,-80,-155,-996,1400,-910,3080,,,,,,,0x03,
10344,-78,-134,-990,2800,-770,2730,,,,,,,0x03,
10353,-75,-123,-986,2870,-630,2730,,,,,,,0x03,
10363,-71,-123,-978,1680,-630,2870,,,,,,,0x03,
10373,-71,-128,-978,-140,-490,2870,,,,,,,0x03,
10382,-77,-135,-976,-1400,-280,2520,,,,,,,0x03,
10392,-82,-140,-977,-2310,-140,2030,,,,,,,0x03,
10402,-82,-146,-983,-2310,140,1610,,,,,,,0x03,
10411,-76,-153,-991,-840,560,1330,,,,,,,0x03,
10421,-71,-148,-997,1610,980,910,,,,,,,0x03,
10431,-76,-131,-1001,3640,1260,770,,,,,,,0x03,
10440,-78,-120,-1001,3990,1470,840,,,,,,,0x03,
10450,-75,-123,-996,2730,1610,1050,,,,,,,0x03,
10460,-78,-133,-995,1120,1540,1050,,,,,,,0x03,
10469,-85,-143,-991,560,1540,1050,,,,,,,0x03,
10479,-92,-153,-994,840,1540,980,,,,,,,0x03,
10488,-98,-154,-999,1680,1400,980,,,,,,,0x03,
10498,-95,-148,-1001,2380,980,980,,,,,,,0x03,
10508,-89,-138,-1005,2240,490,980,,,,,,,0x03,
10517,-90,-135,-1005,1260,70,910,,,,,,,0x03,
10527,-92,-139,-1006,140,-280,980,,,,,,,0x03,
10537,-93,-147,-1005,-770,-630,840,,,,,,,0x03,
10546,-94,-149,-1003,-1260,-980,560,,,,,,,0x03,
10556,-98,-143,-1000,-1120,-1120,350,,,,,,,0x03,
10566,-89,-135,-999,-980,-1260,350,,,,,,,0x03,
10575,-82,-132,-1001,-770,-1260,490,,,,,,,0x03,
10585,-80,-133,-1000,-70,-1120,630,,,,,,,0x03,
10594,-80,-129,-997,630,-980,560,,,,,,,0x03,
10604,-81,-124,-996,910,-840,700,,,,,,,0x03,
10614,-86,-129,-992,0,-980,700,,,,,,,0x03,
10623,-86,-132,-992,-1260,-1260,420,,,,,,,0x03,
10633,-83,-129,-991,-1960,-1400,140,,,,,,,0x03,
10643,-79,-126,-994,-2520,-1400,70,,,,,,,0x03,
10652,-77,-131,-996,-2450,-1120,140,,,,,,,0x03,
10662,-77,-139,-995,-1750,-910,-70,,,,,,,0x03,
10672,-76,-135,-993,-350,-630,-350,,,,,,,0x03,
10681,-76,-135,-990,910,-350,-420,,,,,,,0x03,
10691,-83,-136,-992,1190,-210,-560,,,,,,,0x03,
10701,-84,-128,-995,1190,-280,-630,,,,,,,0x03,
10710,-83,-122,-995,420,-350,-420,,,,,,,0x03,
10720,-82,-125,-998,-1190,-560,-280,,,,,,,0x03,
10729,-82,-133,-1001,-2590,-630,-420,,,,,,,0x03,
10739,-85,-138,-998,-3080,-700,-490,,,,,,,0x03,
10749,-86,-144,-995,-2590,-630,-560,,,,,,,0x03,
10758,-88,-151,-992,-1820,-630,-630,,,,,,,0x03,
10768,-89,-145,-995,-560,-560,-980,,,,,,,0x03,
10778,-87,-136,-996,770,-560,-910,,,,,,,0x03,
10787,-85,-127,-998,980,-630,-770,,,,,,,0x03,
10797,-85,-115,-1000,420,-630,-700,,,,,,,0x03,
10807,-83,-118,-998,-840,-700,-210,,,,,,,0x03,
10816,-82,-129,-994,-2520,-840,-280,,,,,,,0x03,
10826,-88,-142,-996,-3080,-840,-700,,,,,,,0x03,
10835,-91,-145,-998,-2380,-700,-910,,,,,,,0x03,
10845,-93,-142,-996,-1330,-700,-1050,,,,,,,0x03,
10855,-94,-137,-995,-630,-630,-1120,,,,,,,0x03,
10864,-91,-134,-998,-700,-980,-1190,,,,,,,0x03,
10874,-87,-129,-1000,-910,-1190,-1260,,,,,,,0x03,
10884,-86,-130,-995,-1260,-1260,-910,,,,,,,0x03,
10893,-85,-140,-995,-2100,-1540,-770,,,,,,,0x03,
10903,-89,-149,-994,-2590,-1610,-840,,,,,,,0x03,
10913,-89,-151,-996,-2240,-1540,-1050,,,,,,,0x03,
10922,-87,-148,-995,-1260,-1470,-1050,,,,,,,0x03,
10932,-83,-142,-997,-490,-1470,-1330,,,,,,,0x03,
10942,-77,-128,-994,-210,-1540,-1540,,,,,,,0x03,
10951,-74,-123,-995,-350,-1470,-1330,,,,,,,0x03,
10961,-75,-123,-995,-700,-1330,-1120,,,,,,,0x03,
10970,-76,-124,-992,-910,-1260,-980,,,,,,,0x03,
10980,-80,-124,-989,-1400,-1260,-1050,,,,,,,0x03,
10990,-83,-130,-989,-1820,-1190,-1050,,,,,,,0x03,
10999,-83,-137,-990,-1890,-980,-1260,,,,,,,0x03,
11009,-78,-137,-995,-1540,-770,-1470,,,,,,,0x03,
11019,-74,-127,-998,-840,-630,-1260,,,,,,,0x03,
11028,-79,-128,-1002,-980,-490,-1190,,,,,,,0x03,
11038,-85,-127,-999,-1470,-560,-1330,,,,,,,0x03,
11048,-83,-130,-997,-1820,-490,-1330,,,,,,,0x03,
11057,-80,-136,-996,-1750,-490,-1120,,,,,,,0x03,
11067,-84,-143,-991,-1400,-630,-1260,,,,,,,0x03,
11077,-91,-143,-993,-1120,-910,-1750,,,,,,,0x03,
11086,-85,-139,-999,-700,-840,-1890,,,,,,,0x03,
11096,-81,-138,-1005,-140,-770,-1680,,,,,,,0x03,
11105,-85,-134,-1005,70,-910,-1820,,,,,,,0x03,
11115,-90,-122,-1001,-70,-980,-1890,,,,,,,0x03,
11125,-91,-117,-999,-840,-1050,-1540,,,,,,,0x03,
11134,-87,-124,-1000,-1820,-1120,-1330,,,,,,,0x03,
11144,-86,-132,-1000,-2240,-1400,-1260,,,,,,,0x03,
11154,-82,-137,-997,-2170,-1610,-1260,,,,,,,0x03,
11163,-79,-136,-999,-1820,-1610,-1400,,,,,,,0x03,
11173,-82,-131,-1000,-1190,-1540,-1470,,,,,,,0x03,
11183,-82,-127,-999,-490,-1400,-1400,,,,,,,0x03,
11192,-84,-126,-999,-490,-1330,-1190,,,,,,,0x03,
11202,-87,-123,-998,-840,-1540,-1330,,,,,,,0x03,
11211,-93,-120,-997,-1260,-1540,-1470,,,,,,,0x03,
11221,-96,-123,-995,-2100,-1610,-1330,,,,,,,0x03,
11231,-93,-129,-994,-2870,-1750,-1330,,,,,,,0x03,
11240,-90,-137,-998,-2520,-1820,-1400,,,,,,,0x03,
11250,-87,-140,-995,-1540,-1820,-1540,,,,,,,0x03,
11260,-86,-137,-994,-420,-1820,-1750,,,,,,,0x03,
11269,-84,-140,-994,490,-1820,-1890,,,,,,,0x03,
11279,-83,-142,-993,980,-1820,-2380,,,,,,,0x03,
11289,-83,-135,-994,1190,-1890,-2800,,,,,,,0x03,
11298,-85,-126,-994,840,-1890,-2870,,,,,,,0x03,
11308,-83,-122,-995,-140,-2030,-2800,,,,,,,0x03,
11318,-80,-122,-994,-1400,-2170,-2590,,,,,,,0x03,
11327,-75,-125,-996,-2240,-1960,-2520,,,,,,,0x03,
11337,-75,-127,-999,-1120,-1680,-2100,,,,,,,0x03,
11346,-80,-125,-997,-210,-1400,-1890,,,,,,,0x03,
11356,-79,-120,-994,1120,-910,-1750,,,,,,,0x03,
11366,-81,-112,-993,1330,-700,-1400,,,,,,,0x03,
11375,-80,-110,-987,910,-770,-1190,,,,,,,0x03,
11385,-78,-142,-984,-350,-1330,-1330,,,,,,,0x03,
11395,-71,-133,-1006,350,-840,-2450,,,,,,,0x03,
11404,-92,-97,-986,3150,-140,-1750,,,,,,,0x03,
11414,-99,-106,-998,770,-420,-980,,,,,,,0x03,
11424,-84,-130,-998,-1260,-280,-1050,,,,,,,0x03,
11433,-91,-142,-997,-350,-280,-1400,,,,,,,0x03,
11443,-97,-127,-1005,-420,-490,-1680,,,,,,,0x03,
11452,-97,-132,-996,-70,-560,-1330,,,,,,,0x03,
11462,-94,-138,-994,-560,-770,-1190,,,,,,,0x03,
11472,-98,-134,-997,-910,-1050,-1540,,,,,,,0x03,
11481,-97,-133,-996,-980,-1400,-1540,,,,,,,0x03,
11491,-94,-138,-1000,-700,-1470,-1330,,,,,,,0x03,
11501,-93,-135,-1001,-490,-1540,-1190,,,,,,,0x03,
11510,-90,-126,-1004,-490,-1610,-1330,,,,,,,0x03,
11520,-86,-119,-1001,-630,-1680,-1260,,,,,,,0x03,
11530,-81,-120,-999,-1260,-1680,-980,,,,,,,0x03,
11539,-82,-125,-999,-1750,-1610,-1050,,,,,,,0x03,
11549,-81,-130,-996,-1330,-1470,-1120,,,,,,,0x03,
11559,-82,-126,-994,-560,-1330,-1190,,,,,,,0x03,
11568,-83,-117,-994,70,-1330,-1120,,,,,,,0x03,
11578,-86,-114,-994,-70,-1400,-980,,,,,,,0x03,
11587,-87,-114,-999,-630,-1400,-910,,,,,,,0x03,
11597,-87,-117,-998,-840,-1330,-840,,,,,,,0x03,
11607,-87,-124,-1000,-560,-1190,-490,,,,,,,0x03,
11616,-90,-125,-999,-280,-1120,-420,,,,,,,0x03,
11626,-89,-118,-995,0,-980,-490,,,,,,,0x03,
11636,-86,-117,-994,-420,-1050,-420,,,,,,,0x03,
11645,-84,-122,-995,-1050,-1190,-420,,,,,,,0x03,
11655,-82,-129,-996,-840,-1120,-490,,,,,,,0x03,
11665,-81,-129,-996,-350,-1050,-560,,,,,,,0x03,
11674,-84,-126,-997,-420,-910,-630,,,,,,,0x03,
11684,-92,-125,-998,-630,-840,-700,,,,,,,0x03,
11693,-93,-127,-995,-910,-770,-560,,,,,,,0x03,
11703,-92,-129,-996,-1050,-840,-420,,,,,,,0x03,
11713,-88,-128,-998,-840,-910,-420,,,,,,,0x03,
11722,-85,-127,-998,-350,-980,-490,,,,,,,0x03,
11732,-86,-126,-996,-140,-980,-490,,,,,,,0x03,
11742,-86,-133,-994,-350,-1050,-700,,,,,,,0x03,
11751,-93,-140,-995,-350,-1120,-980,,,,,,,0x03,
11761,-96,-134,-993,0,-1120,-1330,,,,,,,0x03,
11771,-91,-122,-996,630,-1120,-1330,,,,,,,0x03,
11780,-85,-117,-997,350,-1190,-1050,,,,,,,0x03,
11790,-84,-120,-996,-280,-1260,-980,,,,,,,0x03,
11800,-83,-129,-997,-560,-1190,-910,,,,,,,0x03,
11809,-83,-133,-999,-70,-980,-910,,,,,,,0x03,
11819,-85,-135,-990,910,-840,-1050,,,,,,,0x03,
11828,-88,-132,-990,1190,-700,-1260,,,,,,,0x03,
11838,-92,-125,-993,1120,-630,-1470,,,,,,,0x03,
11848,-90,-119,-994,980,-770,-1470,,,,,,,0x03,
11857,-88,-115,-995,490,-840,-1400,,,,,,,0x03,
11867,-86,-114,-998,140,-910,-1190,,,,,,,0x03,
11877,-86,-116,-1000,-280,-910,-1050,,,,,,,0x03,
11886,-89,-119,-1000,-560,-770,-1050,,,,,,,0x03,
11896,-92,-125,-998,-490,-630,-910,,,,,,,0x03,
11906,-94,-129,-1000,-70,-560,-840,,,,,,,0x03,
11915,-95,-130,-1000,770,-420,-770,,,,,,,0x03,
11925,-96,-124,-1001,1120,-560,-560,,,,,,,0x03,
11934,-93,-118,-1001,840,-630,-420,,,,,,,0x03,
11944,-91,-122,-999,210,-770,-280,,,,,,,0x03,
11954,-89,-131,-996,-560,-910,-210,,,,,,,0x03,
11963,-90,-134,-994,-560,-980,-560,,,,,,,0x03,
11973,-91,-131,-992,70,-980,-630,,,,,,,0x03,
11983,-94,-130,-996,630,-910,-560,,,,,,,0x03,
11992,-95,-129,-1000,1260,-840,-630,,,,,,,0x03,
12002,-96,-119,-1002,1750,-770,-700,,,,,,,0x03,
12012,-95,-108,-1001,1400,-700,-490,,,,,,,0x03,
12021,-95,-107,-997,350,-770,-420,,,,,,,0x03,
12031,-94,-116,-995,-910,-910,-210,,,,,,,0x03,
12041,-93,-127,-995,-1120,-910,-210,,,,,,,0x03,
12050,-92,-134,-993,-350,-770,-280,,,,,,,0x03,
12060,-94,-132,-994,560,-770,-630,,,,,,,0x03,
12069,-95,-128,-992,1330,-700,-700,,,,,,,0x03,
12079,-91,-129,-993,1610,-630,-700,,,,,,,0x03,
12089,-83,-126,-995,1330,-630,-910,,,,,,,0x03,
12098,-78,-128,-993,980,-630,-980,,,,,,,0x03,
12108,-84,-134,-994,560,-700,-1190,,,,,,,0x03,
12118,-94,-137,-989,140,-700,-1610,,,,,,,0x03,
12127,-95,-140,-990,-420,-630,-1890,,,,,,,0x03,
12137,-93,-135,-998,-280,-630,-1820,,,,,,,0x03,
12147,-95,-134,-999,-1050,-1050,-1960,,,,,,,0x03,
12156,-94,-126,-1004,-1400,-1120,-2170,,,,,,,0x03,
12166,-88,-120,-1002,-1680,-1120,-1820,,,,,,,0x03,
12175,-90,-123,-1001,-1680,-1190,-1470,,,,,,,0x03,
12185,-90,-131,-996,-910,-1050,-1330,,,,,,,0x03,
12195,-89,-132,-996,350,-770,-1050,,,,,,,0x03,
12204,-84,-127,-992,1400,-770,-1120,,,,,,,0x03,
12214,-82,-121,-991,1820,-770,-1190,,,,,,,0x03,
12224,-83,-121,-995,1470,-700,-980,,,,,,,0x03,
12233,-83,-125,-996,910,-630,-1050,,,,,,,0x03,
12243,-87,-124,-997,140,-630,-1120,,,,,,,0x03,
12253,-95,-123,-996,-840,-630,-980,,,,,,,0x03,
12262,-94,-125,-995,-2030,-700,-1050,,,,,,,0x03,
12272,-91,-135,-994,-2590,-770,-840,,,,,,,0x03,
12282,-89,-148,-997,-1890,-770,-770,,,,,,,0x03,
12291,-86,-147,-1000,70,-700,-1050,,,,,,,0x03,
12301,-87,-131,-1003,2170,-490,-1120,,,,,,,0x03,
12310,-89,-111,-1000,2940,-490,-700,,,,,,,0x03,
12320,-92,-105,-998,1890,-560,-280,,,,,,,0x03,
12330,-92,-111,-995,210,-630,280,,,,,,,0x03,
12339,-90,-124,-995,-980,-770,630,,,,,,,0x03,
12349,-91,-137,-994,-1400,-980,700,,,,,,,0x03,
12359,-92,-141,-995,-1050,-1050,560,,,,,,,0x03,
12368,-91,-139,-1000,0,-840,560,,,,,,,0x03,
12378,-87,-139,-1001,1190,-630,630,,,,,,,0x03,
12388,-87,-136,-1001,2450,-490,490,,,,,,,0x03,
12397,-87,-127,-1000,3710,-350,560,,,,,,,0x03,
12407,-91,-120,-996,4200,-280,770,,,,,,,0x03,
12416,-94,-113,-996,4060,-140,980,,,,,,,0x03,
12426,-91,-108,-997,3430,0,1400,,,,,,,0x03,
12436,-88,-107,-1000,2310,-70,1540,,,,,,,0x03,
12445,-91,-110,-1002,770,-140,1610,,,,,,,0x03,
12455,-92,-113,-1006,-560,-210,1610,,,,,,,0x03,
12465,-87,-117,-1002,-980,-70,1680,,,,,,,0x03,
12474,-85,-123,-997,-980,-70,1680,,,,,,,0x03,
12484,-90,-128,-993,-630,-70,1400,,,,,,,0x03,
12494,-94,-132,-986,-210,-210,1260,,,,,,,0x03,
12503,-97,-130,-988,-560,-420,980,,,,,,,0x03,
12513,-95,-130,-991,-630,-490,770,,,,,,,0x03,
12523,-91,-136,-993,-770,-630,630,,,,,,,0x03,
12532,-87,-141,-997,-700,-700,210,,,,,,,0x03,
12542,-91,-143,-1000,-70,-630,-140,,,,,,,0x03,
12551,-96,-133,-999,630,-630,-490,,,,,,,0x03,
12561,-99,-122,-998,980,-700,-490,,,,,,,0x03,
12571,-100,-121,-996,350,-910,-210,,,,,,,0x03,
12580,-96,-122,-997,-420,-1050,-210,,,,,,,0x03,
12590,-93,-126,-998,-490,-1120,70,,,,,,,0x03,
