#Format version: 1.0
time[ms],accX[mg],accY[mg],accZ[mg],gyroX[mdps],gyroY[mdps],gyroZ[mdps],magnX[mG],magnY[mG],magnZ[mG],press[hPa],temp[°C],hum[0,-547,-227,-833,630,-3360,-630,,,,,,,0x03,
10,-536,-232,-843,2240,-3920,-1680,,,,,,,0x03,
19,-528,-217,-848,4200,-4620,-2590,,,,,,,0x03,
29,-515,-188,-850,5040,-5110,-3220,,,,,,,0x03,
39,-508,-164,-847,3570,-4690,-3430,,,,,,,0x03,
48,-503,-144,-842,210,-3640,-3430,,,,,,,0x03,
58,-495,-142,-833,-3360,-2660,-3360,,,,,,,0x03,
68,-499,-162,-828,-6440,-1890,-2870,,,,,,,0x03,
77,-499,-191,-836,-7210,-1750,-2310,,,,,,,0x03,
87,-503,-209,-845,-4830,-1890,-1750,,,,,,,0x03,
97,-512,-205,-848,-1120,-2100,-630,,,,,,,0x03,
106,-516,-202,-846,1820,-2170,700,,,,,,,0x03,
116,-526,-202,-842,3500,-1960,1120,,,,,,,0x03,
125,-527,-198,-831,3780,-1750,1190,,,,,,,0x03,
135,-521,-199,-827,2730,-1680,1120,,,,,,,0x03,
145,-517,-198,-831,1330,-1750,1120,,,,,,,0x03,
154,-517,-197,-836,350,-1610,1470,,,,,,,0x03,
164,-518,-197,-844,-420,-1260,2030,,,,,,,0x03,
174,-519,-196,-849,-560,-1050,2310,,,,,,,0x03,
183,-523,-202,-856,140,-770,2800,,,,,,,0x03,
193,-524,-197,-854,1470,-560,2870,,,,,,,0x03,
203,-525,-186,-847,2520,-490,3080,,,,,,,0x03,
212,-524,-185,-847,2660,-560,3360,,,,,,,0x03,
222,-517,-192,-846,2170,-490,3360,,,,,,,0x03,
232,-511,-197,-842,1680,0,3220,,,,,,,0x03,
241,-515,-197,-837,1540,140,3010,,,,,,,0x03,
251,-522,-196,-828,1050,0,2940,,,,,,,0x03,
261,-524,-200,-823,770,-280,2870,,,,,,,0x03,
270,-523,-210,-826,910,-630,2450,,,,,,,0x03,
280,-522,-215,-830,1540,-1050,1820,,,,,,,0x03,
290,-527,-199,-832,2590,-1610,1470,,,,,,,0x03,
299,-528,-180,-836,2450,-1960,1470,,,,,,,0x03,
309,-523,-180,-844,1190,-1820,1680,,,,,,,0x03,
318,-518,-195,-846,210,-1260,1610,,,,,,,0x03,
328,-521,-200,-843,140,-980,1470,,,,,,,0x03,
338,-518,-200,-844,700,-1120,1680,,,,,,,0x03,
347,-520,-204,-843,1190,-1260,1960,,,,,,,0x03,
357,-523,-203,-844,1960,-1050,2100,,,,,,,0x03,
367,-524,-205,-838,2590,-1120,2100,,,,,,,0x03,
376,-523,-199,-834,2730,-1120,2100,,,,,,,0x03,
386,-523,-203,-838,2660,-1120,2170,,,,,,,0x03,
396,-519,-204,-843,2450,-910,2100,,,,,,,0x03,
405,-520,-195,-842,2310,-490,1890,,,,,,,0x03,
415,-522,-195,-841,1820,-420,1750,,,,,,,0x03,
425,-516,-202,-840,1050,-70,1470,,,,,,,0x03,
434,-518,-205,-834,1330,350,1330,,,,,,,0x03,
444,-519,-204,-833,2450,210,1470,,,,,,,0x03,
454,-515,-203,-833,2940,-70,1680,,,,,,,0x03,
463,-518,-208,-838,2730,0,1820,,,,,,,0x03,
473,-521,-218,-842,2590,0,1330,,,,,,,0x03,
483,-524,-216,-841,2660,70,700,,,,,,,0x03,
492,-531,-209,-837,2660,0,490,,,,,,,0x03,
502,-534,-202,-834,2170,-140,420,,,,,,,0x03,
512,-533,-198,-833,1680,-280,350,,,,,,,0x03,
521,-528,-190,-836,1260,-420,210,,,,,,,0x03,
531,-526,-180,-837,770,-420,420,,,,,,,0x03,
540,-528,-177,-838,-350,-280,840,,,,,,,0x03,
550,-523,-193,-844,-1260,0,1050,,,,,,,0x03,
560,-515,-204,-847,-980,280,980,,,,,,,0x03,
569,-515,-199,-841,210,490,1190,,,,,,,0x03,
579,-526,-198,-835,980,350,1890,,,,,,,0x03,
589,-529,-201,-833,1400,140,2310,,,,,,,0x03,
598,-532,-212,-831,1960,140,2590,,,,,,,0x03,
608,-528,-208,-832,2240,-140,2660,,,,,,,0x03,
618,-524,-193,-828,2310,-280,2730,,,,,,,0x03,
627,-520,-188,-831,1330,-140,3150,,,,,,,0x03,
637,-520,-189,-833,140,70,3500,,,,,,,0x03,
647,-521,-193,-835,-350,350,3920,,,,,,,0x03,
656,-521,-191,-835,-350,350,4410,,,,,,,0x03,
666,-522,-184,-831,-280,490,5040,,,,,,,0x03,
676,-522,-186,-830,-1120,630,5740,,,,,,,0x03,
685,-517,-214,-833,-2170,840,5810,,,,,,,0x03,
695,-514,-233,-835,-1680,770,5460,,,,,,,0x03,
705,-516,-229,-838,70,280,5320,,,,,,,0x03,
714,-526,-217,-838,1120,-350,5670,,,,,,,0x03,
724,-534,-202,-838,350,-280,5950,,,,,,,0x03,
733,-536,-212,-839,-560,0,5250,,,,,,,0x03,
743,-535,-217,-830,-1470,280,4200,,,,,,,0x03,
753,-533,-216,-828,-1890,210,3290,,,,,,,0x03,
762,-533,-221,-835,-1050,-350,2450,,,,,,,0x03,
772,-526,-205,-839,630,-840,1820,,,,,,,0x03,
782,-525,-201,-841,2170,-980,1820,,,,,,,0x03,
791,-528,-206,-847,3010,-1190,1680,,,,,,,0x03,
801,-530,-204,-855,4200,-1540,980,,,,,,,0x03,
811,-532,-192,-860,5180,-1890,490,,,,,,,0x03,
820,-523,-175,-862,4900,-1820,350,,,,,,,0x03,
830,-517,-160,-861,3220,-1400,560,,,,,,,0x03,
840,-513,-154,-852,420,-630,700,,,,,,,0x03,
849,-512,-154,-845,-2380,140,630,,,,,,,0x03,
859,-513,-157,-838,-3850,700,560,,,,,,,0x03,
869,-509,-167,-829,-4060,910,1190,,,,,,,0x03,
878,-513,-185,-822,-3360,770,1890,,,,,,,0x03,
888,-522,-200,-822,-1680,350,2030,,,,,,,0x03,
898,-524,-206,-832,1190,-280,1680,,,,,,,0x03,
907,-524,-195,-834,3570,-630,1610,,,,,,,0x03,
917,-519,-184,-828,4550,-700,1820,,,,,,,0x03,
927,-519,-180,-830,3780,-910,1820,,,,,,,0x03,
936,-517,-184,-830,1820,-770,1540,,,,,,,0x03,
946,-514,-193,-837,350,-420,1050,,,,,,,0x03,
955,-509,-196,-847,420,-210,490,,,,,,,0x03,
965,-507,-193,-851,1470,140,700,,,,,,,0x03,
975,-511,-192,-851,2100,420,1330,,,,,,,0x03,
984,-518,-203,-850,1890,630,1470,,,,,,,0x03,
994,-520,-205,-848,2520,630,910,,,,,,,0x03,
1004,-515,-195,-844,3850,490,490,,,,,,,0x03,
1013,-510,-187,-846,4340,700,630,,,,,,,0x03,
1023,-508,-185,-845,3640,1050,770,,,,,,,0x03,
1033,-516,-187,-845,2450,1260,700,,,,,,,0x03,
1042,-520,-191,-849,1960,1050,280,,,,,,,0x03,
1052,-525,-199,-846,1540,1190,420,,,,,,,0x03,
1062,-533,-205,-839,1190,1330,420,,,,,,,0x03,
1071,-539,-211,-840,910,910,-70,,,,,,,0x03,
1081,-536,-194,-839,840,350,-980,,,,,,,0x03,
1091,-530,-189,-838,420,70,-1050,,,,,,,0x03,
1100,-528,-206,-841,-840,70,-910,,,,,,,0x03,
1110,-524,-210,-843,-700,-210,-1260,,,,,,,0x03,
1120,-525,-200,-837,980,-630,-1330,,,,,,,0x03,
1129,-524,-173,-832,1820,-1120,-770,,,,,,,0x03,
1139,-516,-167,-831,910,-1190,140,,,,,,,0x03,
1148,-512,-190,-839,-630,-840,420,,,,,,,0x03,
1158,-509,-210,-853,-280,-630,-420,,,,,,,0x03,
1168,-507,-202,-854,1960,-350,-560,,,,,,,0x03,
1177,-509,-196,-845,3570,-70,420,,,,,,,0x03,
1187,-509,-199,-843,3920,70,980,,,,,,,0x03,
1197,-505,-208,-843,3920,210,630,,,,,,,0x03,
1206,-511,-204,-836,3850,420,280,,,,,,,0x03,
1216,-521,-189,-834,3360,140,420,,,,,,,0x03,
1226,-527,-188,-829,1540,-420,1260,,,,,,,0x03,
1235,-531,-204,-834,-1050,-210,2030,,,,,,,0x03,
1245,-536,-249,-843,-2380,-630,1610,,,,,,,0x03,
1255,-519,-276,-856,-2660,-1470,490,,,,,,,0x03,
1264,-503,-288,-875,-1820,-1400,-70,,,,,,,0x03,
1274,-503,-280,-880,770,-770,-70,,,,,,,0x03,
1284,-515,-255,-874,3570,-210,560,,,,,,,0x03,
1293,-534,-215,-857,6160,420,1540,,,,,,,0x03,
1303,-546,-184,-833,7210,1120,2940,,,,,,,0x03,
1313,-551,-176,-816,6580,1190,4060,,,,,,,0x03,
1322,-548,-170,-815,6580,490,4270,,,,,,,0x03,
1332,-540,-171,-822,6300,-630,4480,,,,,,,0x03,
1342,-538,-178,-838,4970,-1400,4620,,,,,,,0x03,
1351,-536,-182,-839,2730,-1680,4620,,,,,,,0x03,
1361,-546,-188,-839,1050,-2030,3990,,,,,,,0x03,
1370,-550,-183,-835,-630,-2730,2730,,,,,,,0x03,
1380,-544,-184,-830,-2870,-3010,1750,,,,,,,0x03,
1390,-536,-196,-828,-4970,-3220,630,,,,,,,0x03,
1399,-529,-199,-829,-5810,-3710,-770,,,,,,,0x03,
1409,-529,-194,-830,-4760,-4200,-1890,,,,,,,0x03,
1419,-526,-185,-827,-2800,-4550,-2730,,,,,,,0x03,
1428,-518,-186,-824,-980,-4690,-3010,,,,,,,0x03,
1438,-509,-189,-831,1190,-4970,-3640,,,,,,,0x03,
1448,-506,-178,-837,3640,-5250,-4480,,,,,,,0x03,
1457,-508,-160,-836,5110,-4970,-4410,,,,,,,0x03,
1467,-518,-163,-829,4690,-4550,-4130,,,,,,,0x03,
1477,-525,-167,-830,3640,-4480,-4340,,,,,,,0x03,
1486,-522,-157,-832,2030,-4550,-4620,,,,,,,0x03,
1496,-524,-152,-832,-630,-4270,-4760,,,,,,,0x03,
1506,-528,-158,-830,-3710,-3780,-4760,,,,,,,0x03,
1515,-527,-177,-833,-6510,-3220,-4760,,,,,,,0x03,
1525,-523,-203,-838,-7350,-2940,-4690,,,,,,,0x03,
1535,-516,-213,-835,-6090,-3080,-4900,,,,,,,0x03,
1544,-521,-218,-828,-3990,-3500,-4830,,,,,,,0x03,
1554,-519,-220,-836,-1540,-4130,-5040,,,,,,,0x03,
1564,-508,-202,-837,910,-4620,-5110,,,,,,,0x03,
1573,-497,-184,-829,2030,-4410,-4130,,,,,,,0x03,
1583,-494,-176,-824,840,-3990,-3150,,,,,,,0x03,
1592,-493,-174,-822,-1400,-3710,-2520,,,,,,,0x03,
1602,-494,-182,-818,-3920,-3360,-2100,,,,,,,0x03,
1612,-497,-189,-822,-5670,-3290,-1820,,,,,,,0x03,
1621,-497,-202,-832,-6090,-3080,-1470,,,,,,,0x03,
1631,-498,-232,-838,-5950,-2660,-840,,,,,,,0x03,
1641,-505,-258,-854,-4200,-2310,-910,,,,,,,0x03,
1650,-511,-255,-873,0,-2870,-1680,,,,,,,0x03,
1660,-516,-230,-878,4130,-2660,-1330,,,,,,,0x03,
1670,-524,-206,-881,6230,-1750,-420,,,,,,,0x03,
1679,-539,-185,-871,6020,-560,210,,,,,,,0x03,
1689,-548,-181,-860,4060,350,210,,,,,,,0x03,
1699,-545,-187,-857,1120,1050,-350,,,,,,,0x03,
1708,-553,-206,-843,-1820,1610,-770,,,,,,,0x03,
1718,-568,-218,-828,-3220,1540,-1400,,,,,,,0x03,
1728,-573,-214,-817,-3010,70,-2380,,,,,,,0x03,
1737,-566,-191,-818,-2520,-1540,-2730,,,,,,,0x03,
1747,-555,-179,-814,-2800,-2730,-2380,,,,,,,0x03,
1757,-541,-187,-819,-3920,-3150,-1960,,,,,,,0x03,
1766,-526,-204,-833,-3990,-3780,-2520,,,,,,,0x03,
1776,-517,-205,-848,-3360,-4200,-2660,,,,,,,0x03,
1785,-519,-216,-851,-2730,-3570,-2170,,,,,,,0x03,
1795,-526,-224,-843,-2380,-2800,-2240,,,,,,,0x03,
1805,-524,-209,-837,-840,-2730,-3150,,,,,,,0x03,
1814,-518,-180,-831,560,-3010,-3080,,,,,,,0x03,
1824,-511,-165,-832,-770,-2800,-2240,,,,,,,0x03,
1834,-516,-196,-840,-3430,-2170,-1540,,,,,,,0x03,
1843,-519,-230,-849,-4830,-1610,-1960,,,,,,,0x03,
1853,-529,-249,-857,-3710,-1540,-2940,,,,,,,0x03,
1863,-543,-234,-851,-2450,-1820,-3360,,,,,,,0x03,
1872,-554,-219,-838,-3430,-1960,-3360,,,,,,,0x03,
1882,-562,-227,-823,-4970,-2100,-4340,,,,,,,0x03,
1892,-564,-243,-809,-5600,-2520,-5950,,,,,,,0x03,
1901,-564,-253,-812,-4690,-3640,-7560,,,,,,,0x03,
1911,-558,-242,-822,-2660,-5180,-8470,,,,,,,0x03,
1921,-553,-214,-830,-1330,-6090,-8610,,,,,,,0x03,
1930,-542,-193,-840,-700,-6510,-8750,,,,,,,0x03,
1940,-530,-184,-838,-770,-6230,-8680,,,,,,,0x03,
1950,-528,-183,-828,-1050,-5880,-8470,,,,,,,0x03,
1959,-525,-179,-821,-1540,-5810,-7560,,,,,,,0x03,
1969,-520,-181,-823,-2240,-5740,-6510,,,,,,,0x03,
1979,-518,-189,-824,-2660,-5530,-5740,,,,,,,0x03,
1988,-519,-198,-828,-2310,-5040,-4900,,,,,,,0x03,
1998,-522,-206,-833,-1260,-4620,-3990,,,,,,,0x03,
2007,-525,-221,-826,-770,-4060,-2450,,,,,,,0x03,
2017,-534,-231,-826,-840,-3500,-1820,,,,,,,0x03,
2027,-538,-224,-823,-210,-3500,-2380,,,,,,,0x03,
2036,-538,-210,-813,-70,-3150,-2870,,,,,,,0x03,
2046,-539,-199,-811,-770,-2730,-2940,,,,,,,0x03,
2056,-539,-188,-804,-1820,-2240,-2730,,,,,,,0x03,
2065,-541,-184,-804,-2940,-1820,-2170,,,,,,,0x03,
2075,-539,-206,-808,-3850,-1820,-1680,,,,,,,0x03,
2085,-539,-228,-816,-3920,-1750,-1260,,,,,,,0x03,
2094,-539,-241,-825,-1820,-2170,-980,,,,,,,0x03,
2104,-535,-238,-834,1260,-2450,-630,,,,,,,0x03,
2114,-531,-228,-837,3710,-2520,-140,,,,,,,0x03,
2123,-527,-210,-836,4760,-2380,210,,,,,,,0x03,
2133,-527,-189,-832,4480,-1750,490,,,,,,,0x03,
2143,-532,-180,-829,2870,-910,1120,,,,,,,0x03,
2152,-534,-178,-825,350,-280,1750,,,,,,,0x03,
2162,-540,-190,-819,-1750,490,2450,,,,,,,0x03,
2172,-541,-213,-817,-2730,770,2870,,,,,,,0x03,
2181,-539,-222,-816,-1960,630,3080,,,,,,,0x03,
2191,-543,-220,-817,420,0,3430,,,,,,,0x03,
2200,-540,-212,-820,2170,-420,3990,,,,,,,0x03,
2210,-538,-204,-823,2870,-420,4270,,,,,,,0x03,
2220,-546,-194,-819,2870,-420,4340,,,,,,,0x03,
2229,-551,-186,-819,2170,-420,4270,,,,,,,0x03,
2239,-549,-186,-821,1540,-350,4200,,,,,,,0x03,
2249,-543,-209,-817,630,0,4340,,,,,,,0x03,
2258,-544,-239,-823,420,-140,3990,,,,,,,0x03,
2268,-539,-249,-841,2380,-910,2870,,,,,,,0x03,
2278,-535,-240,-854,4270,-1260,2030,,,,,,,0x03,
2287,-539,-232,-861,4480,-700,1610,,,,,,,0x03,
2297,-546,-228,-866,3990,-70,210,,,,,,,0x03,
2307,-554,-208,-857,3360,700,-1610,,,,,,,0x03,
2316,-565,-197,-832,2310,1610,-2730,,,,,,,0x03,
2326,-566,-194,-813,1190,1610,-3570,,,,,,,0x03,
2336,-557,-200,-805,1540,630,-3990,,,,,,,0x03,
2345,-547,-201,-809,2450,-980,-3850,,,,,,,0x03,
2355,-541,-183,-822,2730,-2520,-3430,,,,,,,0x03,
2365,-539,-171,-831,1120,-2870,-2800,,,,,,,0x03,
2374,-532,-159,-834,-1960,-2660,-2520,,,,,,,0x03,
2384,-527,-146,-831,-5460,-2170,-2310,,,,,,,0x03,
2394,-531,-154,-824,-9450,-980,-1470,,,,,,,0x03,
2403,-529,-193,-823,-12320,140,-910,,,,,,,0x03,
2413,-522,-234,-827,-12180,210,-1120,,,,,,,0x03,
2422,-523,-253,-839,-8190,-280,-1260,,,,,,,0x03,
2432,-531,-250,-843,-2870,-420,-420,,,,,,,0x03,
2442,-536,-230,-836,1120,-420,560,,,,,,,0x03,
2451,-536,-216,-825,3500,-280,910,,,,,,,0x03,
2461,-540,-195,-817,4060,-420,490,,,,,,,0x03,
2471,-539,-178,-815,2170,-280,420,,,,,,,0x03,
2480,-535,-169,-814,-490,490,420,,,,,,,0x03,
2490,-535,-169,-813,-2800,1190,560,,,,,,,0x03,
2500,-536,-186,-818,-4200,1190,560,,,,,,,0x03,
2509,-541,-208,-822,-4410,1190,420,,,,,,,0x03,
2519,-545,-233,-823,-3150,840,0,,,,,,,0x03,
2529,-544,-241,-832,-630,70,-700,,,,,,,0x03,
2538,-539,-237,-833,3080,-630,-1260,,,,,,,0x03,
2548,-532,-216,-832,6090,-1050,-1050,,,,,,,0x03,
2558,-523,-186,-838,7560,-1540,-980,,,,,,,0x03,
2567,-523,-170,-824,5880,-1050,-420,,,,,,,0x03,
2577,-537,-174,-818,1890,-280,-280,,,,,,,0x03,
2587,-538,-176,-819,-490,-490,-980,,,,,,,0x03,
2596,-524,-166,-815,-1540,-420,-1050,,,,,,,0x03,
2606,-518,-170,-822,-3430,-70,-280,,,,,,,0x03,
2615,-528,-196,-827,-5670,420,70,,,,,,,0x03,
2625,-535,-219,-832,-5810,560,-630,,,,,,,0x03,
2635,-541,-226,-833,-3360,0,-1470,,,,,,,0x03,
2644,-548,-225,-821,-1260,-420,-1400,,,,,,,0x03,
2654,-556,-231,-826,210,-700,-1680,,,,,,,0x03,
2664,-558,-227,-841,2310,-1330,-2800,,,,,,,0x03,
2673,-552,-208,-841,3500,-1820,-3710,,,,,,,0x03,
2683,-548,-198,-838,2660,-1750,-3990,,,,,,,0x03,
2693,-549,-182,-841,1540,-1680,-4760,,,,,,,0x03,
2702,-548,-144,-833,210,-1890,-5110,,,,,,,0x03,
2712,-540,-142,-817,-3290,-1680,-4340,,,,,,,0x03,
2722,-530,-172,-816,-8400,-1190,-4200,,,,,,,0x03,
2731,-529,-190,-822,-10570,-1400,-5250,,,,,,,0x03,
2741,-529,-198,-819,-10010,-1750,-5250,,,,,,,0x03,
2751,-527,-203,-822,-8820,-1960,-4410,,,,,,,0x03,
2760,-522,-201,-831,-6090,-2380,-4060,,,,,,,0x03,
2770,-521,-215,-835,-3360,-2240,-3360,,,,,,,0x03,
2780,-519,-218,-850,-910,-2310,-3430,,,,,,,0x03,
2789,-523,-206,-859,1540,-2100,-3570,,,,,,,0x03,
2799,-536,-195,-850,3150,-1120,-3010,,,,,,,0x03,
2809,-535,-189,-836,2800,-630,-2660,,,,,,,0x03,
2818,-531,-198,-824,1260,-420,-2660,,,,,,,0x03,
2828,-528,-204,-822,-140,-560,-2800,,,,,,,0x03,
2837,-525,-192,-822,-1540,-910,-2520,,,,,,,0x03,
2847,-527,-182,-820,-3430,-910,-1960,,,,,,,0x03,
2857,-536,-189,-816,-5810,-700,-1680,,,,,,,0x03,
2866,-543,-196,-822,-6510,-770,-2030,,,,,,,0x03,
2876,-547,-194,-827,-5600,-1050,-2240,,,,,,,0x03,
2886,-539,-204,-840,-3850,-1120,-1890,,,,,,,0x03,
2895,-532,-226,-853,-1540,-1120,-1540,,,,,,,0x03,
2905,-522,-231,-860,1610,-980,-1540,,,,,,,0x03,
2915,-519,-231,-862,4550,-980,-1680,,,,,,,0x03,
2924,-520,-207,-847,5810,-770,-1820,,,,,,,0x03,
2934,-528,-167,-830,4830,-350,-1960,,,,,,,0x03,
2944,-534,-140,-816,1820,-70,-2030,,,,,,,0x03,
2953,-530,-144,-807,-3290,630,-1890,,,,,,,0x03,
2963,-529,-190,-802,-8120,1330,-1960,,,,,,,0x03,
2973,-535,-231,-811,-9520,1120,-2800,,,,,,,0x03,
2982,-538,-257,-827,-6930,140,-3290,,,,,,,0x03,
2992,-537,-262,-840,-2660,-630,-2940,,,,,,,0x03,
3002,-536,-247,-848,2240,-1400,-2730,,,,,,,0x03,
3011,-538,-215,-851,6300,-1680,-2520,,,,,,,0x03,
3021,-539,-185,-844,7210,-1400,-1960,,,,,,,0x03,
3030,-542,-170,-838,5670,-770,-1680,,,,,,,0x03,
3040,-544,-172,-832,3150,70,-1540,,,,,,,0x03,
3050,-536,-191,-840,980,700,-1470,,,,,,,0x03,
3059,-533,-207,-847,140,1120,-1400,,,,,,,0x03,
3069,-537,-214,-842,70,1330,-910,,,,,,,0x03,
3079,-537,-223,-831,-280,1050,-280,,,,,,,0x03,
3088,-535,-225,-826,140,490,-490,,,,,,,0x03,
3098,-527,-207,-826,1120,0,-630,,,,,,,0x03,
3108,-518,-189,-829,1330,-140,-420,,,,,,,0x03,
3117,-518,-180,-829,70,350,0,,,,,,,0x03,
3127,-527,-185,-828,-1540,1050,420,,,,,,,0x03,
3137,-540,-205,-826,-2450,1120,770,,,,,,,0x03,
3146,-549,-214,-827,-2310,840,770,,,,,,,0x03,
3156,-560,-215,-824,-840,560,910,,,,,,,0x03,
3166,-562,-207,-821,-560,210,1050,,,,,,,0x03,
3175,-554,-209,-817,-1190,-140,630,,,,,,,0x03,
3185,-547,-216,-812,-1820,-280,-350,,,,,,,0x03,
3195,-545,-208,-811,-1260,-770,-1260,,,,,,,0x03,
3204,-539,-184,-814,70,-1680,-1260,,,,,,,0x03,
3214,-528,-168,-815,350,-2170,-280,,,,,,,0x03,
3224,-517,-177,-824,-700,-2100,140,,,,,,,0x03,
3233,-513,-202,-839,-1260,-1890,-490,,,,,,,0x03,
3243,-513,-211,-850,-420,-1540,-1120,,,,,,,0x03,
3252,-510,-213,-856,840,-1260,-1190,,,,,,,0x03,
3262,-503,-208,-855,1190,-770,-910,,,,,,,0x03,
3272,-508,-215,-845,770,420,-980,,,,,,,0x03,
3281,-520,-216,-837,1120,1050,-1680,,,,,,,0x03,
3291,-525,-204,-823,1540,1190,-2100,,,,,,,0x03,
3301,-533,-200,-811,1190,980,-1680,,,,,,,0x03,
3310,-539,-201,-807,70,350,-1610,,,,,,,0x03,
3320,-543,-207,-810,-1050,-420,-2100,,,,,,,0x03,
3330,-545,-227,-818,-1750,-840,-2590,,,,,,,0x03,
3339,-543,-227,-830,-1120,-1610,-3080,,,,,,,0x03,
3349,-543,-206,-835,350,-2240,-2520,,,,,,,0x03,
3359,-538,-189,-840,700,-2520,-1610,,,,,,,0x03,
3368,-530,-193,-846,-210,-2380,-1400,,,,,,,0x03,
3378,-524,-203,-849,-1190,-1750,-1540,,,,,,,0x03,
3388,-519,-222,-853,-1400,-1050,-1610,,,,,,,0x03,
3397,-517,-236,-852,-1050,-560,-1540,,,,,,,0x03,
3407,-517,-232,-842,-70,-280,-1890,,,,,,,0x03,
3417,-521,-233,-835,420,-420,-2380,,,,,,,0x03,
3426,-525,-231,-835,490,-350,-3430,,,,,,,0x03,
3436,-531,-219,-828,980,-490,-4130,,,,,,,0x03,
3445,-542,-212,-822,980,-630,-4130,,,,,,,0x03,
3455,-543,-207,-826,420,-910,-4060,,,,,,,0x03,
3465,-543,-197,-820,-210,-1120,-4060,,,,,,,0x03,
3474,-538,-195,-817,-560,-1260,-3780,,,,,,,0x03,
3484,-528,-189,-816,-1190,-1680,-3640,,,,,,,0x03,
3494,-518,-180,-818,-2310,-1680,-2870,,,,,,,0x03,
3503,-519,-190,-825,-3500,-1540,-1960,,,,,,,0x03,
3513,-515,-209,-836,-3920,-1260,-1260,,,,,,,0x03,
3523,-513,-231,-848,-2450,-700,-700,,,,,,,0x03,
3532,-520,-238,-855,280,-280,-140,,,,,,,0x03,
3542,-533,-236,-849,3010,-70,630,,,,,,,0x03,
3552,-539,-225,-845,4690,0,1610,,,,,,,0x03,
3561,-534,-230,-844,5670,210,1750,,,,,,,0x03,
3571,-530,-225,-833,6020,560,1750,,,,,,,0x03,
3581,-532,-203,-824,5670,700,2030,,,,,,,0x03,
3590,-539,-177,-815,4760,280,2310,,,,,,,0x03,
3600,-541,-165,-810,2380,140,2870,,,,,,,0x03,
3610,-538,-182,-818,-280,210,3080,,,,,,,0x03,
3619,-535,-198,-825,-1540,140,2730,,,,,,,0x03,
3629,-536,-210,-830,-1610,210,2730,,,,,,,0x03,
3639,-533,-217,-840,-700,-280,2660,,,,,,,0x03,
3648,-528,-209,-848,700,-490,2660,,,,,,,0x03,
3658,-528,-205,-837,1680,-350,3080,,,,,,,0x03,
3667,-528,-213,-833,1680,-210,3150,,,,,,,0x03,
3677,-526,-226,-835,1470,-210,2450,,,,,,,0x03,
3687,-526,-236,-838,1960,-70,1680,,,,,,,0x03,
3696,-530,-233,-843,3220,-140,840,,,,,,,0x03,
3706,-533,-217,-836,3850,-210,140,,,,,,,0x03,
3716,-537,-202,-822,3430,-560,-630,,,,,,,0x03,
3725,-538,-196,-815,1680,-840,-1330,,,,,,,0x03,
3735,-531,-198,-829,490,-1120,-2310,,,,,,,0x03,
3745,-525,-208,-842,70,-910,-2730,,,,,,,0x03,
3754,-530,-228,-846,-140,-420,-2590,,,,,,,0x03,
3764,-539,-242,-848,560,-630,-2800,,,,,,,0x03,
3774,-540,-259,-839,2380,-770,-2940,,,,,,,0x03,
3783,-539,-265,-829,4970,-1120,-3290,,,,,,,0x03,
3793,-531,-230,-827,8260,-2100,-3500,,,,,,,0x03,
3803,-523,-204,-823,9870,-2590,-2870,,,,,,,0x03,
3812,-522,-182,-828,8330,-3010,-2310,,,,,,,0x03,
3822,-526,-161,-841,5250,-2590,-2170,,,,,,,0x03,
3832,-534,-162,-834,1470,-1540,-1470,,,,,,,0x03,
3841,-546,-176,-825,-2870,-630,-770,,,,,,,0x03,
3851,-560,-205,-816,-5390,-910,-980,,,,,,,0x03,
3861,-571,-229,-809,-6230,-1890,-1330,,,,,,,0x03,
3870,-569,-252,-815,-6300,-3430,-1610,,,,,,,0x03,
3880,-553,-266,-825,-4270,-4760,-2380,,,,,,,0x03,
3889,-535,-253,-836,-980,-5880,-3150,,,,,,,0x03,
3899,-519,-209,-849,1680,-6440,-3360,,,,,,,0x03,
3909,-509,-180,-846,1470,-5460,-2800,,,,,,,0x03,
3918,-510,-174,-830,-1750,-3710,-2520,,,,,,,0x03,
3928,-515,-187,-823,-4550,-2380,-2940,,,,,,,0x03,
3938,-513,-208,-814,-4970,-1680,-3150,,,,,,,0x03,
3947,-511,-213,-806,-3570,-1400,-2590,,,,,,,0x03,
3957,-512,-212,-808,-1470,-1820,-1820,,,,,,,0x03,
3967,-507,-213,-809,0,-2100,-980,,,,,,,0x03,
3976,-508,-211,-812,700,-2240,-490,,,,,,,0x03,
3986,-514,-208,-826,1820,-2310,-210,,,,,,,0x03,
3996,-516,-210,-835,2240,-1470,700,,,,,,,0x03,
4005,-526,-214,-830,1960,-350,1470,,,,,,,0x03,
4015,-533,-224,-829,1540,350,1750,,,,,,,0x03,
4025,-533,-237,-836,1470,350,1260,,,,,,,0x03,
4034,-540,-230,-835,2170,560,1120,,,,,,,0x03,
4044,-541,-223,-831,2520,700,1540,,,,,,,0x03,
4054,-535,-230,-824,1680,1120,2100,,,,,,,0x03,
4063,-536,-227,-821,1400,1330,2030,,,,,,,0x03,
4073,-541,-215,-830,1190,1120,1960,,,,,,,0x03,
4082,-535,-219,-834,840,1330,2380,,,,,,,0x03,
4092,-526,-224,-844,1540,1540,2730,,,,,,,0x03,
4102,-528,-233,-850,2800,2030,3290,,,,,,,0x03,
4111,-530,-234,-855,5110,2170,3570,,,,,,,0x03,
4121,-533,-227,-851,6930,2310,3990,,,,,,,0x03,
4131,-540,-219,-837,7490,2800,4620,,,,,,,0x03,
4140,-533,-210,-824,7420,2800,5040,,,,,,,0x03,
4150,-526,-212,-812,6020,2800,5390,,,,,,,0x03,
4160,-531,-200,-809,4970,2590,5250,,,,,,,0x03,
4169,-526,-167,-818,4480,2170,5530,,,,,,,0x03,
4179,-518,-159,-816,2800,2660,6860,,,,,,,0x03,
4189,-529,-179,-818,0,3220,7630,,,,,,,0x03,
4198,-532,-192,-829,-1190,3080,6720,,,,,,,0x03,
4208,-534,-221,-827,-1260,3150,5950,,,,,,,0x03,
4218,-535,-248,-832,-560,2800,5110,,,,,,,0x03,
4227,-530,-250,-838,1400,1960,3990,,,,,,,0x03,
4237,-526,-221,-830,3920,1190,3220,,,,,,,0x03,
4247,-525,-195,-821,3990,700,3080,,,,,,,0x03,
4256,-522,-188,-822,1890,490,2310,,,,,,,0x03,
4266,-517,-197,-821,-770,770,1050,,,,,,,0x03,
4276,-521,-210,-821,-2380,1120,-210,,,,,,,0x03,
4285,-526,-211,-823,-2520,560,-1260,,,,,,,0x03,
4295,-533,-211,-825,-1890,-210,-1750,,,,,,,0x03,
4304,-537,-211,-825,-1190,-1050,-2310,,,,,,,0x03,
4314,-534,-209,-835,-420,-1890,-2870,,,,,,,0x03,
4324,-527,-208,-844,0,-2520,-3360,,,,,,,0x03,
4333,-524,-196,-852,-280,-2660,-3430,,,,,,,0x03,
4343,-526,-192,-849,-1680,-2310,-3290,,,,,,,0x03,
4353,-529,-210,-851,-3780,-1960,-3640,,,,,,,0x03,
4362,-522,-228,-853,-4970,-1750,-4690,,,,,,,0x03,
4372,-519,-231,-845,-4620,-1610,-5460,,,,,,,0x03,
4382,-527,-233,-838,-3780,-1820,-5670,,,,,,,0x03,
4391,-531,-226,-837,-2240,-2520,-5950,,,,,,,0x03,
4401,-532,-207,-836,-560,-3150,-5950,,,,,,,0x03,
4411,-532,-200,-832,-210,-3220,-5600,,,,,,,0x03,
4420,-526,-191,-836,-980,-3430,-5740,,,,,,,0x03,
4430,-524,-189,-838,-1890,-3150,-5670,,,,,,,0x03,
4440,-527,-195,-837,-2940,-2730,-5460,,,,,,,0x03,
4449,-521,-198,-835,-3990,-2590,-5460,,,,,,,0x03,
4459,-516,-208,-829,-5180,-2240,-5110,,,,,,,0x03,
4469,-514,-220,-828,-5740,-2170,-5320,,,,,,,0x03,
4478,-512,-236,-835,-5110,-2170,-6020,,,,,,,0x03,
4488,-512,-229,-836,-3360,-2030,-6160,,,,,,,0x03,
4497,-511,-216,-838,-1680,-2030,-5810,,,,,,,0x03,
4507,-510,-219,-839,-1190,-1820,-5460,,,,,,,0x03,
4517,-514,-225,-842,-840,-1190,-5460,,,,,,,0x03,
4526,-519,-222,-844,140,-1050,-5740,,,,,,,0x03,
4536,-525,-210,-833,280,-840,-5320,,,,,,,0x03,
4546,-531,-211,-822,-1400,-350,-4200,,,,,,,0x03,
4555,-531,-228,-824,-2940,-350,-3850,,,,,,,0x03,
4565,-532,-233,-821,-2660,-560,-3920,,,,,,,0x03,
4575,-533,-232,-818,-2240,-770,-3010,,,,,,,0x03,
4584,-538,-233,-819,-2870,-1050,-1960,,,,,,,0x03,
4594,-545,-226,-822,-2870,-1400,-1330,,,,,,,0x03,
4604,-548,-219,-826,-2730,-1540,-630,,,,,,,0x03,
4613,-544,-230,-832,-2730,-1330,70,,,,,,,0x03,
4623,-537,-245,-838,-1750,-1190,280,,,,,,,0x03,
4633,-533,-247,-842,210,-1470,280,,,,,,,0x03,
4642,-532,-239,-835,1820,-1610,490,,,,,,,0x03,
4652,-532,-228,-829,2800,-1680,840,,,,,,,0x03,
4662,-526,-214,-826,3290,-1820,1050,,,,,,,0x03,
4671,-523,-198,-825,2940,-1750,1470,,,,,,,0x03,
4681,-520,-198,-821,1050,-1400,2100,,,,,,,0x03,
4691,-520,-220,-821,-1750,-910,2520,,,,,,,0x03,
4700,-523,-237,-824,-2870,-910,2030,,,,,,,0x03,
4710,-517,-237,-824,-1960,-1050,1470,,,,,,,0x03,
4719,-519,-225,-816,-1190,-910,1610,,,,,,,0x03,
4729,-521,-223,-814,-980,-770,1540,,,,,,,0x03,
4739,-523,-225,-814,-350,-840,980,,,,,,,0x03,
4748,-527,-231,-817,1050,-910,490,,,,,,,0x03,
4758,-527,-238,-827,2450,-1120,140,,,,,,,0x03,
4768,-526,-239,-836,3920,-1260,-140,,,,,,,0x03,
4777,-534,-218,-835,4970,-1330,-70,,,,,,,0x03,
4787,-538,-204,-838,4550,-1330,70,,,,,,,0x03,
4797,-537,-194,-839,2660,-980,70,,,,,,,0x03,
4806,-537,-195,-833,70,-280,350,,,,,,,0x03,
4816,-538,-216,-831,-2030,140,490,,,,,,,0x03,
4826,-535,-233,-830,-3290,140,350,,,,,,,0x03,
4835,-537,-244,-829,-3080,0,350,,,,,,,0x03,
4845,-539,-254,-833,-1610,-350,280,,,,,,,0x03,
4855,-540,-252,-836,420,-840,140,,,,,,,0x03,
4864,-538,-251,-837,2450,-1190,280,,,,,,,0x03,
4874,-539,-240,-838,3570,-1330,350,,,,,,,0x03,
4884,-542,-236,-839,3360,-1190,560,,,,,,,0x03,
4893,-546,-234,-834,2940,-1120,700,,,,,,,0x03,
4903,-547,-235,-827,1890,-910,1330,,,,,,,0x03,
4912,-541,-245,-824,1120,-980,1960,,,,,,,0x03,
4922,-536,-242,-824,910,-1330,2380,,,,,,,0x03,
4932,-535,-241,-834,770,-1680,2940,,,,,,,0x03,
4941,-533,-240,-852,980,-1610,3080,,,,,,,0x03,
4951,-527,-230,-849,2170,-770,3710,,,,,,,0x03,
4961,-527,-214,-838,3220,-70,4830,,,,,,,0x03,
4970,-522,-184,-828,3850,-70,5320,,,,,,,0x03,
4980,-516,-154,-816,3500,210,6230,,,,,,,0x03,
4990,-510,-145,-805,1050,1120,7490,,,,,,,0x03,
4999,-506,-176,-799,-1540,2170,8400,,,,,,,0x03,
5009,-509,-210,-805,-1190,2310,8190,,,,,,,0x03,
5019,-518,-219,-806,350,1890,8330,,,,,,,0x03,
5028,-528,-220,-808,2100,1610,8540,,,,,,,0x03,
5038,-536,-237,-809,2870,1330,8470,,,,,,,0x03,
5048,-541,-242,-818,3990,770,7210,,,,,,,0x03,
5057,-543,-227,-827,6090,0,6090,,,,,,,0x03,
5067,-544,-200,-833,5950,-210,5600,,,,,,,0x03,
5077,-543,-185,-836,3500,210,5390,,,,,,,0x03,
5086,-539,-198,-835,630,980,4970,,,,,,,0x03,
5096,-532,-207,-836,-350,1050,3710,,,,,,,0x03,
5106,-528,-196,-833,0,1050,3430,,,,,,,0x03,
5115,-529,-187,-821,-630,1050,3850,,,,,,,0x03,
5125,-529,-187,-817,-1960,910,3850,,,,,,,0x03,
5134,-531,-199,-820,-2240,1050,3150,,,,,,,0x03,
5144,-527,-200,-824,-910,770,2240,,,,,,,0x03,
5154,-519,-203,-826,350,350,2030,,,,,,,0x03,
5163,-518,-217,-830,1190,210,1750,,,,,,,0x03,
5173,-522,-210,-841,2520,-210,700,,,,,,,0x03,
5183,-517,-199,-844,3710,-560,-280,,,,,,,0x03,
5192,-514,-208,-840,2590,-210,-560,,,,,,,0x03,
5202,-526,-223,-843,-70,-140,-1470,,,,,,,0x03,
5212,-545,-215,-853,-1120,-560,-3080,,,,,,,0x03,
5221,-546,-192,-861,-1050,-910,-3710,,,,,,,0x03,
5231,-543,-175,-858,-2940,-420,-2940,,,,,,,0x03,
5241,-543,-185,-848,-6020,350,-2030,,,,,,,0x03,
5250,-549,-212,-843,-8330,560,-1750,,,,,,,0x03,
5260,-548,-224,-837,-8820,140,-2240,,,,,,,0x03,
5270,-545,-228,-823,-8260,-420,-2170,,,,,,,0x03,
5279,-538,-233,-818,-7560,-1540,-1960,,,,,,,0x03,
5289,-535,-241,-823,-5810,-2520,-1750,,,,,,,0x03,
5299,-537,-247,-829,-2730,-3290,-1610,,,,,,,0x03,
5308,-526,-229,-837,770,-4060,-1190,,,,,,,0x03,
5318,-512,-211,-850,3990,-4410,-70,,,,,,,0x03,
5327,-500,-202,-857,5460,-4270,1540,,,,,,,0x03,
5337,-501,-197,-858,5110,-3850,2660,,,,,,,0x03,
5347,-505,-198,-853,3640,-3220,3290,,,,,,,0x03,
5356,-507,-201,-850,1330,-2940,3780,,,,,,,0x03,
5366,-510,-189,-847,-1890,-2310,4550,,,,,,,0x03,
5376,-516,-202,-844,-4200,-1120,5390,,,,,,,0x03,
5385,-521,-226,-831,-5390,-140,6160,,,,,,,0x03,
5395,-524,-249,-822,-3430,280,6510,,,,,,,0x03,
5405,-532,-250,-815,1050,-420,7000,,,,,,,0x03,
5414,-531,-221,-807,5040,-1400,7420,,,,,,,0x03,
5424,-533,-203,-813,7000,-1750,7420,,,,,,,0x03,
5434,-532,-204,-814,7140,-1330,6580,,,,,,,0x03,
5443,-530,-202,-814,6440,-840,5600,,,,,,,0x03,
5453,-524,-193,-824,5950,-770,5110,,,,,,,0x03,
5463,-518,-178,-834,5180,-420,4970,,,,,,,0x03,
5472,-520,-173,-831,3290,420,5670,,,,,,,0x03,
5482,-525,-199,-827,1120,1400,5740,,,,,,,0x03,
5492,-535,-239,-816,490,1890,4970,,,,,,,0x03,
5501,-546,-238,-819,2100,1400,4550,,,,,,,0x03,
5511,-551,-222,-821,3920,280,4550,,,,,,,0x03,
5521,-559,-207,-823,4970,70,4690,,,,,,,0x03,
5530,-561,-197,-827,5670,280,4690,,,,,,,0x03,
5540,-558,-193,-819,6370,350,4970,,,,,,,0x03,
5549,-556,-196,-814,6440,350,5320,,,,,,,0x03,
5559,-550,-200,-807,6230,-70,5320,,,,,,,0x03,
5569,-549,-199,-804,5950,-210,5110,,,,,,,0x03,
5578,-546,-209,-812,6020,-700,4690,,,,,,,0x03,
5588,-537,-214,-814,6160,-1050,4550,,,,,,,0x03,
5598,-532,-222,-815,6160,-1330,4830,,,,,,,0x03,
5607,-534,-213,-828,6440,-1960,4620,,,,,,,0x03,
5617,-536,-182,-838,7140,-2730,4620,,,,,,,0x03,
5627,-541,-152,-844,6790,-2870,5110,,,,,,,0x03,
5636,-544,-140,-843,4410,-2450,5390,,,,,,,0x03,
5646,-545,-133,-841,1190,-1750,5390,,,,,,,0x03,
5656,-539,-155,-847,-1890,-980,5180,,,,,,,0x03,
5665,-531,-208,-856,-4200,-630,3920,,,,,,,0x03,
5675,-530,-228,-855,-4410,-140,2940,,,,,,,0x03,
5685,-531,-229,-850,-1260,-560,2380,,,,,,,0x03,
5694,-525,-206,-853,2590,-1540,2030,,,,,,,0x03,
5704,-525,-179,-844,3640,-1680,2590,,,,,,,0x03,
5714,-534,-171,-831,2310,-1120,2800,,,,,,,0x03,
5723,-540,-185,-826,560,-1050,1820,,,,,,,0x03,
5733,-540,-201,-828,-910,-980,980,,,,,,,0x03,
5742,-543,-208,-832,-700,-1330,280,,,,,,,0x03,
5752,-542,-202,-829,210,-1400,140,,,,,,,0x03,
5762,-536,-207,-829,1050,-1540,-140,,,,,,,0x03,
5771,-533,-217,-831,1820,-1820,-560,,,,,,,0x03,
5781,-532,-226,-835,2660,-2310,-1330,,,,,,,0x03,
5791,-537,-219,-841,3080,-2730,-1820,,,,,,,0x03,
5800,-541,-204,-846,3290,-2730,-2170,,,,,,,0x03,
5810,-539,-187,-840,2660,-2030,-2240,,,,,,,0x03,
5820,-536,-177,-828,1540,-1120,-2100,,,,,,,0x03,
5829,-533,-180,-816,280,-420,-1610,,,,,,,0x03,
5839,-530,-200,-810,-560,0,-1190,,,,,,,0x03,
5849,-530,-222,-803,-70,-350,-980,,,,,,,0x03,
5858,-532,-238,-802,1890,-980,-770,,,,,,,0x03,
5868,-532,-232,-812,4620,-2380,-840,,,,,,,0x03,
5878,-529,-206,-823,5670,-3150,-210,,,,,,,0x03,
5887,-528,-192,-837,4130,-2520,840,,,,,,,0x03,
5897,-534,-202,-839,1610,-1330,1400,,,,,,,0x03,
5907,-542,-203,-833,-350,-490,1050,,,,,,,0x03,
5916,-546,-205,-826,-1330,-280,700,,,,,,,0x03,
5926,-544,-216,-818,-3010,-210,630,,,,,,,0x03,
5936,-547,-235,-821,-3990,-280,210,,,,,,,0x03,
5945,-544,-247,-821,-3010,-560,-840,,,,,,,0x03,
5955,-534,-249,-823,-980,-980,-1470,,,,,,,0x03,
5964,-534,-238,-827,770,-1610,-1540,,,,,,,0x03,
5974,-538,-228,-826,1540,-1960,-1400,,,,,,,0x03,
5984,-540,-216,-822,1470,-1820,-1540,,,,,,,0x03,
5993,-532,-200,-819,1610,-1890,-1820,,,,,,,0x03,
6003,-527,-195,-815,1960,-1820,-1820,,,,,,,0x03,
6013,-532,-186,-806,1260,-1610,-1400,,,,,,,0x03,
6022,-534,-190,-804,140,-1890,-1050,,,,,,,0x03,
6032,-531,-205,-816,-840,-2170,-1260,,,,,,,0x03,
6042,-540,-214,-827,-630,-2030,-1400,,,,,,,0x03,
6051,-544,-217,-827,140,-1960,-840,,,,,,,0x03,
6061,-540,-223,-835,420,-2100,-560,,,,,,,0x03,
6071,-539,-221,-841,770,-2030,-560,,,,,,,0x03,
6080,-540,-208,-838,630,-1750,-490,,,,,,,0x03,
6090,-540,-196,-836,350,-1470,-280,,,,,,,0x03,
6100,-542,-192,-829,-630,-840,560,,,,,,,0x03,
6109,-546,-207,-825,-1750,-210,1470,,,,,,,0x03,
6119,-545,-227,-821,-1960,-70,1470,,,,,,,0x03,
6129,-542,-241,-825,-1050,-350,1260,,,,,,,0x03,
6138,-541,-237,-829,700,-770,1120,,,,,,,0x03,
6148,-541,-232,-834,2380,-1050,1540,,,,,,,0x03,
6158,-538,-230,-843,3430,-1120,1960,,,,,,,0x03,
6167,-539,-216,-839,3080,-980,2170,,,,,,,0x03,
6177,-548,-205,-834,1890,-490,2100,,,,,,,0x03,
6186,-556,-197,-823,70,-140,1750,,,,,,,0x03,
6196,-557,-198,-812,-700,70,1750,,,,,,,0x03,
6206,-548,-201,-799,-980,-70,2030,,,,,,,0x03,
6215,-536,-208,-795,-980,-840,1960,,,,,,,0x03,
6225,-536,-214,-803,-1470,-1540,1750,,,,,,,0x03,
6235,-538,-221,-814,-700,-2030,1190,,,,,,,0x03,
6244,-541,-211,-821,1330,-2240,910,,,,,,,0x03,
6254,-540,-210,-824,3500,-2310,1330,,,,,,,0x03,
6264,-538,-204,-833,5950,-2310,1540,,,,,,,0x03,
6273,-533,-179,-835,7630,-2730,1330,,,,,,,0x03,
6283,-531,-170,-833,6650,-2310,1540,,,,,,,0x03,
6293,-530,-189,-833,3220,-1960,980,,,,,,,0x03,
6302,-535,-208,-834,-70,-1400,140,,,,,,,0x03,
6312,-543,-229,-831,-910,-980,-840,,,,,,,0x03,
6322,-544,-225,-822,-630,-1050,-1470,,,,,,,0x03,
6331,-550,-214,-809,-840,-1260,-1610,,,,,,,0x03,
6341,-560,-210,-796,-1190,-2240,-2310,,,,,,,0x03,
6351,-557,-195,-807,-1050,-3150,-3220,,,,,,,0x03,
6360,-545,-187,-806,-350,-3290,-3010,,,,,,,0x03,
6370,-542,-193,-805,-490,-3780,-2590,,,,,,,0x03,
6379,-542,-205,-819,-1190,-3850,-2660,,,,,,,0x03,
6389,-542,-220,-832,-1540,-3850,-3290,,,,,,,0x03,
6399,-539,-220,-844,-1190,-3780,-4270,,,,,,,0x03,
6408,-544,-220,-850,-770,-3360,-4410,,,,,,,0x03,
6418,-546,-218,-847,-1260,-2660,-3780,,,,,,,0x03,
6428,-551,-231,-838,-1680,-2170,-3640,,,,,,,0x03,
6437,-555,-245,-827,-1330,-2100,-3990,,,,,,,0x03,
6447,-557,-241,-817,-490,-2520,-4410,,,,,,,0x03,
6457,-563,-229,-811,770,-3010,-4480,,,,,,,0x03,
6466,-566,-223,-807,1470,-3220,-4270,,,,,,,0x03,
6476,-568,-223,-808,1400,-3500,-3990,,,,,,,0x03,
6486,-570,-226,-810,1260,-3850,-4130,,,,,,,0x03,
6495,-567,-221,-808,910,-4270,-4270,,,,,,,0x03,
6505,-565,-218,-814,280,-4620,-4480,,,,,,,0x03,
6515,-553,-217,-824,-560,-4480,-4550,,,,,,,0x03,
6524,-540,-232,-826,-1120,-3220,-4200,,,,,,,0x03,
6534,-527,-246,-828,-490,-2100,-3710,,,,,,,0x03,
6544,-515,-239,-823,1540,-1540,-3430,,,,,,,0x03,
6553,-515,-230,-817,3570,-1120,-2310,,,,,,,0x03,
6563,-520,-236,-814,4550,-630,-1050,,,,,,,0x03,
6573,-526,-245,-814,5320,0,-140,,,,,,,0x03,
6582,-532,-244,-820,7280,280,630,,,,,,,0x03,
6592,-537,-228,-822,8750,490,1890,,,,,,,0x03,
6601,-547,-224,-825,8330,1050,3430,,,,,,,0x03,
6611,-555,-224,-830,6650,1680,4410,,,,,,,0x03,
6621,-563,-222,-834,5670,2730,5320,,,,,,,0x03,
6630,-566,-223,-832,5600,3360,6720,,,,,,,0x03,
6640,-565,-217,-824,5670,4060,8470,,,,,,,0x03,
6650,-561,-217,-813,5670,4620,10220,,,,,,,0x03,
6659,-563,-223,-803,6020,4900,11340,,,,,,,0x03,
6669,-558,-221,-795,6930,4830,12180,,,,,,,0x03,
6679,-551,-228,-788,7560,4830,13300,,,,,,,0x03,
6688,-548,-239,-789,8400,4760,13860,,,,,,,0x03,
6698,-546,-220,-789,10010,4200,13930,,,,,,,0x03,
6708,-539,-172,-787,11340,4130,14630,,,,,,,0x03,
6717,-531,-158,-773,10430,4760,16310,,,,,,,0x03,
6727,-528,-179,-760,7420,5600,17780,,,,,,,0x03,
6737,-528,-218,-762,6160,5460,17710,,,,,,,0x03,
6746,-526,-240,-780,7910,4480,16870,,,,,,,0x03,
6756,-523,-255,-798,9170,3920,16730,,,,,,,0x03,
6766,-528,-277,-822,9590,3920,15890,,,,,,,0x03,
6775,-536,-272,-841,11200,4130,14210,,,,,,,0x03,
6785,-533,-247,-839,13790,4690,13370,,,,,,,0x03,
6794,-528,-226,-831,14420,5670,13720,,,,,,,0x03,
6804,-538,-216,-822,12810,6300,14000,,,,,,,0x03,
6814,-552,-209,-821,10290,6650,14000,,,,,,,0x03,
6823,-569,-212,-820,8470,6860,13510,,,,,,,0x03,
6833,-581,-220,-817,7140,6790,13020,,,,,,,0x03,
6843,-584,-220,-817,6370,6510,12600,,,,,,,0x03,
6852,-578,-220,-818,6020,5880,12040,,,,,,,0x03,
6862,-574,-228,-815,5040,5180,11270,,,,,,,0x03,
6872,-575,-250,-813,3710,4690,10290,,,,,,,0x03,
6881,-573,-270,-818,4130,3990,8890,,,,,,,0x03,
6891,-568,-265,-810,6790,2730,7560,,,,,,,0x03,
6901,-558,-234,-804,9660,1260,7000,,,,,,,0x03,
6910,-555,-203,-808,10290,-70,6790,,,,,,,0x03,
6920,-552,-178,-797,7560,-560,6580,,,,,,,0x03,
6930,-552,-179,-792,3920,-770,6020,,,,,,,0x03,
6939,-552,-201,-796,1050,-1190,5110,,,,,,,0x03,
6949,-547,-212,-800,0,-1540,4270,,,,,,,0x03,
6959,-546,-209,-805,770,-2170,3430,,,,,,,0x03,
6968,-546,-196,-813,1330,-2800,2450,,,,,,,0x03,
6978,-549,-187,-810,210,-3080,1680,,,,,,,0x03,
6988,-563,-200,-814,-980,-3290,1050,,,,,,,0x03,
6997,-570,-209,-821,-910,-4130,0,,,,,,,0x03,
7007,-562,-212,-820,-350,-4550,-630,,,,,,,0x03,
7016,-546,-223,-821,280,-5040,-1680,,,,,,,0x03,
7026,-531,-225,-828,280,-4970,-3360,,,,,,,0x03,
7036,-517,-224,-842,840,-4900,-4970,,,,,,,0x03,
7045,-507,-209,-844,1470,-4550,-5460,,,,,,,0x03,
7055,-506,-191,-854,2310,-3710,-4830,,,,,,,0x03,
7065,-518,-207,-859,2590,-2660,-3570,,,,,,,0x03,
7074,-524,-223,-851,2240,-1330,-2800,,,,,,,0x03,
7084,-535,-237,-839,2660,-1190,-3290,,,,,,,0x03,
7094,-542,-219,-826,2590,-1960,-4130,,,,,,,0x03,
7103,-538,-197,-828,1400,-2240,-4690,,,,,,,0x03,
7113,-526,-186,-831,-1050,-2030,-4900,,,,,,,0x03,
7123,-511,-184,-832,-3920,-1330,-4690,,,,,,,0x03,
7132,-507,-186,-844,-5880,-980,-4200,,,,,,,0x03,
7142,-513,-185,-846,-7420,-840,-3430,,,,,,,0x03,
7152,-525,-184,-845,-8610,-210,-2380,,,,,,,0x03,
7161,-526,-188,-847,-8400,210,-1750,,,,,,,0x03,
7171,-517,-205,-837,-7630,700,-1190,,,,,,,0x03,
7181,-514,-222,-823,-6790,1050,-910,,,,,,,0x03,
7190,-520,-225,-821,-5040,350,-1400,,,,,,,0x03,
7200,-529,-212,-815,-3360,-560,-1820,,,,,,,0x03,
7209,-535,-194,-807,-2450,-1470,-1960,,,,,,,0x03,
7219,-539,-192,-808,-3150,-2450,-2310,,,,,,,0x03,
7229,-543,-204,-811,-5180,-3220,-3010,,,,,,,0x03,
7238,-552,-223,-814,-7280,-3990,-3990,,,,,,,0x03,
7248,-558,-250,-826,-9100,-5110,-5670,,,,,,,0x03,
7258,-561,-254,-842,-9030,-6230,-7840,,,,,,,0x03,
7267,-554,-232,-848,-7980,-6860,-9030,,,,,,,0x03,
7277,-545,-227,-851,-8610,-6790,-9380,,,,,,,0x03,
7287,-541,-234,-851,-10010,-6370,-10150,,,,,,,0x03,
7296,-544,-220,-851,-9660,-6160,-11340,,,,,,,0x03,
7306,-542,-207,-842,-9030,-6230,-11690,,,,,,,0x03,
7316,-539,-196,-830,-9940,-6020,-11550,,,,,,,0x03,
7325,-540,-204,-826,-11340,-5740,-11620,,,,,,,0x03,
7335,-546,-219,-835,-11200,-5740,-12250,,,,,,,0x03,
7345,-544,-221,-835,-10080,-5740,-12530,,,,,,,0x03,
7354,-543,-224,-830,-9030,-5740,-12110,,,,,,,0x03,
7364,-540,-229,-828,-8260,-5670,-11690,,,,,,,0x03,
7374,-538,-242,-838,-6580,-5600,-11830,,,,,,,0x03,
7383,-535,-229,-839,-4830,-5460,-11690,,,,,,,0x03,
7393,-529,-209,-836,-3360,-5250,-10990,,,,,,,0x03,
7403,-522,-208,-848,-3570,-4690,-10010,,,,,,,0x03,
7412,-524,-213,-858,-4970,-3290,-9450,,,,,,,0x03,
7422,-530,-208,-859,-5740,-1680,-8960,,,,,,,0x03,
7431,-526,-201,-850,-5810,-280,-8260,,,,,,,0x03,
7441,-523,-200,-834,-6230,1050,-7070,,,,,,,0x03,
7451,-524,-190,-820,-6580,2310,-5880,,,,,,,0x03,
7460,-523,-197,-801,-6720,3080,-5110,,,,,,,0x03,
7470,-530,-227,-771,-8190,3850,-4130,,,,,,,0x03,
7480,-553,-253,-763,-8400,3430,-3990,,,,,,,0x03,
7489,-576,-264,-753,-6510,1540,-4200,,,,,,,0x03,
7499,-590,-264,-749,-4410,-560,-3780,,,,,,,0x03,
7509,-597,-257,-763,-3430,-2660,-3360,,,,,,,0x03,
7518,-599,-252,-784,-3010,-4130,-3290,,,,,,,0x03,
7528,-600,-251,-800,-3430,-4690,-3430,,,,,,,0x03,
7538,-607,-255,-808,-4200,-4970,-3710,,,,,,,0x03,
7547,-599,-259,-816,-5110,-5180,-4200,,,,,,,0x03,
7557,-585,-258,-825,-5320,-5460,-5040,,,,,,,0x03,
7567,-574,-245,-829,-4550,-5460,-5530,,,,,,,0x03,
7576,-566,-230,-824,-3640,-5180,-5530,,,,,,,0x03,
7586,-555,-226,-814,-3220,-4830,-4900,,,,,,,0x03,
7596,-543,-228,-806,-3220,-4900,-4550,,,,,,,0x03,
7605,-533,-223,-801,-2870,-5460,-4340,,,,,,,0x03,
7615,-522,-214,-808,-2660,-5670,-3710,,,,,,,0x03,
7624,-515,-203,-813,-3080,-5460,-3080,,,,,,,0x03,
7634,-519,-197,-805,-4410,-4620,-1750,,,,,,,0x03,
7644,-531,-211,-808,-5740,-4130,-1120,,,,,,,0x03,
7653,-541,-221,-807,-6020,-3990,-1190,,,,,,,0x03,
7663,-547,-232,-813,-5110,-3850,-1120,,,,,,,0x03,
7673,-546,-242,-824,-3570,-3920,-1190,,,,,,,0x03,
7682,-548,-241,-827,-1260,-3710,-1120,,,,,,,0x03,
7692,-551,-244,-827,840,-3850,-1190,,,,,,,0x03,
7702,-552,-252,-831,1540,-4060,-1610,,,,,,,0x03,
7711,-554,-234,-828,2240,-4060,-2380,,,,,,,0x03,
7721,-570,-205,-817,2310,-4200,-2450,,,,,,,0x03,
7731,-592,-191,-805,910,-4690,-2030,,,,,,,0x03,
7740,-600,-186,-795,-1750,-5180,-1470,,,,,,,0x03,
7750,-598,-211,-796,-4340,-5460,-1540,,,,,,,0x03,
7760,-591,-267,-797,-6580,-5880,-2870,,,,,,,0x03,
7769,-586,-300,-811,-6790,-6370,-5600,,,,,,,0x03,
7779,-590,-316,-825,-4270,-7000,-8610,,,,,,,0x03,
7789,-604,-292,-816,-630,-7840,-11060,,,,,,,0x03,
7798,-623,-233,-799,1680,-8680,-11620,,,,,,,0x03,
7808,-618,-196,-804,2170,-9870,-11550,,,,,,,0x03,
7818,-602,-187,-809,700,-9870,-10920,,,,,,,0x03,
7827,-595,-194,-815,-1680,-9100,-9870,,,,,,,0x03,
7837,-584,-201,-818,-4200,-8680,-9240,,,,,,,0x03,
7846,-576,-210,-814,-6300,-7770,-8960,,,,,,,0x03,
7856,-578,-232,-814,-7840,-6720,-8540,,,,,,,0x03,
7866,-585,-251,-807,-6790,-6090,-8610,,,,,,,0x03,
7875,-583,-234,-788,-3290,-5950,-8890,,,,,,,0x03,
7885,-578,-200,-774,-420,-6650,-8890,,,,,,,0x03,
7895,-569,-157,-764,-350,-6860,-8400,,,,,,,0x03,
7904,-570,-146,-761,-2380,-6090,-7280,,,,,,,0x03,
7914,-564,-169,-779,-3360,-5390,-6300,,,,,,,0x03,
7924,-560,-181,-787,-2520,-4690,-5320,,,,,,,0x03,
7933,-556,-178,-786,-560,-4410,-3570,,,,,,,0x03,
7943,-549,-176,-787,630,-4200,-1610,,,,,,,0x03,
7953,-547,-191,-799,840,-3080,-140,,,,,,,0x03,
7962,-544,-211,-812,2590,-2240,490,,,,,,,0x03,
7972,-535,-210,-812,6230,-1330,1750,,,,,,,0x03,
7982,-527,-200,-806,9800,-490,3640,,,,,,,0x03,
7991,-527,-184,-800,11970,350,5880,,,,,,,0x03,
8001,-527,-162,-802,13090,980,7420,,,,,,,0x03,
8011,-521,-123,-804,12950,1960,8960,,,,,,,0x03,
8020,-504,-96,-795,10290,3640,11480,,,,,,,0x03,
8030,-496,-103,-798,5670,5880,14490,,,,,,,0x03,
8039,-506,-113,-808,2240,7560,16590,,,,,,,0x03,
8049,-528,-119,-795,-210,9170,18620,,,,,,,0x03,
8059,-539,-145,-783,-2520,9870,20090,,,,,,,0x03,
8068,-546,-172,-785,-3430,10080,20790,,,,,,,0x03,
8078,-567,-168,-783,-1470,9800,21350,,,,,,,0x03,
8088,-601,-134,-762,1470,8400,22610,,,,,,,0x03,
8097,-625,-129,-734,1610,6580,24780,,,,,,,0x03,
8107,-610,-216,-723,-1960,4480,24990,,,,,,,0x03,
8117,-541,-338,-787,-4200,1610,20370,,,,,,,0x03,
8126,-462,-399,-885,560,0,12880,,,,,,,0x03,
8136,-446,-412,-926,7630,1260,7980,,,,,,,0x03,
8146,-496,-373,-935,12950,2450,5040,,,,,,,0x03,
8155,-537,-236,-930,17360,2800,2730,,,,,,,0x03,
8165,-558,-83,-889,18200,3640,3640,,,,,,,0x03,
8175,-563,7,-840,10570,5250,7140,,,,,,,0x03,
8184,-575,23,-816,-2380,7140,10220,,,,,,,0x03,
8194,-578,-20,-821,-14000,8470,11130,,,,,,,0x03,
8204,-580,-107,-830,-21980,8750,10780,,,,,,,0x03,
8213,-585,-196,-844,-25410,8190,10500,,,,,,,0x03,
8223,-581,-261,-869,-22960,6440,9310,,,,,,,0x03,
8233,-579,-295,-877,-15540,4200,7280,,,,,,,0x03,
8242,-590,-281,-865,-6790,2100,5180,,,,,,,0x03,
8252,-596,-245,-852,70,630,3290,,,,,,,0x03,
8261,-594,-215,-831,3710,-210,910,,,,,,,0x03,
8271,-584,-181,-809,3640,-350,-1120,,,,,,,0x03,
8281,-569,-168,-789,1190,-700,-2870,,,,,,,0x03,
8290,-540,-180,-776,-2380,-1190,-4480,,,,,,,0x03,
8300,-524,-192,-776,-4900,-1960,-6090,,,,,,,0x03,
8310,-518,-177,-791,-5460,-3220,-7280,,,,,,,0x03,
8319,-521,-162,-800,-6860,-3710,-7490,,,,,,,0x03,
8329,-526,-165,-803,-9800,-3220,-7770,,,,,,,0x03,
8339,-543,-196,-798,-12110,-2660,-8750,,,,,,,0x03,
8348,-567,-242,-802,-11830,-2590,-10290,,,,,,,0x03,
8358,-583,-270,-805,-7980,-3570,-11970,,,,,,,0x03,
8368,-589,-279,-798,-3150,-4760,-12950,,,,,,,0x03,
8377,-591,-272,-808,770,-6300,-14210,,,,,,,0x03,
8387,-585,-231,-830,3080,-7630,-15610,,,,,,,0x03,
8397,-581,-195,-842,2800,-7420,-16030,,,,,,,0x03,
8406,-579,-170,-845,140,-6230,-15750,,,,,,,0x03,
8416,-577,-165,-840,-3640,-4900,-14980,,,,,,,0x03,
8426,-578,-174,-831,-7210,-3710,-14140,,,,,,,0x03,
8435,-579,-179,-825,-9520,-3290,-13300,,,,,,,0x03,
8445,-576,-184,-817,-10640,-3290,-12250,,,,,,,0x03,
8455,-571,-188,-810,-11060,-3360,-11060,,,,,,,0x03,
8464,-563,-178,-804,-11060,-3710,-9940,,,,,,,0x03,
8474,-554,-171,-798,-10990,-3780,-8610,,,,,,,0x03,
8483,-551,-171,-788,-10850,-3500,-6930,,,,,,,0x03,
8493,-558,-181,-780,-9940,-3290,-5320,,,,,,,0x03,
8503,-554,-205,-776,-8330,-3360,-3990,,,,,,,0x03,
8512,-547,-230,-787,-5670,-3710,-3220,,,,,,,0x03,
8522,-540,-233,-807,-1050,-4270,-2870,,,,,,,0x03,
8532,-537,-212,-822,3640,-4340,-2030,,,,,,,0x03,
8541,-539,-189,-829,5530,-3850,-770,,,,,,,0x03,
8551,-536,-178,-829,4830,-2660,560,,,,,,,0x03,
8561,-533,-181,-829,3150,-1330,770,,,,,,,0x03,
8570,-534,-179,-832,1470,-70,490,,,,,,,0x03,
8580,-534,-171,-833,280,1470,770,,,,,,,0x03,
8590,-541,-161,-822,-770,2800,1610,,,,,,,0x03,
8599,-552,-176,-812,-2450,3430,2590,,,,,,,0x03,
8609,-566,-203,-813,-3430,3500,2590,,,,,,,0x03,
8619,-577,-210,-816,-2520,2870,1890,,,,,,,0x03,
8628,-583,-196,-814,-420,2170,1610,,,,,,,0x03,
8638,-586,-193,-816,1050,1750,1750,,,,,,,0x03,
8648,-584,-202,-820,980,1610,1820,,,,,,,0x03,
8657,-589,-215,-821,840,1610,1050,,,,,,,0x03,
8667,-586,-219,-829,1680,1190,0,,,,,,,0x03,
8676,-576,-215,-824,2380,980,-630,,,,,,,0x03,
8686,-573,-201,-816,2310,770,-490,,,,,,,0x03,
8696,-569,-188,-810,1540,350,-490,,,,,,,0x03,
8705,-567,-176,-810,700,140,-560,,,,,,,0x03,
8715,-567,-159,-800,-490,210,-350,,,,,,,0x03,
8725,-570,-151,-792,-2310,210,210,,,,,,,0x03,
8734,-564,-158,-796,-4200,-70,490,,,,,,,0x03,
8744,-557,-176,-802,-5250,-70,700,,,,,,,0x03,
8754,-552,-200,-802,-5390,70,980,,,,,,,0x03,
8763,-544,-222,-810,-3780,-420,700,,,,,,,0x03,
8773,-534,-231,-820,-840,-1050,0,,,,,,,0x03,
8783,-535,-225,-823,1890,-1120,-350,,,,,,,0x03,
8792,-538,-223,-821,3500,-980,-350,,,,,,,0x03,
8802,-539,-217,-827,4760,-840,-700,,,,,,,0x03,
8812,-541,-207,-834,6230,-490,-910,,,,,,,0x03,
8821,-553,-190,-830,6510,70,-840,,,,,,,0x03,
8831,-565,-176,-826,5040,350,-700,,,,,,,0x03,
8841,-576,-174,-822,2590,350,-910,,,,,,,0x03,
8850,-585,-179,-813,-280,350,-1190,,,,,,,0x03,
8860,-589,-196,-807,-2870,0,-1540,,,,,,,0x03,
8870,-587,-217,-803,-4410,-490,-2170,,,,,,,0x03,
8879,-589,-234,-802,-4480,-1260,-2940,,,,,,,0x03,
8889,-594,-235,-810,-3360,-2520,-4410,,,,,,,0x03,
8898,-594,-223,-812,-1750,-3570,-5390,,,,,,,0x03,
8908,-590,-223,-811,-490,-4130,-5810,,,,,,,0x03,
8918,-584,-216,-815,840,-4690,-6510,,,,,,,0x03,
8927,-573,-183,-808,2380,-5250,-6930,,,,,,,0x03,
8937,-569,-152,-800,2240,-5600,-6650,,,,,,,0x03,
8947,-558,-130,-803,210,-5810,-6370,,,,,,,0x03,
8956,-548,-126,-806,-2660,-5180,-5740,,,,,,,0x03,
8966,-541,-127,-817,-4900,-4480,-4900,,,,,,,0x03,
8976,-527,-133,-824,-6230,-3710,-3850,,,,,,,0x03,
8985,-519,-152,-823,-7070,-2520,-2520,,,,,,,0x03,
8995,-520,-185,-820,-7070,-1330,-1400,,,,,,,0x03,
9005,-524,-211,-822,-5320,-840,-1260,,,,,,,0x03,
9014,-531,-212,-817,-1680,-630,-1120,,,,,,,0x03,
9024,-539,-200,-812,2100,-630,-420,,,,,,,0x03,
9034,-541,-189,-810,4200,-560,420,,,,,,,0x03,
9043,-542,-186,-807,4620,-70,1190,,,,,,,0x03,
9053,-549,-187,-811,4410,210,1260,,,,,,,0x03,
9063,-555,-181,-821,3990,350,1330,,,,,,,0x03,
9072,-558,-174,-831,3220,770,2030,,,,,,,0x03,
9082,-558,-173,-841,1820,1470,2800,,,,,,,0x03,
9091,-558,-186,-840,-140,2450,3290,,,,,,,0x03,
9101,-566,-195,-830,-1750,3080,3500,,,,,,,0x03,
9111,-582,-191,-818,-1680,2870,3710,,,,,,,0x03,
9120,-588,-171,-809,-980,1960,4410,,,,,,,0x03,
9130,-583,-158,-805,-490,1120,5810,,,,,,,0x03,
9140,-578,-176,-799,-910,700,6440,,,,,,,0x03,
9149,-562,-221,-811,-1750,70,5320,,,,,,,0x03,
9159,-543,-254,-831,-1330,-350,2940,,,,,,,0x03,
9169,-539,-247,-840,1190,-840,490,,,,,,,0x03,
9178,-547,-198,-837,3710,-1260,-420,,,,,,,0x03,
9188,-551,-152,-828,3220,-1120,-140,,,,,,,0x03,
9198,-556,-148,-812,350,-350,140,,,,,,,0x03,
9207,-565,-173,-805,-2240,0,-630,,,,,,,0x03,
9217,-573,-193,-808,-2940,-280,-1820,,,,,,,0x03,
9227,-574,-199,-815,-2170,-1050,-2590,,,,,,,0x03,
9236,-571,-197,-814,-1400,-1820,-3150,,,,,,,0x03,
9246,-568,-195,-813,-1190,-2450,-3990,,,,,,,0x03,
9256,-564,-191,-818,-1050,-3010,-5320,,,,,,,0x03,
9265,-561,-182,-825,-910,-3290,-6580,,,,,,,0x03,
9275,-559,-167,-822,-1470,-3220,-7280,,,,,,,0x03,
9285,-561,-162,-820,-2870,-2870,-7280,,,,,,,0x03,
9294,-560,-176,-817,-4410,-2310,-7210,,,,,,,0x03,
9304,-557,-182,-816,-4620,-2310,-7490,,,,,,,0x03,
9313,-547,-178,-820,-3430,-2520,-7350,,,,,,,0x03,
9323,-541,-172,-819,-2800,-2520,-6300,,,,,,,0x03,
9333,-540,-175,-818,-3080,-2240,-5180,,,,,,,0x03,
9342,-541,-185,-820,-3010,-1820,-4550,,,,,,,0x03,
9352,-540,-195,-822,-2450,-1470,-4340,,,,,,,0x03,
9362,-542,-201,-822,-1680,-1120,-3920,,,,,,,0x03,
9371,-546,-200,-821,-770,-770,-3220,,,,,,,0x03,
9381,-550,-199,-821,70,-490,-2800,,,,,,,0x03,
9391,-555,-203,-821,420,-420,-2450,,,,,,,0x03,
9400,-559,-202,-820,490,-280,-1890,,,,,,,0x03,
9410,-564,-193,-822,770,-280,-1260,,,,,,,0x03,
9420,-568,-191,-822,490,-210,-700,,,,,,,0x03,
9429,-568,-193,-823,-280,70,-350,,,,,,,0x03,
9439,-572,-195,-821,-1470,490,-70,,,,,,,0x03,
9449,-575,-205,-809,-1680,630,70,,,,,,,0x03,
9458,-578,-220,-800,-1610,140,-140,,,,,,,0x03,
9468,-573,-213,-803,-140,-770,-700,,,,,,,0x03,
9478,-564,-203,-805,1610,-1400,-630,,,,,,,0x03,
9487,-557,-202,-810,2100,-1820,-560,,,,,,,0x03,
9497,-551,-202,-815,1960,-1890,-560,,,,,,,0x03,
9506,-548,-203,-817,1890,-1750,-770,,,,,,,0x03,
9516,-544,-201,-819,1610,-1610,-980,,,,,,,0x03,
9526,-546,-200,-815,1540,-1260,-1050,,,,,,,0x03,
9535,-554,-201,-812,1960,-980,-980,,,,,,,0x03,
9545,-557,-197,-813,2730,-980,-910,,,,,,,0x03,
9555,-554,-186,-817,3290,-1050,-630,,,,,,,0x03,
9564,-556,-181,-818,2870,-910,-420,,,,,,,0x03,
9574,-560,-184,-821,1890,-420,-280,,,,,,,0x03,
9584,-561,-186,-819,1120,0,-280,,,,,,,0x03,
9593,-560,-191,-814,700,210,-210,,,,,,,0x03,
9603,-559,-198,-808,350,420,-70,,,,,,,0x03,
9613,-561,-202,-807,700,210,-70,,,,,,,0x03,
9622,-558,-195,-811,1610,-140,70,,,,,,,0x03,
9632,-552,-192,-815,2520,-350,420,,,,,,,0x03,
9642,-548,-198,-821,2800,-350,910,,,,,,,0x03,
9651,-547,-205,-828,3360,-210,1120,,,,,,,0x03,
9661,-550,-210,-832,4410,0,1400,,,,,,,0x03,
9671,-554,-216,-832,5180,70,1820,,,,,,,0x03,
9680,-556,-223,-831,6020,70,2100,,,,,,,0x03,
9690,-557,-229,-830,6650,-140,2240,,,,,,,0x03,
9700,-553,-218,-837,7070,0,2310,,,,,,,0x03,
9709,-555,-200,-825,6650,210,2520,,,,,,,0x03,
9719,-557,-191,-815,5110,350,2940,,,,,,,0x03,
9728,-551,-197,-808,3010,770,2870,,,,,,,0x03,
9738,-555,-202,-801,1260,1190,2380,,,,,,,0x03,
9748,-560,-211,-800,980,910,1610,,,,,,,0x03,
9757,-558,-212,-799,1400,490,980,,,,,,,0x03,
9767,-561,-211,-800,2170,70,770,,,,,,,0x03,
9777,-569,-215,-808,3150,-560,280,,,,,,,0x03,
9786,-568,-201,-817,4620,-1330,-350,,,,,,,0x03,
9796,-560,-171,-822,5460,-1680,-490,,,,,,,0x03,
9806,-547,-157,-824,4620,-1400,-630,,,,,,,0x03,
9815,-541,-166,-822,1890,-490,-910,,,,,,,0x03,
9825,-542,-166,-823,-560,420,-1680,,,,,,,0x03,
9835,-540,-163,-817,-1610,980,-2240,,,,,,,0x03,
9844,-542,-162,-810,-2380,1330,-2240,,,,,,,0x03,
9854,-544,-173,-807,-2870,1540,-2030,,,,,,,0x03,
9864,-553,-184,-807,-2520,1540,-2380,,,,,,,0x03,
9873,-559,-182,-812,-1330,1120,-3010,,,,,,,0x03,
9883,-568,-184,-813,-630,840,-3080,,,,,,,0x03,
9893,-575,-191,-817,-560,560,-3010,,,,,,,0x03,
9902,-579,-179,-818,-350,140,-3290,,,,,,,0x03,
9912,-582,-163,-818,-490,-140,-3710,,,,,,,0x03,
9921,-589,-160,-818,-2450,-210,-4200,,,,,,,0x03,
9931,-592,-163,-815,-5530,-140,-5040,,,,,,,0x03,
9941,-592,-178,-803,-8470,-350,-5950,,,,,,,0x03,
9950,-599,-204,-794,-10710,-910,-7140,,,,,,,0x03,
9960,-597,-223,-807,-11270,-2660,-8680,,,,,,,0x03,
9970,-580,-215,-819,-10080,-4340,-9590,,,,,,,0x03,
9979,-556,-222,-826,-8190,-5110,-9450,,,,,,,0x03,
9989,-541,-234,-832,-7910,-5320,-9240,,,,,,,0x03,
9999,-535,-245,-830,-7700,-5320,-9380,,,,,,,0x03,
10008,-538,-256,-819,-7070,-5530,-9730,,,,,,,0x03,
10018,-535,-247,-822,-5530,-6230,-10010,,,,,,,0x03,
10028,-523,-230,-823,-3570,-6230,-9450,,,,,,,0x03,
10037,-517,-214,-820,-2800,-5530,-8330,,,,,,,0x03,
10047,-514,-207,-822,-3150,-4760,-7630,,,,,,,0x03,
10057,-519,-211,-821,-4200,-4060,-7140,,,,,,,0x03,
10066,-533,-214,-816,-4900,-3640,-6860,,,,,,,0x03,
10076,-542,-221,-816,-4550,-3430,-6370,,,,,,,0x03,
10086,-538,-230,-812,-3780,-3430,-5740,,,,,,,0x03,
10095,-540,-229,-812,-2590,-3780,-5180,,,,,,,0x03,
10105,-543,-221,-822,-1050,-4270,-4760,,,,,,,0x03,
10115,-545,-218,-830,-140,-4270,-3920,,,,,,,0x03,
10124,-547,-213,-832,490,-4060,-3150,,,,,,,0x03,
10134,-550,-200,-828,560,-3500,-2450,,,,,,,0x03,
10143,-552,-196,-819,-280,-3150,-2240,,,,,,,0x03,
10153,-555,-197,-810,-2310,-2730,-2450,,,,,,,0x03,
10163,-555,-219,-805,-4340,-2100,-3080,,,,,,,0x03,
10172,-562,-251,-807,-4620,-1890,-4130,,,,,,,0x03,
10182,-565,-259,-815,-2450,-2380,-4900,,,,,,,0x03,
10192,-566,-248,-818,350,-2870,-5040,,,,,,,0x03,
10201,-565,-235,-812,1820,-3220,-4760,,,,,,,0x03,
10211,-564,-229,-807,1890,-3150,-4690,,,,,,,0x03,
10221,-566,-213,-811,2170,-2870,-5040,,,,,,,0x03,
10230,-579,-203,-795,2730,-2590,-5040,,,,,,,0x03,
10240,-588,-205,-780,1190,-3080,-4620,,,,,,,0x03,
10250,-577,-213,-780,-630,-3430,-5180,,,,,,,0x03,
10259,-589,-213,-758,-2380,-3570,-6020,,,,,,,0x03,
10269,-608,-190,-746,-2380,-4550,-6440,,,,,,,0x03,
10279,-613,-184,-749,-1190,-6230,-6090,,,,,,,0x03,
10288,-594,-189,-753,-2800,-7490,-5040,,,,,,,0x03,
10298,-579,-201,-772,-5180,-8050,-4620,,,,,,,0x03,
10308,-579,-221,-790,-5880,-7910,-4480,,,,,,,0x03,
10317,-580,-239,-811,-6090,-8120,-4760,,,,,,,0x03,
10327,-574,-237,-826,-5880,-8120,-5180,,,,,,,0x03,
10336,-576,-234,-835,-4760,-7700,-5180,,,,,,,0x03,
10346,-573,-219,-839,-3290,-7420,-5180,,,,,,,0x03,
10356,-561,-205,-837,-1960,-6930,-4830,,,,,,,0x03,
10365,-554,-208,-837,-1470,-5810,-4060,,,,,,,0x03,
10375,-548,-215,-842,-910,-4480,-3290,,,,,,,0x03,
10385,-545,-214,-841,-140,-3360,-2520,,,,,,,0x03,
10394,-538,-192,-831,210,-2660,-1540,,,,,,,0x03,
10404,-534,-180,-832,0,-1610,-210,,,,,,,0x03,
10414,-536,-170,-827,-280,-280,560,,,,,,,0x03,
10423,-542,-157,-802,-840,1190,1890,,,,,,,0x03,
10433,-549,-171,-783,-1540,1890,2800,,,,,,,0x03,
10443,-557,-190,-771,-1540,1890,3150,,,,,,,0x03,
10452,-567,-212,-781,280,1330,3220,,,,,,,0x03,
10462,-569,-229,-802,3150,140,3150,,,,,,,0x03,
10472,-564,-225,-810,4060,-490,3080,,,,,,,0x03,
10481,-568,-217,-812,3500,-700,2450,,,,,,,0x03,
10491,-575,-207,-808,2450,-840,1470,,,,,,,0x03,
10501,-581,-195,-807,1750,-630,560,,,,,,,0x03,
10510,-577,-187,-798,1190,-560,140,,,,,,,0x03,
10520,-579,-171,-786,-140,-420,70,,,,,,,0x03,
10530,-588,-175,-779,-2520,-910,-210,,,,,,,0x03,
10539,-594,-191,-770,-4900,-1610,-1190,,,,,,,0x03,
10549,-599,-208,-775,-5810,-2660,-2520,,,,,,,0x03,
10558,-603,-226,-797,-4760,-3920,-3640,,,,,,,0x03,
10568,-587,-223,-822,-2870,-4760,-4550,,,,,,,0x03,
10578,-576,-214,-835,-1330,-4970,-5040,,,,,,,0x03,
10587,-574,-199,-830,-1190,-4830,-5600,,,,,,,0x03,
10597,-572,-197,-820,-2520,-4690,-6370,,,,,,,0x03,
10607,-571,-200,-815,-3990,-4690,-7420,,,,,,,0x03,
10616,-573,-194,-813,-4900,-4480,-8330,,,,,,,0x03,
10626,-572,-191,-814,-6090,-4200,-8750,,,,,,,0x03,
10636,-565,-207,-824,-7140,-3710,-9450,,,,,,,0x03,
10645,-556,-215,-829,-6790,-3150,-10430,,,,,,,0x03,
10655,-560,-208,-822,-5880,-3080,-10990,,,,,,,0x03,
10665,-562,-202,-813,-5880,-3080,-10990,,,,,,,0x03,
10674,-562,-204,-807,-5320,-3360,-11200,,,,,,,0x03,
10684,-554,-212,-815,-4340,-3360,-11410,,,,,,,0x03,
10694,-554,-216,-808,-3500,-2590,-11200,,,,,,,0x03,
10703,-558,-216,-809,-2380,-2380,-10570,,,,,,,0x03,
10713,-555,-208,-797,-2030,-2940,-9800,,,,,,,0x03,
10723,-558,-200,-793,-1820,-3080,-8610,,,,,,,0x03,
10732,-558,-190,-793,-1890,-3150,-7350,,,,,,,0x03,
10742,-556,-179,-787,-3080,-2730,-5810,,,,,,,0x03,
10752,-554,-191,-799,-4130,-2100,-4830,,,,,,,0x03,
10761,-551,-199,-809,-5180,-1260,-4340,,,,,,,0x03,
10771,-555,-210,-805,-5390,-630,-3850,,,,,,,0x03,
10780,-566,-223,-806,-4410,-490,-3640,,,,,,,0x03,
10790,-577,-232,-806,-1890,-770,-3570,,,,,,,0x03,
10800,-583,-234,-807,1610,-1400,-3010,,,,,,,0x03,
10809,-584,-229,-827,5110,-2100,-2870,,,,,,,0x03,
10819,-587,-195,-823,6930,-2310,-2590,,,,,,,0x03,
10829,-593,-176,-807,5600,-2240,-1610,,,,,,,0x03,
10838,-584,-185,-812,2520,-2450,-1890,,,,,,,0x03,
10848,-573,-197,-805,-280,-2240,-2590,,,,,,,0x03,
10858,-568,-207,-807,-1820,-2030,-2870,,,,,,,0x03,
10867,-562,-212,-815,-1820,-2310,-3290,,,,,,,0x03,
10877,-558,-202,-819,-1190,-2380,-3080,,,,,,,0x03,
10887,-566,-203,-830,-350,-2100,-2660,,,,,,,0x03,
10896,-569,-197,-824,420,-1820,-2100,,,,,,,0x03,
10906,-568,-200,-824,1470,-1680,-1470,,,,,,,0x03,
10916,-567,-196,-815,2590,-1750,-1050,,,,,,,0x03,
10925,-569,-190,-798,2240,-1680,-350,,,,,,,0x03,
10935,-567,-197,-790,700,-1750,-420,,,,,,,0x03,
10945,-564,-211,-787,-700,-1750,-1190,,,,,,,0x03,
10954,-564,-228,-792,-1540,-1960,-1820,,,,,,,0x03,
10964,-558,-242,-804,-1540,-2240,-2730,,,,,,,0x03,
10973,-559,-238,-805,-770,-2310,-3360,,,,,,,0x03,
10983,-566,-231,-797,-490,-2380,-3710,,,,,,,0x03,
10993,-570,-224,-797,-280,-2730,-4200,,,,,,,0x03,
11002,-569,-215,-796,70,-2940,-4550,,,,,,,0x03,
11012,-568,-205,-796,-140,-2800,-4760,,,,,,,0x03,
11022,-578,-210,-795,-1050,-2660,-4900,,,,,,,0x03,
11031,-589,-235,-792,-1540,-2660,-5390,,,,,,,0x03,
11041,-591,-250,-808,-280,-3290,-6300,,,,,,,0x03,
11051,-579,-248,-819,2170,-3990,-6860,,,,,,,0x03,
11060,-576,-232,-818,4060,-3990,-6720,,,,,,,0x03,
11070,-574,-216,-810,3990,-4060,-6300,,,,,,,0x03,
11080,-575,-204,-803,2940,-3920,-6580,,,,,,,0x03,
11089,-572,-193,-797,1330,-3710,-6580,,,,,,,0x03,
11099,-567,-191,-795,-490,-3150,-5880,,,,,,,0x03,
11109,-560,-206,-806,-1540,-2450,-5180,,,,,,,0x03,
11118,-559,-210,-815,-1890,-1820,-4620,,,,,,,0x03,
11128,-564,-229,-818,-1540,-1260,-4200,,,,,,,0x03,
11138,-572,-248,-827,-490,-700,-3990,,,,,,,0x03,
11147,-577,-246,-826,1540,-490,-3500,,,,,,,0x03,
11157,-578,-234,-813,3920,-490,-3010,,,,,,,0x03,
11167,-580,-221,-803,4830,-490,-2730,,,,,,,0x03,
11176,-579,-215,-794,3640,-280,-2730,,,,,,,0x03,
11186,-578,-225,-786,1400,-70,-3360,,,,,,,0x03,
11195,-580,-224,-783,-1330,0,-3920,,,,,,,0x03,
11205,-582,-228,-774,-3360,-140,-3990,,,,,,,0x03,
11215,-592,-242,-762,-5390,-350,-3780,,,,,,,0x03,
11224,-587,-254,-764,-6510,-980,-3990,,,,,,,0x03,
11234,-572,-263,-772,-5110,-1400,-4060,,,,,,,0x03,
11244,-563,-260,-780,-2030,-1820,-3570,,,,,,,0x03,
11253,-553,-246,-792,1190,-2100,-2660,,,,,,,0x03,
11263,-556,-226,-799,4340,-2240,-2380,,,,,,,0x03,
11273,-569,-208,-790,5670,-2100,-2030,,,,,,,0x03,
11282,-579,-208,-774,4760,-2170,-1960,,,,,,,0x03,
11292,-582,-213,-775,3500,-2660,-2030,,,,,,,0x03,
11302,-586,-211,-771,1820,-3290,-1960,,,,,,,0x03,
11311,-584,-211,-778,-1260,-3360,-1540,,,,,,,0x03,
11321,-570,-229,-794,-4130,-3010,-1470,,,,,,,0x03,
11331,-563,-249,-805,-5460,-2380,-1540,,,,,,,0x03,
11340,-567,-260,-806,-4900,-2100,-1470,,,,,,,0x03,
11350,-573,-256,-809,-3150,-2100,-1470,,,,,,,0x03,
11360,-565,-252,-815,-840,-2100,-1750,,,,,,,0x03,
11369,-568,-241,-804,1610,-1680,-1890,,,,,,,0x03,
11379,-580,-226,-787,3570,-1680,-1750,,,,,,,0x03,
11388,-581,-228,-787,4760,-2240,-1680,,,,,,,0x03,
11398,-569,-235,-788,4690,-2660,-1470,,,,,,,0x03,
11408,-562,-241,-799,3920,-2310,-1540,,,,,,,0x03,
11417,-563,-248,-803,2520,-1820,-1820,,,,,,,0x03,
11427,-568,-249,-804,630,-1330,-1820,,,,,,,0x03,
11437,-568,-258,-803,-560,-910,-2170,,,,,,,0x03,
11446,-577,-258,-789,-1400,-280,-2520,,,,,,,0x03,
11456,-588,-254,-775,-1750,-350,-2590,,,,,,,0x03,
11466,-583,-249,-774,-1960,-1050,-2660,,,,,,,0x03,
11475,-576,-247,-781,-1680,-1610,-2730,,,,,,,0x03,
11485,-584,-245,-780,-1190,-1680,-2240,,,,,,,0x03,
11495,-590,-261,-789,-770,-1750,-1750,,,,,,,0x03,
11504,-582,-271,-805,70,-2030,-2100,,,,,,,0x03,
11514,-582,-260,-804,1260,-1890,-2310,,,,,,,0x03,
11524,-595,-251,-805,2100,-1750,-2170,,,,,,,0x03,
11533,-598,-245,-805,1680,-1540,-2660,,,,,,,0x03,
11543,-596,-250,-794,1190,-1120,-3430,,,,,,,0x03,
11553,-592,-246,-785,630,-1260,-4060,,,,,,,0x03,
11562,-586,-243,-770,-420,-1470,-4410,,,,,,,0x03,
11572,-587,-242,-746,-1330,-2030,-4270,,,,,,,0x03,
11582,-581,-241,-757,-1190,-3080,-3920,,,,,,,0x03,
11591,-558,-242,-774,-350,-3710,-3430,,,,,,,0x03,
11601,-552,-230,-787,70,-3570,-2100,,,,,,,0x03,
11610,-558,-228,-812,840,-3080,-1120,,,,,,,0x03,
11620,-567,-221,-829,2030,-2170,-210,,,,,,,0x03,
11630,-570,-221,-838,3850,-910,770,,,,,,,0x03,
11639,-574,-208,-829,5600,210,1540,,,,,,,0x03,
11649,-579,-186,-800,5950,700,2730,,,,,,,0x03,
11659,-581,-191,-774,4130,980,3710,,,,,,,0x03,
11668,-581,-198,-761,1680,980,3780,,,,,,,0x03,
11678,-576,-215,-750,-700,630,4270,,,,,,,0x03,
11688,-568,-237,-756,-2310,350,4970,,,,,,,0x03,
11697,-559,-264,-778,-2170,70,5530,,,,,,,0x03,
11707,-554,-277,-809,-140,0,5810,,,,,,,0x03,
11717,-554,-263,-826,3150,140,6230,,,,,,,0x03,
11726,-561,-246,-823,5600,770,6860,,,,,,,0x03,
11736,-558,-237,-819,6860,1400,7070,,,,,,,0x03,
11746,-558,-216,-814,7770,2100,7140,,,,,,,0x03,
11755,-559,-199,-819,8610,2730,7700,,,,,,,0x03,
11765,-560,-192,-810,8470,3150,8260,,,,,,,0x03,
11775,-577,-190,-788,6650,3570,9170,,,,,,,0x03,
11784,-578,-215,-782,4830,3150,9240,,,,,,,0x03,
11794,-569,-228,-782,3920,2520,8960,,,,,,,0x03,
11803,-564,-240,-783,3780,2240,9170,,,,,,,0x03,
11813,-565,-253,-788,3640,1890,8750,,,,,,,0x03,
11823,-567,-248,-784,3500,1680,7560,,,,,,,0x03,
11832,-575,-242,-786,3990,1540,6020,,,,,,,0x03,
11842,-579,-240,-790,4760,980,4480,,,,,,,0x03,
11852,-579,-232,-791,5880,630,3710,,,,,,,0x03,
11861,-576,-224,-798,6720,70,3430,,,,,,,0x03,
11871,-566,-218,-806,6930,-420,2520,,,,,,,0x03,
11881,-563,-210,-816,6230,-560,1820,,,,,,,0x03,
11890,-565,-208,-820,4690,-280,1330,,,,,,,0x03,
11900,-574,-212,-810,2940,140,840,,,,,,,0x03,
