#Format version: 1.0
time[ms],accX[mg],accY[mg],accZ[mg],gyroX[mdps],gyroY[mdps],gyroZ[mdps],magnX[mG],magnY[mG],magnZ[mG],press[hPa],temp[°C],hum[0,-261,-40,999,27510,1120,1890,,,,,,,0x03,
10,-269,-18,996,24850,2450,1260,,,,,,,0x03,
19,-278,1,985,21700,3710,1050,,,,,,,0x03,
29,-284,1,974,19600,4830,1190,,,,,,,0x03,
39,-291,15,962,19810,5810,1330,,,,,,,0x03,
48,-304,53,965,20650,6510,1960,,,,,,,0x03,
58,-320,91,971,18970,7000,2100,,,,,,,0x03,
67,-321,110,971,14140,7210,2170,,,,,,,0x03,
77,-327,103,961,7700,7490,2450,,,,,,,0x03,
87,-344,81,962,2380,7840,2660,,,,,,,0x03,
96,-355,56,961,-1540,8400,2590,,,,,,,0x03,
106,-348,37,950,-3430,8890,2590,,,,,,,0x03,
116,-355,44,950,-4550,9310,2450,,,,,,,0x03,
125,-360,43,951,-7000,9520,2450,,,,,,,0x03,
135,-360,39,947,-11340,9450,2100,,,,,,,0x03,
145,-361,39,944,-15260,9520,1680,,,,,,,0x03,
154,-365,24,938,-18200,9450,1750,,,,,,,0x03,
164,-379,10,936,-20720,9450,1680,,,,,,,0x03,
173,-380,-3,924,-21770,9380,1120,,,,,,,0x03,
183,-379,-3,915,-21840,8890,840,,,,,,,0x03,
193,-376,1,929,-22330,8610,910,,,,,,,0x03,
202,-369,0,919,-23380,7980,560,,,,,,,0x03,
212,-371,6,924,-25620,7070,280,,,,,,,0x03,
222,-370,-7,922,-28280,6510,210,,,,,,,0x03,
231,-372,-36,915,-29610,6160,70,,,,,,,0x03,
241,-381,-43,912,-29330,5530,-70,,,,,,,0x03,
250,-378,-48,916,-28560,4970,-280,,,,,,,0x03,
260,-371,-49,914,-28630,4130,-840,,,,,,,0x03,
270,-371,-44,909,-29610,3290,-1470,,,,,,,0x03,
279,-375,-69,909,-30870,2450,-1400,,,,,,,0x03,
289,-379,-111,908,-30800,2170,-1400,,,,,,,0x03,
299,-379,-122,905,-28210,1610,-1820,,,,,,,0x03,
308,-377,-122,910,-25200,1120,-1750,,,,,,,0x03,
318,-382,-132,908,-23240,910,-1750,,,,,,,0x03,
328,-394,-138,916,-21910,630,-2170,,,,,,,0x03,
337,-390,-141,914,-20370,420,-2520,,,,,,,0x03,
347,-389,-148,902,-18620,210,-2520,,,,,,,0x03,
356,-401,-140,897,-16730,-210,-2660,,,,,,,0x03,
366,-405,-147,895,-15470,-770,-2520,,,,,,,0x03,
376,-406,-143,899,-14910,-1190,-2800,,,,,,,0x03,
385,-398,-138,906,-13720,-1750,-3150,,,,,,,0x03,
395,-382,-148,907,-12320,-2240,-3150,,,,,,,0x03,
405,-382,-146,906,-10640,-2730,-2940,,,,,,,0x03,
414,-386,-138,906,-9030,-3360,-2730,,,,,,,0x03,
424,-390,-140,905,-8330,-3850,-2590,,,,,,,0x03,
434,-393,-140,903,-8750,-4480,-2800,,,,,,,0x03,
443,-395,-146,912,-8960,-4760,-2730,,,,,,,0x03,
453,-391,-158,911,-8400,-4900,-2870,,,,,,,0x03,
462,-388,-157,913,-6860,-4970,-2800,,,,,,,0x03,
472,-387,-142,924,-5460,-4830,-2520,,,,,,,0x03,
482,-378,-127,930,-5180,-4690,-2170,,,,,,,0x03,
491,-373,-133,933,-6160,-4340,-1610,,,,,,,0x03,
501,-373,-150,926,-6720,-3920,-1540,,,,,,,0x03,
511,-373,-145,930,-5950,-3500,-1820,,,,,,,0x03,
520,-361,-150,926,-5180,-3150,-1400,,,,,,,0x03,
530,-361,-161,921,-4410,-3010,-910,,,,,,,0x03,
539,-364,-161,923,-3640,-2870,-700,,,,,,,0x03,
549,-358,-162,926,-2730,-2800,-560,,,,,,,0x03,
559,-343,-172,920,-2310,-2870,-490,,,,,,,0x03,
568,-345,-182,921,-1190,-2870,-560,,,,,,,0x03,
578,-349,-182,914,1190,-3080,-980,,,,,,,0x03,
588,-356,-166,917,3220,-3220,-840,,,,,,,0x03,
597,-359,-156,920,4270,-3360,-630,,,,,,,0x03,
607,-358,-167,925,4690,-3290,-210,,,,,,,0x03,
617,-362,-170,925,6020,-3150,-210,,,,,,,0x03,
626,-354,-158,931,8190,-2940,-70,,,,,,,0x03,
636,-350,-147,932,9450,-2660,140,,,,,,,0x03,
645,-360,-133,935,9450,-2450,140,,,,,,,0x03,
655,-356,-127,934,8330,-2240,210,,,,,,,0x03,
665,-355,-131,938,7420,-1750,420,,,,,,,0x03,
674,-358,-130,940,7630,-1330,560,,,,,,,0x03,
684,-354,-130,942,8190,-840,980,,,,,,,0x03,
694,-358,-127,943,8750,0,1260,,,,,,,0x03,
703,-357,-118,941,9310,630,1190,,,,,,,0x03,
713,-361,-114,939,9170,1260,1400,,,,,,,0x03,
723,-367,-99,935,8540,1680,1330,,,,,,,0x03,
732,-368,-88,934,7280,1890,1330,,,,,,,0x03,
742,-366,-87,934,5110,2030,1400,,,,,,,0x03,
751,-361,-92,926,3290,2030,1330,,,,,,,0x03,
761,-362,-88,928,2590,1890,980,,,,,,,0x03,
771,-357,-77,927,2310,1330,630,,,,,,,0x03,
780,-361,-75,925,1190,1050,630,,,,,,,0x03,
790,-367,-80,926,-280,770,630,,,,,,,0x03,
800,-367,-88,923,-1470,280,630,,,,,,,0x03,
809,-372,-98,927,-2590,70,700,,,,,,,0x03,
819,-375,-112,924,-3220,-70,490,,,,,,,0x03,
829,-372,-122,926,-2590,-210,280,,,,,,,0x03,
838,-375,-128,924,-1820,-140,0,,,,,,,0x03,
848,-370,-123,923,-560,-140,-420,,,,,,,0x03,
857,-370,-112,927,210,-70,-350,,,,,,,0x03,
867,-370,-110,926,-140,-70,-280,,,,,,,0x03,
877,-371,-115,923,-1050,0,-70,,,,,,,0x03,
886,-376,-117,929,-1330,70,-140,,,,,,,0x03,
896,-370,-118,930,-1260,140,-70,,,,,,,0x03,
906,-364,-126,927,-1190,280,70,,,,,,,0x03,
915,-370,-129,924,-840,350,70,,,,,,,0x03,
925,-371,-135,922,-140,350,-70,,,,,,,0x03,
934,-368,-127,919,560,210,-280,,,,,,,0x03,
944,-365,-124,913,1120,-210,-140,,,,,,,0x03,
954,-365,-128,913,1330,-630,0,,,,,,,0x03,
963,-367,-128,914,1610,-1190,-210,,,,,,,0x03,
973,-365,-119,917,1820,-1820,-490,,,,,,,0x03,
983,-363,-111,921,1820,-2240,-700,,,,,,,0x03,
992,-363,-109,924,1400,-2660,-630,,,,,,,0x03,
1002,-367,-104,930,700,-2800,-700,,,,,,,0x03,
1012,-367,-104,930,560,-2800,-700,,,,,,,0x03,
1021,-365,-106,930,630,-2730,-560,,,,,,,0x03,
1031,-371,-106,932,630,-2590,-350,,,,,,,0x03,
1040,-375,-114,933,560,-2310,-350,,,,,,,0x03,
1050,-374,-115,933,630,-1960,-280,,,,,,,0x03,
1060,-365,-104,931,560,-1820,-490,,,,,,,0x03,
1069,-363,-107,932,-140,-1680,-280,,,,,,,0x03,
1079,-369,-119,927,-1330,-1540,-280,,,,,,,0x03,
1089,-372,-128,925,-1050,-1400,-140,,,,,,,0x03,
1098,-371,-131,925,560,-1260,-70,,,,,,,0x03,
1108,-363,-126,929,2030,-1050,0,,,,,,,0x03,
1118,-363,-118,927,2730,-1050,-70,,,,,,,0x03,
1127,-369,-115,924,2520,-1120,-70,,,,,,,0x03,
1137,-373,-116,926,1960,-1120,-70,,,,,,,0x03,
1146,-368,-123,927,1540,-1050,-210,,,,,,,0x03,
1156,-358,-130,923,1820,-980,-280,,,,,,,0x03,
1166,-364,-128,925,3290,-700,-210,,,,,,,0x03,
1175,-368,-123,931,4620,-630,-210,,,,,,,0x03,
1185,-365,-117,926,5180,-630,-210,,,,,,,0x03,
1195,-370,-105,928,5180,-560,-70,,,,,,,0x03,
1204,-368,-103,929,4550,-560,140,,,,,,,0x03,
1214,-362,-103,930,3570,-700,140,,,,,,,0x03,
1223,-356,-107,930,3010,-770,0,,,,,,,0x03,
1233,-356,-110,927,3360,-840,0,,,,,,,0x03,
1243,-360,-103,934,3640,-910,-70,,,,,,,0x03,
1252,-358,-95,932,3640,-910,-70,,,,,,,0x03,
1262,-361,-87,935,2800,-910,70,,,,,,,0x03,
1272,-366,-87,933,1470,-910,70,,,,,,,0x03,
1281,-365,-95,931,350,-840,350,,,,,,,0x03,
1291,-366,-104,930,70,-630,420,,,,,,,0x03,
1301,-362,-108,929,630,-490,350,,,,,,,0x03,
1310,-360,-104,929,1400,-560,280,,,,,,,0x03,
1320,-366,-95,927,1680,-700,70,,,,,,,0x03,
1329,-372,-94,933,1050,-700,70,,,,,,,0x03,
1339,-369,-95,930,-210,-630,70,,,,,,,0x03,
1349,-367,-98,926,-1260,-630,140,,,,,,,0x03,
1358,-369,-103,930,-1680,-630,350,,,,,,,0x03,
1368,-369,-109,933,-1680,-490,350,,,,,,,0x03,
1378,-366,-110,934,-1260,-280,350,,,,,,,0x03,
1387,-365,-110,934,-770,70,420,,,,,,,0x03,
1397,-360,-107,936,-560,280,560,,,,,,,0x03,
1407,-356,-104,932,-630,420,700,,,,,,,0x03,
1416,-359,-100,934,-1470,490,980,,,,,,,0x03,
1426,-358,-102,939,-2660,630,1120,,,,,,,0x03,
1435,-343,-115,931,-3010,560,1120,,,,,,,0x03,
1445,-340,-111,912,-2170,0,980,,,,,,,0x03,
1455,-358,-102,914,-1470,-560,840,,,,,,,0x03,
1464,-373,-103,916,-1680,-1120,140,,,,,,,0x03,
1474,-378,-105,921,-2240,-1400,-560,,,,,,,0x03,
1484,-372,-101,922,-1890,-1680,-1120,,,,,,,0x03,
1493,-364,-98,926,-560,-1680,-1050,,,,,,,0x03,
1503,-370,-89,932,210,-1680,-910,,,,,,,0x03,
1513,-377,-71,941,-210,-1540,-980,,,,,,,0x03,
1522,-370,-66,943,-1890,-1260,-840,,,,,,,0x03,
1532,-369,-68,941,-4060,-840,-420,,,,,,,0x03,
1541,-369,-77,934,-5600,-560,140,,,,,,,0x03,
1551,-374,-92,930,-6790,-350,560,,,,,,,0x03,
1561,-369,-105,928,-7280,-210,560,,,,,,,0x03,
1570,-362,-120,924,-7350,-210,490,,,,,,,0x03,
1580,-361,-137,923,-7280,-210,420,,,,,,,0x03,
1590,-360,-152,918,-6230,-420,280,,,,,,,0x03,
1599,-360,-162,918,-4200,-560,140,,,,,,,0x03,
1609,-359,-161,918,-1820,-700,-70,,,,,,,0x03,
1618,-359,-150,918,210,-980,-280,,,,,,,0x03,
1628,-361,-139,923,1400,-1260,-350,,,,,,,0x03,
1638,-360,-143,923,1890,-1330,-70,,,,,,,0x03,
1647,-362,-153,921,2520,-1330,140,,,,,,,0x03,
1657,-370,-151,919,4200,-1330,210,,,,,,,0x03,
1667,-374,-144,924,6370,-1260,280,,,,,,,0x03,
1676,-371,-133,930,7700,-910,210,,,,,,,0x03,
1686,-364,-128,935,8540,-490,210,,,,,,,0x03,
1696,-359,-129,935,9730,0,420,,,,,,,0x03,
1705,-365,-120,935,10990,420,700,,,,,,,0x03,
1715,-367,-107,932,11690,770,910,,,,,,,0x03,
1724,-367,-90,930,10990,770,1050,,,,,,,0x03,
1734,-367,-80,922,9310,560,910,,,,,,,0x03,
1744,-370,-92,919,7770,210,980,,,,,,,0x03,
1753,-377,-106,921,7420,0,840,,,,,,,0x03,
1763,-375,-98,927,8190,0,560,,,,,,,0x03,
1773,-369,-80,934,8960,0,350,,,,,,,0x03,
1782,-366,-61,937,8260,-70,280,,,,,,,0x03,
1792,-367,-55,936,6440,-70,490,,,,,,,0x03,
1802,-374,-60,936,4270,70,700,,,,,,,0x03,
1811,-377,-71,920,2730,-70,840,,,,,,,0x03,
1821,-382,-76,917,2310,-210,1190,,,,,,,0x03,
1830,-384,-83,918,2310,-490,1470,,,,,,,0x03,
1840,-375,-84,921,2240,-840,1330,,,,,,,0x03,
1850,-372,-83,925,2030,-980,980,,,,,,,0x03,
1859,-367,-83,927,1960,-1260,700,,,,,,,0x03,
1869,-362,-84,928,1960,-1610,280,,,,,,,0x03,
1879,-363,-83,928,1890,-1750,70,,,,,,,0x03,
1888,-368,-85,924,2240,-2030,-70,,,,,,,0x03,
1898,-370,-81,922,2240,-2170,70,,,,,,,0x03,
1907,-368,-77,924,1750,-2450,-70,,,,,,,0x03,
1917,-368,-73,929,910,-2590,-280,,,,,,,0x03,
1927,-365,-74,935,0,-2730,-350,,,,,,,0x03,
1936,-360,-74,936,-560,-2800,-560,,,,,,,0x03,
1946,-360,-73,934,-630,-2730,-560,,,,,,,0x03,
1956,-362,-70,933,-420,-2730,-700,,,,,,,0x03,
1965,-370,-60,928,-770,-2800,-770,,,,,,,0x03,
1975,-368,-52,930,-1890,-2940,-560,,,,,,,0x03,
1985,-365,-60,933,-3920,-3150,-280,,,,,,,0x03,
1994,-359,-71,937,-5810,-3150,-350,,,,,,,0x03,
2004,-352,-81,939,-6720,-3150,-630,,,,,,,0x03,
2013,-353,-85,939,-6580,-3080,-910,,,,,,,0x03,
2023,-357,-81,940,-6510,-2870,-1120,,,,,,,0x03,
2033,-360,-76,935,-7070,-2730,-1050,,,,,,,0x03,
2042,-364,-74,942,-7980,-2450,-840,,,,,,,0x03,
2052,-358,-84,938,-9100,-2170,-630,,,,,,,0x03,
2062,-358,-92,933,-9520,-1890,-630,,,,,,,0x03,
2071,-360,-95,936,-9310,-1750,-560,,,,,,,0x03,
2081,-357,-103,933,-9030,-1610,-560,,,,,,,0x03,
2091,-357,-107,931,-8960,-1470,-420,,,,,,,0x03,
2100,-359,-114,933,-8680,-1260,-350,,,,,,,0x03,
2110,-355,-119,930,-8260,-1260,-280,,,,,,,0x03,
2119,-357,-120,925,-8050,-1330,-350,,,,,,,0x03,
2129,-358,-125,927,-7840,-1400,-280,,,,,,,0x03,
2139,-357,-136,927,-7420,-1330,-350,,,,,,,0x03,
2148,-350,-144,925,-6090,-1400,-630,,,,,,,0x03,
2158,-348,-142,926,-3710,-1400,-840,,,,,,,0x03,
2168,-352,-135,931,-1750,-1400,-770,,,,,,,0x03,
2177,-353,-133,929,-490,-1330,-630,,,,,,,0x03,
2187,-360,-127,929,420,-1330,-350,,,,,,,0x03,
2196,-359,-124,929,770,-1190,-210,,,,,,,0x03,
2206,-358,-128,930,770,-1050,-210,,,,,,,0x03,
2216,-359,-129,933,1330,-910,-280,,,,,,,0x03,
2225,-354,-123,932,2380,-700,-210,,,,,,,0x03,
2235,-354,-121,932,3500,-560,-70,,,,,,,0x03,
2245,-360,-106,933,4060,-420,-70,,,,,,,0x03,
2254,-359,-94,934,3850,-280,280,,,,,,,0x03,
2264,-360,-96,932,2940,-140,560,,,,,,,0x03,
2274,-365,-101,935,1960,70,630,,,,,,,0x03,
2283,-362,-105,929,1680,210,700,,,,,,,0x03,
2293,-366,-106,930,1680,210,770,,,,,,,0x03,
2302,-366,-101,932,1610,280,910,,,,,,,0x03,
2312,-362,-108,932,1540,350,980,,,,,,,0x03,
2322,-363,-110,929,1540,280,910,,,,,,,0x03,
2331,-359,-114,927,1750,280,840,,,,,,,0x03,
2341,-358,-111,928,2380,210,700,,,,,,,0x03,
2351,-358,-111,926,2590,0,700,,,,,,,0x03,
2360,-358,-106,924,2520,-140,630,,,,,,,0x03,
2370,-358,-99,924,2520,-560,560,,,,,,,0x03,
2380,-363,-98,926,2100,-910,420,,,,,,,0x03,
2389,-363,-104,928,1890,-1050,210,,,,,,,0x03,
2399,-362,-108,927,2450,-1120,140,,,,,,,0x03,
2408,-365,-103,932,3570,-1050,70,,,,,,,0x03,
2418,-364,-95,933,4340,-980,210,,,,,,,0x03,
2428,-363,-85,934,4130,-910,280,,,,,,,0x03,
2437,-362,-82,934,2940,-910,210,,,,,,,0x03,
2447,-363,-82,931,1750,-910,140,,,,,,,0x03,
2457,-365,-90,930,1190,-910,210,,,,,,,0x03,
2466,-368,-97,927,1190,-980,140,,,,,,,0x03,
2476,-365,-91,929,1540,-980,70,,,,,,,0x03,
2486,-361,-82,930,1540,-1120,280,,,,,,,0x03,
2495,-359,-75,934,630,-1260,280,,,,,,,0x03,
2505,-357,-82,936,-1120,-1400,210,,,,,,,0x03,
2514,-356,-93,931,-2310,-1470,70,,,,,,,0x03,
2524,-357,-94,927,-1890,-1680,-420,,,,,,,0x03,
2534,-361,-93,929,-1190,-1750,-420,,,,,,,0x03,
2543,-359,-81,929,-700,-1960,-770,,,,,,,0x03,
2553,-360,-67,930,-1330,-2240,-770,,,,,,,0x03,
2563,-361,-66,931,-3010,-2520,-630,,,,,,,0x03,
2572,-362,-73,933,-4970,-2800,-700,,,,,,,0x03,
2582,-362,-84,934,-6230,-2870,-840,,,,,,,0x03,
2591,-361,-94,934,-6510,-2660,-980,,,,,,,0x03,
2601,-363,-90,937,-6160,-2520,-980,,,,,,,0x03,
2611,-356,-93,936,-6090,-2310,-770,,,,,,,0x03,
2620,-354,-96,936,-6720,-2170,-700,,,,,,,0x03,
2630,-358,-97,937,-7630,-2100,-700,,,,,,,0x03,
2640,-357,-101,937,-8400,-2030,-700,,,,,,,0x03,
2649,-352,-113,930,-8960,-1960,-770,,,,,,,0x03,
2659,-355,-125,928,-8820,-1890,-770,,,,,,,0x03,
2669,-358,-130,927,-7840,-1820,-980,,,,,,,0x03,
2678,-356,-130,926,-6510,-1820,-1050,,,,,,,0x03,
2688,-353,-122,927,-5390,-1960,-1050,,,,,,,0x03,
2697,-350,-120,928,-4830,-2100,-980,,,,,,,0x03,
2707,-348,-123,930,-5180,-2170,-770,,,,,,,0x03,
2717,-343,-130,930,-5180,-2240,-840,,,,,,,0x03,
2726,-346,-139,934,-4130,-2100,-770,,,,,,,0x03,
2736,-350,-146,932,-2520,-1820,-840,,,,,,,0x03,
2746,-355,-144,931,-770,-1540,-910,,,,,,,0x03,
2755,-361,-133,932,770,-1260,-910,,,,,,,0x03,
2765,-357,-119,937,1120,-980,-700,,,,,,,0x03,
2775,-347,-115,936,140,-840,-420,,,,,,,0x03,
2784,-346,-118,938,-910,-630,-350,,,,,,,0x03,
2794,-347,-129,932,-840,-560,-280,,,,,,,0x03,
2803,-351,-136,930,0,-420,-210,,,,,,,0x03,
2813,-355,-127,928,1610,-350,-280,,,,,,,0x03,
2823,-350,-116,930,2870,-350,-140,,,,,,,0x03,
2832,-350,-110,932,2800,-420,-70,,,,,,,0x03,
2842,-354,-112,930,2170,-490,0,,,,,,,0x03,
2852,-357,-118,930,1610,-630,70,,,,,,,0x03,
2861,-356,-122,932,1540,-630,70,,,,,,,0x03,
2871,-355,-121,935,1960,-490,0,,,,,,,0x03,
2880,-348,-120,939,2310,-350,-70,,,,,,,0x03,
2890,-346,-126,937,2800,-70,0,,,,,,,0x03,
2900,-351,-132,930,3850,140,70,,,,,,,0x03,
2909,-360,-134,925,5110,140,280,,,,,,,0x03,
2919,-366,-131,928,5950,280,420,,,,,,,0x03,
2929,-359,-121,927,6090,140,140,,,,,,,0x03,
2938,-354,-106,927,5600,-140,-140,,,,,,,0x03,
2948,-354,-103,930,4830,-490,-140,,,,,,,0x03,
2958,-355,-108,925,3990,-700,-70,,,,,,,0x03,
2967,-361,-113,927,4200,-840,0,,,,,,,0x03,
2977,-366,-111,932,5320,-770,210,,,,,,,0x03,
2986,-361,-113,935,6370,-490,350,,,,,,,0x03,
2996,-357,-109,937,7070,-210,140,,,,,,,0x03,
3006,-354,-96,936,7350,-140,-140,,,,,,,0x03,
3015,-351,-82,939,6790,-70,-70,,,,,,,0x03,
3025,-351,-77,936,5110,-70,0,,,,,,,0x03,
3035,-355,-85,935,3710,70,70,,,,,,,0x03,
3044,-358,-95,928,3360,-70,140,,,,,,,0x03,
3054,-358,-91,928,4200,-280,-140,,,,,,,0x03,
3064,-357,-79,930,4760,-420,-350,,,,,,,0x03,
3073,-354,-60,938,4060,-700,-490,,,,,,,0x03,
3083,-347,-54,941,1960,-980,-490,,,,,,,0x03,
3092,-345,-59,937,-420,-1190,-490,,,,,,,0x03,
3102,-355,-62,939,-2100,-1260,-630,,,,,,,0x03,
3112,-357,-70,934,-3360,-1400,-630,,,,,,,0x03,
3121,-362,-79,935,-4060,-1400,-630,,,,,,,0x03,
3131,-362,-82,936,-4340,-1260,-560,,,,,,,0x03,
3141,-354,-83,937,-4620,-1190,-490,,,,,,,0x03,
3150,-356,-87,935,-5390,-1190,-560,,,,,,,0x03,
3160,-360,-92,933,-6370,-1260,-560,,,,,,,0x03,
3170,-360,-97,931,-7350,-1330,-700,,,,,,,0x03,
3179,-359,-104,930,-8050,-1400,-840,,,,,,,0x03,
3189,-358,-114,927,-8190,-1470,-910,,,,,,,0x03,
3198,-359,-115,927,-7700,-1680,-1050,,,,,,,0x03,
3208,-355,-112,924,-7000,-1890,-1050,,,,,,,0x03,
3218,-353,-113,927,-6580,-2100,-840,,,,,,,0x03,
3227,-353,-118,931,-6650,-2240,-770,,,,,,,0x03,
3237,-350,-126,929,-6300,-2240,-910,,,,,,,0x03,
3247,-351,-124,931,-5460,-2170,-910,,,,,,,0x03,
3256,-354,-124,932,-4760,-2170,-910,,,,,,,0x03,
3266,-356,-123,933,-4480,-2100,-910,,,,,,,0x03,
3275,-357,-122,931,-4200,-1960,-980,,,,,,,0x03,
3285,-353,-126,932,-3710,-1960,-840,,,,,,,0x03,
3295,-351,-128,933,-3010,-1820,-700,,,,,,,0x03,
3304,-348,-123,936,-2310,-1750,-770,,,,,,,0x03,
3314,-348,-122,933,-1960,-1610,-700,,,,,,,0x03,
3324,-351,-119,931,-1820,-1610,-700,,,,,,,0x03,
3333,-356,-118,931,-1890,-1540,-630,,,,,,,0x03,
3343,-350,-119,932,-1890,-1680,-770,,,,,,,0x03,
3353,-344,-117,929,-1680,-1750,-770,,,,,,,0x03,
3362,-344,-116,930,-1400,-1890,-700,,,,,,,0x03,
3372,-352,-119,930,-1120,-1960,-770,,,,,,,0x03,
3381,-351,-118,930,-910,-2240,-770,,,,,,,0x03,
3391,-347,-120,930,-630,-2310,-700,,,,,,,0x03,
3401,-348,-123,929,-700,-2450,-770,,,,,,,0x03,
3410,-355,-127,929,-630,-2520,-770,,,,,,,0x03,
3420,-353,-131,931,-420,-2590,-700,,,,,,,0x03,
3430,-352,-133,932,0,-2450,-770,,,,,,,0x03,
3439,-348,-135,932,490,-2380,-840,,,,,,,0x03,
3449,-352,-132,931,1260,-2380,-700,,,,,,,0x03,
3459,-351,-128,934,1610,-2240,-630,,,,,,,0x03,
3468,-348,-123,938,1610,-2100,-560,,,,,,,0x03,
3478,-346,-119,936,1540,-1960,-490,,,,,,,0x03,
3487,-346,-120,937,1330,-1820,-280,,,,,,,0x03,
3497,-348,-116,936,1400,-1680,-140,,,,,,,0x03,
3507,-346,-111,941,1400,-1400,0,,,,,,,0x03,
3516,-342,-111,937,1190,-1190,0,,,,,,,0x03,
3526,-346,-115,935,1190,-1050,210,,,,,,,0x03,
3536,-350,-114,939,1470,-840,210,,,,,,,0x03,
3545,-346,-112,940,1610,-630,140,,,,,,,0x03,
3555,-341,-113,941,1540,-490,140,,,,,,,0x03,
3564,-339,-118,940,1540,-210,280,,,,,,,0x03,
3574,-341,-119,941,1680,0,420,,,,,,,0x03,
3584,-341,-111,941,1960,210,280,,,,,,,0x03,
3593,-342,-108,938,1540,350,420,,,,,,,0x03,
3603,-346,-106,936,840,420,420,,,,,,,0x03,
3613,-348,-105,933,350,280,210,,,,,,,0x03,
3622,-345,-105,936,70,210,140,,,,,,,0x03,
3632,-342,-104,933,210,140,-70,,,,,,,0x03,
3642,-343,-94,934,420,-140,-70,,,,,,,0x03,
3651,-347,-93,935,70,-280,70,,,,,,,0x03,
3661,-350,-93,934,-1050,-420,70,,,,,,,0x03,
3670,-352,-100,936,-2240,-420,140,,,,,,,0x03,
3680,-353,-108,936,-2940,-350,210,,,,,,,0x03,
3690,-349,-111,939,-3220,-210,210,,,,,,,0x03,
3699,-343,-116,940,-3220,70,280,,,,,,,0x03,
3709,-344,-117,937,-3150,280,280,,,,,,,0x03,
3719,-348,-115,941,-3010,420,280,,,,,,,0x03,
3728,-349,-119,940,-3220,700,350,,,,,,,0x03,
3738,-346,-123,935,-3150,910,350,,,,,,,0x03,
3748,-352,-126,932,-2870,1120,420,,,,,,,0x03,
3757,-356,-128,930,-2450,1190,560,,,,,,,0x03,
3767,-352,-125,932,-2170,1330,420,,,,,,,0x03,
3776,-344,-123,933,-2100,1260,280,,,,,,,0x03,
3786,-342,-129,931,-1960,1260,280,,,,,,,0x03,
3796,-352,-128,928,-1330,1190,210,,,,,,,0x03,
3805,-354,-121,930,-490,1050,210,,,,,,,0x03,
3815,-353,-112,928,0,910,280,,,,,,,0x03,
3825,-351,-108,927,-350,700,280,,,,,,,0x03,
3834,-354,-114,926,-910,350,280,,,,,,,0x03,
3844,-354,-118,925,-1050,70,70,,,,,,,0x03,
3854,-353,-120,928,-700,-210,-140,,,,,,,0x03,
3863,-350,-123,929,-210,-490,-140,,,,,,,0x03,
3873,-349,-125,932,140,-560,-280,,,,,,,0x03,
3882,-350,-124,927,490,-630,-490,,,,,,,0x03,
3892,-354,-121,926,1050,-840,-630,,,,,,,0x03,
3902,-356,-118,927,1330,-1050,-630,,,,,,,0x03,
3911,-358,-114,925,1120,-1330,-770,,,,,,,0x03,
3921,-360,-110,930,630,-1470,-700,,,,,,,0x03,
3931,-356,-110,934,-140,-1540,-490,,,,,,,0x03,
3940,-349,-115,937,-770,-1540,-490,,,,,,,0x03,
3950,-350,-120,933,-1050,-1540,-420,,,,,,,0x03,
3959,-354,-119,929,-910,-1470,-350,,,,,,,0x03,
3969,-359,-124,928,-700,-1400,-210,,,,,,,0x03,
3979,-363,-133,929,-490,-1400,-280,,,,,,,0x03,
3988,-360,-137,932,490,-1190,-210,,,,,,,0x03,
3998,-354,-135,933,1610,-980,-140,,,,,,,0x03,
4008,-353,-132,933,2450,-770,-210,,,,,,,0x03,
4017,-354,-122,936,2870,-700,-210,,,,,,,0x03,
4027,-348,-116,934,2590,-630,-280,,,,,,,0x03,
4037,-349,-118,927,2030,-630,0,,,,,,,0x03,
4046,-360,-116,928,1750,-770,70,,,,,,,0x03,
4056,-355,-117,927,2030,-910,70,,,,,,,0x03,
4065,-349,-116,930,2240,-980,140,,,,,,,0x03,
4075,-350,-112,933,2310,-1050,-70,,,,,,,0x03,
4085,-353,-107,937,2450,-1050,-140,,,,,,,0x03,
4094,-350,-107,942,2310,-910,-140,,,,,,,0x03,
4104,-345,-105,941,2100,-630,-70,,,,,,,0x03,
4114,-349,-100,937,2030,-420,-70,,,,,,,0x03,
4123,-354,-95,939,1470,-350,140,,,,,,,0x03,
4133,-347,-94,935,420,-350,280,,,,,,,0x03,
4143,-341,-94,936,-700,-420,210,,,,,,,0x03,
4152,-343,-104,935,-1750,-490,350,,,,,,,0x03,
4162,-348,-120,932,-2100,-560,280,,,,,,,0x03,
4171,-351,-128,934,-1260,-350,140,,,,,,,0x03,
4181,-352,-127,929,140,-280,-70,,,,,,,0x03,
4191,-356,-115,935,1120,-140,-210,,,,,,,0x03,
4200,-356,-107,936,910,0,-70,,,,,,,0x03,
4210,-349,-103,938,-70,0,-210,,,,,,,0x03,
4220,-349,-111,937,-1330,70,-140,,,,,,,0x03,
4229,-349,-113,934,-1680,210,-140,,,,,,,0x03,
4239,-350,-119,932,-1540,210,-280,,,,,,,0x03,
4248,-349,-113,928,-1050,70,-630,,,,,,,0x03,
4258,-346,-107,931,-490,-140,-630,,,,,,,0x03,
4268,-343,-106,933,-630,-280,-420,,,,,,,0x03,
4277,-343,-113,932,-910,-420,-350,,,,,,,0x03,
4287,-347,-113,930,-770,-630,-350,,,,,,,0x03,
4297,-351,-105,933,-420,-700,-350,,,,,,,0x03,
4306,-353,-106,930,-770,-910,-280,,,,,,,0x03,
4316,-362,-115,927,-1750,-1050,-210,,,,,,,0x03,
4326,-368,-121,929,-2100,-1120,-280,,,,,,,0x03,
4335,-364,-124,929,-1890,-1050,-210,,,,,,,0x03,
4345,-354,-122,934,-1400,-980,-140,,,,,,,0x03,
4354,-348,-120,936,-910,-840,-210,,,,,,,0x03,
4364,-347,-117,935,-560,-770,-210,,,,,,,0x03,
4374,-347,-112,933,-630,-700,-210,,,,,,,0x03,
4383,-349,-117,933,-770,-700,-70,,,,,,,0x03,
4393,-352,-128,929,-770,-700,70,,,,,,,0x03,
4403,-355,-130,927,-140,-700,-70,,,,,,,0x03,
4412,-356,-131,926,840,-770,-70,,,,,,,0x03,
4422,-356,-127,927,1470,-770,0,,,,,,,0x03,
4432,-354,-121,930,1820,-910,-210,,,,,,,0x03,
4441,-347,-115,930,1890,-1120,-210,,,,,,,0x03,
4451,-348,-109,934,1470,-1260,-280,,,,,,,0x03,
4460,-345,-112,936,840,-1260,-420,,,,,,,0x03,
4470,-345,-118,931,1120,-1260,-490,,,,,,,0x03,
4480,-351,-113,935,1750,-1120,-420,,,,,,,0x03,
4489,-351,-108,934,2310,-1120,-420,,,,,,,0x03,
4499,-353,-100,931,2030,-1120,-350,,,,,,,0x03,
4509,-354,-99,932,1260,-1190,-140,,,,,,,0x03,
4518,-353,-105,931,420,-1400,-210,,,,,,,0x03,
4528,-350,-105,932,0,-1540,-420,,,,,,,0x03,
4538,-346,-108,930,0,-1750,-490,,,,,,,0x03,
4547,-350,-112,930,350,-1820,-490,,,,,,,0x03,
4557,-356,-110,932,630,-1890,-420,,,,,,,0x03,
4566,-356,-109,935,490,-1890,-280,,,,,,,0x03,
4576,-356,-116,934,-140,-1820,0,,,,,,,0x03,
4586,-357,-127,933,-560,-1610,70,,,,,,,0x03,
4595,-359,-135,932,0,-1400,0,,,,,,,0x03,
4605,-356,-130,934,700,-1190,-280,,,,,,,0x03,
4615,-349,-126,935,1260,-980,-350,,,,,,,0x03,
4624,-345,-126,934,1750,-840,-420,,,,,,,0x03,
4634,-347,-123,932,2520,-700,-280,,,,,,,0x03,
4643,-349,-116,934,3220,-560,-140,,,,,,,0x03,
4653,-347,-111,931,3640,-560,-140,,,,,,,0x03,
4663,-347,-103,931,3500,-700,-140,,,,,,,0x03,
4672,-345,-102,932,3220,-910,-280,,,,,,,0x03,
4682,-345,-104,931,3010,-1120,-350,,,,,,,0x03,
4692,-345,-103,936,2940,-1260,-420,,,,,,,0x03,
4701,-346,-104,933,3150,-1330,-490,,,,,,,0x03,
4711,-347,-101,937,3290,-1330,-490,,,,,,,0x03,
4721,-347,-97,935,3010,-1400,-560,,,,,,,0x03,
4730,-344,-93,935,2450,-1540,-700,,,,,,,0x03,
4740,-346,-94,936,2030,-1680,-560,,,,,,,0x03,
4749,-345,-99,933,1750,-1680,-560,,,,,,,0x03,
4759,-347,-102,935,1610,-1540,-490,,,,,,,0x03,
4769,-348,-103,934,1540,-1610,-560,,,,,,,0x03,
4778,-353,-103,936,1890,-1470,-560,,,,,,,0x03,
4788,-355,-105,936,2030,-1470,-700,,,,,,,0x03,
4798,-357,-109,937,1820,-1330,-560,,,,,,,0x03,
4807,-349,-107,937,1610,-1260,-630,,,,,,,0x03,
4817,-343,-109,936,1400,-1190,-630,,,,,,,0x03,
4827,-344,-113,934,1190,-1190,-490,,,,,,,0x03,
4836,-347,-118,932,1680,-1120,-420,,,,,,,0x03,
4846,-347,-118,934,2800,-910,-490,,,,,,,0x03,
4855,-348,-114,933,3850,-770,-560,,,,,,,0x03,
4865,-350,-105,933,4620,-840,-490,,,,,,,0x03,
4875,-349,-84,941,4550,-910,-560,,,,,,,0x03,
4884,-343,-78,941,3010,-980,-420,,,,,,,0x03,
4894,-341,-86,938,700,-1050,-280,,,,,,,0x03,
4904,-344,-95,937,-490,-1120,-140,,,,,,,0x03,
4913,-346,-109,936,-420,-1190,-70,,,,,,,0x03,
4923,-344,-115,934,630,-1120,-70,,,,,,,0x03,
4932,-347,-118,932,2170,-910,0,,,,,,,0x03,
4942,-353,-111,934,3500,-840,-70,,,,,,,0x03,
4952,-349,-96,940,3710,-840,-210,,,,,,,0x03,
4961,-342,-87,941,2730,-840,-280,,,,,,,0x03,
4971,-343,-81,942,980,-770,-350,,,,,,,0x03,
4981,-346,-89,940,-770,-770,-210,,,,,,,0x03,
4990,-348,-102,939,-1400,-630,-70,,,,,,,0x03,
5000,-344,-101,934,-420,-560,-210,,,,,,,0x03,
5010,-340,-93,934,1190,-490,-210,,,,,,,0x03,
5019,-341,-86,935,1680,-630,-140,,,,,,,0x03,
5029,-339,-87,937,1120,-770,-140,,,,,,,0x03,
5038,-341,-91,939,420,-840,-280,,,,,,,0x03,
5048,-345,-98,939,70,-770,-420,,,,,,,0x03,
5058,-347,-111,937,350,-630,-350,,,,,,,0x03,
5067,-348,-116,940,1260,-350,-280,,,,,,,0x03,
5077,-343,-107,941,2310,-140,-420,,,,,,,0x03,
5087,-336,-111,940,2730,70,-280,,,,,,,0x03,
5096,-339,-111,944,2940,420,-280,,,,,,,0x03,
5106,-335,-103,942,3710,560,-700,,,,,,,0x03,
5116,-337,-98,944,4200,840,-770,,,,,,,0x03,
5125,-344,-98,945,4340,1120,-840,,,,,,,0x03,
5135,-346,-86,941,4900,1330,-910,,,,,,,0x03,
5144,-349,-69,946,5040,1610,-560,,,,,,,0x03,
5154,-346,-66,955,3290,2030,-70,,,,,,,0x03,
5164,-338,-73,951,1050,2380,70,,,,,,,0x03,
5173,-339,-80,947,-490,2800,350,,,,,,,0x03,
5183,-348,-87,946,-980,3220,700,,,,,,,0x03,
5193,-351,-90,941,-1050,3640,770,,,,,,,0x03,
5202,-354,-98,929,-980,3850,700,,,,,,,0x03,
5212,-365,-105,921,-560,3780,910,,,,,,,0x03,
5222,-369,-106,921,140,3430,1050,,,,,,,0x03,
5231,-353,-95,925,560,2940,980,,,,,,,0x03,
5241,-349,-96,926,70,2520,1050,,,,,,,0x03,
5250,-358,-105,927,-490,2100,910,,,,,,,0x03,
5260,-359,-104,928,-280,1820,490,,,,,,,0x03,
5270,-354,-99,926,700,1540,350,,,,,,,0x03,
5279,-357,-94,923,1400,1190,420,,,,,,,0x03,
5289,-367,-91,916,1680,700,350,,,,,,,0x03,
5299,-373,-82,917,1540,140,350,,,,,,,0x03,
5308,-364,-72,924,1120,-490,280,,,,,,,0x03,
5318,-355,-72,924,350,-1050,210,,,,,,,0x03,
5327,-362,-79,923,-630,-1610,0,,,,,,,0x03,
5337,-370,-81,925,-980,-2030,-350,,,,,,,0x03,
5347,-366,-80,924,-560,-2380,-420,,,,,,,0x03,
5356,-366,-73,924,-350,-2730,-490,,,,,,,0x03,
5366,-368,-73,926,-770,-3010,-420,,,,,,,0x03,
5376,-369,-73,925,-1400,-3360,-490,,,,,,,0x03,
5385,-372,-70,929,-2380,-3570,-560,,,,,,,0x03,
5395,-366,-74,932,-3500,-3780,-700,,,,,,,0x03,
5405,-358,-80,935,-4620,-3850,-840,,,,,,,0x03,
5414,-356,-84,934,-5040,-3920,-1190,,,,,,,0x03,
5424,-355,-85,933,-4620,-3990,-1260,,,,,,,0x03,
5433,-355,-85,930,-4340,-4060,-1260,,,,,,,0x03,
5443,-359,-86,927,-4340,-4270,-1260,,,,,,,0x03,
5453,-359,-93,931,-4550,-4410,-1050,,,,,,,0x03,
5462,-353,-105,933,-4970,-4480,-910,,,,,,,0x03,
5472,-348,-114,936,-5040,-4480,-1120,,,,,,,0x03,
5482,-349,-113,938,-4410,-4340,-1470,,,,,,,0x03,
5491,-348,-108,938,-3920,-4130,-1540,,,,,,,0x03,
5501,-349,-106,939,-3990,-3920,-1470,,,,,,,0x03,
5511,-346,-108,939,-3920,-3710,-1330,,,,,,,0x03,
5520,-345,-109,940,-3360,-3360,-1120,,,,,,,0x03,
5530,-344,-106,938,-2870,-3150,-840,,,,,,,0x03,
5539,-342,-103,936,-2870,-3150,-700,,,,,,,0x03,
5549,-342,-99,939,-3640,-3220,-770,,,,,,,0x03,
5559,-338,-102,941,-4620,-3220,-840,,,,,,,0x03,
5568,-330,-110,942,-5250,-3150,-840,,,,,,,0x03,
5578,-330,-117,944,-4900,-2940,-770,,,,,,,0x03,
5588,-330,-120,947,-3570,-2590,-770,,,,,,,0x03,
5597,-328,-120,945,-2030,-2170,-560,,,,,,,0x03,
5607,-336,-114,943,-980,-1610,-350,,,,,,,0x03,
5616,-339,-107,945,-840,-1260,-140,,,,,,,0x03,
5626,-334,-107,945,-1190,-980,0,,,,,,,0x03,
5636,-330,-110,945,-1820,-770,-140,,,,,,,0x03,
5645,-327,-116,942,-2100,-630,-140,,,,,,,0x03,
5655,-327,-124,942,-1750,-350,-70,,,,,,,0x03,
5665,-330,-125,941,-770,-210,-70,,,,,,,0x03,
5674,-332,-122,939,700,0,-70,,,,,,,0x03,
5684,-336,-113,938,1820,140,0,,,,,,,0x03,
5694,-340,-107,941,2030,210,-70,,,,,,,0x03,
5703,-340,-100,938,1680,210,-70,,,,,,,0x03,
5713,-342,-95,939,980,210,-70,,,,,,,0x03,
5722,-342,-97,937,70,70,-70,,,,,,,0x03,
5732,-340,-95,937,-630,-70,-280,,,,,,,0x03,
5742,-341,-91,935,-770,-140,-490,,,,,,,0x03,
5751,-345,-96,934,-840,-210,-490,,,,,,,0x03,
5761,-351,-99,933,-770,-350,-420,,,,,,,0x03,
5771,-357,-96,934,-420,-350,-490,,,,,,,0x03,
5780,-353,-91,936,-630,-350,-420,,,,,,,0x03,
5790,-345,-88,938,-1610,-420,-490,,,,,,,0x03,
5800,-345,-93,940,-3010,-490,-560,,,,,,,0x03,
5809,-342,-97,938,-4060,-560,-700,,,,,,,0x03,
5819,-345,-101,937,-4480,-490,-490,,,,,,,0x03,
5828,-350,-108,935,-4760,-420,-420,,,,,,,0x03,
5838,-353,-118,933,-4620,-350,-490,,,,,,,0x03,
5848,-353,-125,931,-3920,-210,-490,,,,,,,0x03,
5857,-352,-124,930,-2870,-140,-630,,,,,,,0x03,
5867,-352,-115,929,-2100,-210,-700,,,,,,,0x03,
5877,-349,-115,931,-2310,-420,-490,,,,,,,0x03,
5886,-346,-120,930,-3220,-630,-420,,,,,,,0x03,
5896,-344,-127,931,-3360,-770,-560,,,,,,,0x03,
5905,-342,-137,932,-2380,-840,-630,,,,,,,0x03,
5915,-342,-136,932,-630,-840,-770,,,,,,,0x03,
5925,-342,-127,934,840,-770,-770,,,,,,,0x03,
5934,-345,-116,936,1400,-770,-770,,,,,,,0x03,
5944,-347,-109,936,1190,-700,-630,,,,,,,0x03,
5954,-347,-109,938,490,-630,-350,,,,,,,0x03,
5963,-345,-111,937,0,-560,-280,,,,,,,0x03,
5973,-343,-112,935,70,-560,-350,,,,,,,0x03,
5983,-342,-110,936,280,-560,-420,,,,,,,0x03,
5992,-345,-107,935,420,-560,-350,,,,,,,0x03,
6002,-345,-108,936,350,-630,-140,,,,,,,0x03,
6011,-346,-106,938,70,-560,-70,,,,,,,0x03,
6021,-342,-108,935,-350,-630,0,,,,,,,0x03,
6031,-342,-110,934,-560,-770,70,,,,,,,0x03,
6040,-350,-108,935,-910,-770,70,,,,,,,0x03,
6050,-353,-106,931,-1610,-980,140,,,,,,,0x03,
6060,-350,-110,932,-2590,-1260,140,,,,,,,0x03,
6069,-346,-113,928,-3080,-1470,0,,,,,,,0x03,
6079,-345,-114,930,-3080,-1680,-70,,,,,,,0x03,
6089,-347,-105,932,-2940,-1960,-210,,,,,,,0x03,
6098,-346,-101,930,-3010,-2240,-70,,,,,,,0x03,
6108,-349,-98,931,-3570,-2520,0,,,,,,,0x03,
6117,-353,-96,932,-4550,-2800,-70,,,,,,,0x03,
6127,-352,-98,929,-5670,-3150,-70,,,,,,,0x03,
6137,-353,-101,928,-6580,-3430,-70,,,,,,,0x03,
6146,-353,-110,927,-7490,-3640,70,,,,,,,0x03,
6156,-350,-121,931,-8120,-3920,140,,,,,,,0x03,
6166,-340,-122,932,-8330,-4200,-210,,,,,,,0x03,
6175,-334,-123,935,-8260,-4410,-490,,,,,,,0x03,
6185,-330,-127,938,-8400,-4480,-420,,,,,,,0x03,
6195,-332,-137,940,-8260,-4410,-560,,,,,,,0x03,
6204,-338,-144,939,-7140,-4130,-630,,,,,,,0x03,
6214,-339,-146,939,-5670,-3710,-630,,,,,,,0x03,
6223,-339,-139,940,-4130,-3290,-770,,,,,,,0x03,
6233,-338,-128,946,-3570,-2800,-630,,,,,,,0x03,
6243,-331,-127,948,-3920,-2450,-490,,,,,,,0x03,
6252,-324,-131,948,-4620,-2030,-210,,,,,,,0x03,
6262,-322,-137,945,-4620,-1610,-70,,,,,,,0x03,
6272,-323,-145,946,-3990,-1120,140,,,,,,,0x03,
6281,-324,-151,942,-3150,-700,140,,,,,,,0x03,
6291,-328,-151,936,-1820,-420,0,,,,,,,0x03,
6300,-332,-146,934,-280,-350,70,,,,,,,0x03,
6310,-337,-140,935,210,-280,140,,,,,,,0x03,
6320,-332,-132,935,-140,-350,140,,,,,,,0x03,
6329,-328,-135,938,-840,-420,210,,,,,,,0x03,
6339,-330,-141,939,-910,-350,210,,,,,,,0x03,
6349,-332,-137,940,-420,-350,70,,,,,,,0x03,
6358,-331,-131,939,280,-280,-70,,,,,,,0x03,
6368,-333,-122,939,350,-140,0,,,,,,,0x03,
6378,-333,-122,940,-140,-70,350,,,,,,,0x03,
6387,-334,-128,939,-630,0,420,,,,,,,0x03,
6397,-336,-132,936,-1050,0,420,,,,,,,0x03,
6406,-337,-138,934,-840,70,490,,,,,,,0x03,
6416,-338,-142,930,-560,0,560,,,,,,,0x03,
6426,-343,-141,931,-420,-140,560,,,,,,,0x03,
6435,-341,-143,932,-140,-210,420,,,,,,,0x03,
6445,-337,-148,931,210,-280,490,,,,,,,0x03,
6455,-338,-147,930,910,-420,420,,,,,,,0x03,
6464,-339,-145,932,1540,-420,350,,,,,,,0x03,
6474,-338,-142,932,2100,-490,280,,,,,,,0x03,
6484,-338,-139,933,2520,-630,420,,,,,,,0x03,
6493,-336,-139,933,2660,-700,490,,,,,,,0x03,
6503,-335,-139,932,3010,-840,350,,,,,,,0x03,
6512,-341,-137,931,3570,-910,350,,,,,,,0x03,
6522,-344,-133,932,4130,-980,420,,,,,,,0x03,
6532,-340,-131,937,4200,-910,560,,,,,,,0x03,
6541,-339,-132,938,3990,-770,560,,,,,,,0x03,
6551,-339,-131,940,4130,-560,630,,,,,,,0x03,
6561,-338,-129,938,4410,-420,560,,,,,,,0x03,
6570,-340,-122,939,4760,-280,490,,,,,,,0x03,
6580,-342,-118,937,4410,-210,490,,,,,,,0x03,
6589,-341,-117,935,3920,-210,630,,,,,,,0x03,
6599,-341,-116,933,3710,-280,700,,,,,,,0x03,
6609,-343,-112,936,3710,-350,630,,,,,,,0x03,
6618,-339,-111,937,3570,-490,630,,,,,,,0x03,
6628,-336,-115,941,2940,-560,490,,,,,,,0x03,
6638,-334,-119,938,2730,-560,420,,,,,,,0x03,
6647,-342,-121,937,3290,-490,420,,,,,,,0x03,
6657,-347,-113,935,3850,-490,280,,,,,,,0x03,
6667,-345,-100,936,3570,-560,70,,,,,,,0x03,
6676,-343,-98,936,2310,-770,70,,,,,,,0x03,
6686,-342,-104,932,1050,-980,70,,,,,,,0x03,
6695,-345,-109,932,560,-1190,140,,,,,,,0x03,
6705,-344,-110,935,350,-1330,210,,,,,,,0x03,
6715,-342,-108,929,-140,-1750,-70,,,,,,,0x03,
6724,-342,-103,933,-980,-2030,-140,,,,,,,0x03,
6734,-335,-111,934,-2310,-2310,-210,,,,,,,0x03,
6744,-332,-122,933,-3010,-2520,-420,,,,,,,0x03,
6753,-336,-132,935,-2520,-2730,-420,,,,,,,0x03,
6763,-340,-132,937,-1330,-2660,-420,,,,,,,0x03,
6773,-335,-117,941,-350,-2590,-630,,,,,,,0x03,
6782,-327,-106,943,-280,-2520,-350,,,,,,,0x03,
6792,-327,-112,946,-1470,-2380,-140,,,,,,,0x03,
6801,-330,-113,945,-2730,-2310,-350,,,,,,,0x03,
6811,-327,-113,942,-3290,-2170,-490,,,,,,,0x03,
6821,-334,-113,941,-3290,-2100,-140,,,,,,,0x03,
6830,-338,-113,940,-3290,-1890,140,,,,,,,0x03,
6840,-338,-126,937,-3290,-1680,280,,,,,,,0x03,
6850,-339,-136,937,-2520,-1470,210,,,,,,,0x03,
6859,-336,-135,937,-1190,-1330,-210,,,,,,,0x03,
6869,-335,-121,936,-280,-1330,-490,,,,,,,0x03,
6879,-336,-116,940,-420,-1330,-350,,,,,,,0x03,
6888,-334,-117,937,-1540,-1400,-210,,,,,,,0x03,
6898,-336,-117,941,-2520,-1400,-70,,,,,,,0x03,
6907,-328,-128,942,-2660,-1330,-70,,,,,,,0x03,
6917,-322,-139,935,-1820,-1190,-140,,,,,,,0x03,
6927,-331,-142,935,-140,-980,-280,,,,,,,0x03,
6936,-341,-129,938,1400,-910,-350,,,,,,,0x03,
6946,-334,-117,940,1610,-910,-210,,,,,,,0x03,
6956,-328,-113,944,350,-910,-140,,,,,,,0x03,
6965,-328,-118,945,-1260,-840,-70,,,,,,,0x03,
6975,-325,-133,941,-2100,-770,-70,,,,,,,0x03,
6984,-328,-141,936,-1750,-840,0,,,,,,,0x03,
6994,-332,-137,930,-210,-910,-210,,,,,,,0x03,
7004,-338,-131,929,1050,-1120,-70,,,,,,,0x03,
7013,-341,-121,939,1260,-1120,0,,,,,,,0x03,
7023,-334,-115,942,910,-1120,-140,,,,,,,0x03,
7033,-331,-109,944,420,-1050,-280,,,,,,,0x03,
7042,-334,-105,946,-630,-1050,-140,,,,,,,0x03,
7052,-330,-108,944,-2030,-980,210,,,,,,,0x03,
7062,-332,-107,941,-3080,-910,280,,,,,,,0x03,
7071,-332,-115,943,-3920,-840,560,,,,,,,0x03,
7081,-331,-127,939,-4270,-700,350,,,,,,,0x03,
7090,-333,-134,938,-3570,-490,280,,,,,,,0x03,
7100,-332,-143,935,-2240,-350,210,,,,,,,0x03,
7110,-335,-136,933,-770,-280,-140,,,,,,,0x03,
7119,-332,-122,938,-280,-420,-280,,,,,,,0x03,
7129,-328,-120,936,-1190,-630,-280,,,,,,,0x03,
7139,-329,-125,937,-2240,-770,-560,,,,,,,0x03,
7148,-328,-132,938,-2450,-910,-420,,,,,,,0x03,
7158,-319,-126,943,-1890,-980,-560,,,,,,,0x03,
7168,-316,-126,942,-1610,-910,-630,,,,,,,0x03,
7177,-322,-132,941,-1330,-700,-420,,,,,,,0x03,
7187,-331,-138,939,-700,-490,-280,,,,,,,0x03,
7196,-334,-136,936,490,-420,-140,,,,,,,0x03,
7206,-335,-131,938,910,-350,-70,,,,,,,0x03,
7216,-334,-133,943,210,-140,-70,,,,,,,0x03,
7225,-329,-139,942,-280,70,-210,,,,,,,0x03,
7235,-329,-144,938,350,140,-280,,,,,,,0x03,
7245,-335,-143,936,1610,350,-140,,,,,,,0x03,
7254,-344,-134,935,2450,490,-210,,,,,,,0x03,
7264,-346,-123,935,2450,630,-70,,,,,,,0x03,
7273,-341,-125,933,1890,560,210,,,,,,,0x03,
7283,-339,-124,930,1330,350,210,,,,,,,0x03,
7293,-338,-125,932,1050,70,70,,,,,,,0x03,
7302,-339,-138,927,1330,-140,0,,,,,,,0x03,
7312,-341,-135,929,2170,-350,-140,,,,,,,0x03,
7322,-343,-126,931,3290,-420,-140,,,,,,,0x03,
7331,-345,-120,935,3500,-490,-70,,,,,,,0x03,
7341,-347,-118,938,3080,-560,0,,,,,,,0x03,
7351,-339,-121,937,2870,-490,70,,,,,,,0x03,
7360,-338,-120,937,2660,-490,70,,,,,,,0x03,
7370,-336,-121,936,2380,-490,0,,,,,,,0x03,
7379,-335,-124,934,2240,-560,70,,,,,,,0x03,
7389,-338,-123,931,2450,-770,-140,,,,,,,0x03,
7399,-338,-114,934,2380,-980,-210,,,,,,,0x03,
7408,-333,-108,936,1890,-1260,-280,,,,,,,0x03,
7418,-331,-112,939,1190,-1470,-70,,,,,,,0x03,
7428,-334,-112,941,770,-1470,0,,,,,,,0x03,
7437,-335,-102,941,630,-1610,-210,,,,,,,0x03,
7447,-337,-92,942,-140,-1820,-350,,,,,,,0x03,
7457,-337,-91,945,-1960,-1750,-350,,,,,,,0x03,
7466,-330,-100,944,-3290,-1680,-210,,,,,,,0x03,
7476,-328,-111,947,-4200,-1470,350,,,,,,,0x03,
7485,-331,-125,942,-4060,-1190,560,,,,,,,0x03,
7495,-336,-127,945,-3500,-840,700,,,,,,,0x03,
7505,-337,-130,945,-3500,-350,770,,,,,,,0x03,
7514,-330,-134,938,-3500,-140,630,,,,,,,0x03,
7524,-333,-137,931,-3290,-210,490,,,,,,,0x03,
7534,-338,-130,925,-2870,-630,420,,,,,,,0x03,
7543,-336,-121,923,-2940,-1190,210,,,,,,,0x03,
7553,-333,-116,930,-3640,-1820,70,,,,,,,0x03,
7563,-324,-116,934,-4200,-2310,-210,,,,,,,0x03,
7572,-326,-123,935,-3990,-2660,-420,,,,,,,0x03,
7582,-334,-125,935,-3150,-2800,-280,,,,,,,0x03,
7591,-337,-119,938,-2170,-2800,-350,,,,,,,0x03,
7601,-339,-113,937,-2030,-2730,-280,,,,,,,0x03,
7611,-343,-118,936,-2870,-2660,-140,,,,,,,0x03,
7620,-341,-128,943,-3920,-2450,0,,,,,,,0x03,
7630,-331,-134,942,-3990,-2310,-350,,,,,,,0x03,
7640,-327,-134,948,-3710,-1960,-490,,,,,,,0x03,
7649,-320,-144,951,-3570,-1540,-140,,,,,,,0x03,
7659,-319,-144,948,-2800,-910,-210,,,,,,,0x03,
7668,-322,-133,945,-1750,-560,-210,,,,,,,0x03,
7678,-321,-132,947,-1540,-350,70,,,,,,,0x03,
7688,-322,-129,945,-2100,-70,0,,,,,,,0x03,
7697,-326,-131,945,-2870,210,0,,,,,,,0x03,
7707,-331,-145,943,-3150,560,350,,,,,,,0x03,
7717,-329,-143,940,-2520,770,350,,,,,,,0x03,
7726,-327,-132,943,-1890,840,280,,,,,,,0x03,
7736,-322,-130,943,-2380,980,420,,,,,,,0x03,
7746,-321,-132,936,-3220,980,280,,,,,,,0x03,
7755,-327,-143,935,-3150,910,420,,,,,,,0x03,
7765,-332,-149,931,-2310,840,420,,,,,,,0x03,
7774,-335,-144,931,-980,770,210,,,,,,,0x03,
7784,-337,-138,934,-280,700,280,,,,,,,0x03,
7794,-331,-135,934,-280,490,140,,,,,,,0x03,
7803,-331,-134,936,-840,420,210,,,,,,,0x03,
7813,-330,-138,935,-1190,280,70,,,,,,,0x03,
7823,-335,-138,937,-1120,140,70,,,,,,,0x03,
7832,-332,-135,936,-910,70,-70,,,,,,,0x03,
7842,-329,-133,930,-420,-70,-210,,,,,,,0x03,
7852,-335,-135,929,-70,-210,-70,,,,,,,0x03,
7861,-341,-132,927,560,-490,-420,,,,,,,0x03,
7871,-345,-125,930,840,-770,-560,,,,,,,0x03,
7880,-341,-129,932,630,-840,-630,,,,,,,0x03,
7890,-343,-135,935,560,-840,-630,,,,,,,0x03,
7900,-341,-138,938,840,-630,-630,,,,,,,0x03,
7909,-333,-136,939,1680,-490,-560,,,,,,,0x03,
7919,-331,-128,939,1960,-420,-560,,,,,,,0x03,
7929,-333,-129,940,1330,-420,-560,,,,,,,0x03,
7938,-336,-137,935,420,-350,-490,,,,,,,0x03,
7948,-339,-147,930,490,-420,-490,,,,,,,0x03,
7957,-344,-152,930,1470,-350,-350,,,,,,,0x03,
7967,-342,-146,934,2520,-280,-280,,,,,,,0x03,
7977,-332,-135,940,2590,-210,-350,,,,,,,0x03,
7986,-325,-138,938,1960,-280,-280,,,,,,,0x03,
7996,-333,-140,936,1610,-350,-280,,,,,,,0x03,
8006,-336,-139,937,1610,-420,-210,,,,,,,0x03,
8015,-332,-132,928,1890,-700,-280,,,,,,,0x03,
8025,-339,-127,927,1890,-840,-140,,,,,,,0x03,
8035,-346,-126,932,1540,-1050,0,,,,,,,0x03,
8044,-336,-129,937,1190,-1120,-70,,,,,,,0x03,
8054,-333,-135,939,1470,-1050,-210,,,,,,,0x03,
8063,-336,-137,942,2310,-840,-280,,,,,,,0x03,
8073,-339,-127,940,3430,-630,-350,,,,,,,0x03,
8083,-342,-112,938,3360,-420,-420,,,,,,,0x03,
8092,-343,-107,938,2170,-420,-70,,,,,,,0x03,
8102,-342,-113,936,700,-420,210,,,,,,,0x03,
8112,-336,-122,937,-490,-420,140,,,,,,,0x03,
8121,-327,-134,936,-700,-560,140,,,,,,,0x03,
8131,-328,-137,940,-210,-490,-70,,,,,,,0x03,
8141,-330,-140,936,770,-420,-350,,,,,,,0x03,
8150,-332,-140,934,2030,-420,-420,,,,,,,0x03,
8160,-336,-127,935,3150,-420,-490,,,,,,,0x03,
8169,-336,-116,936,3220,-490,-490,,,,,,,0x03,
8179,-336,-115,937,2030,-630,-280,,,,,,,0x03,
8189,-335,-123,940,770,-700,-70,,,,,,,0x03,
8198,-331,-134,944,140,-630,-70,,,,,,,0x03,
8208,-323,-145,942,560,-420,-210,,,,,,,0x03,
8218,-321,-151,938,1960,-140,-420,,,,,,,0x03,
8227,-328,-147,934,3780,0,-490,,,,,,,0x03,
8237,-335,-137,932,5600,-140,-420,,,,,,,0x03,
8247,-334,-118,932,6090,-280,-140,,,,,,,0x03,
8256,-336,-109,933,5040,-700,-140,,,,,,,0x03,
8266,-340,-111,937,3150,-980,0,,,,,,,0x03,
8275,-341,-116,941,1470,-1050,-140,,,,,,,0x03,
8285,-334,-121,942,910,-1120,-280,,,,,,,0x03,
8295,-332,-123,943,1470,-910,-210,,,,,,,0x03,
8304,-336,-114,938,2590,-700,-280,,,,,,,0x03,
8314,-343,-102,933,3080,-770,-210,,,,,,,0x03,
8324,-347,-100,934,2450,-770,0,,,,,,,0x03,
8333,-347,-108,935,1470,-840,0,,,,,,,0x03,
8343,-343,-115,936,1050,-910,-210,,,,,,,0x03,
8352,-341,-117,942,1190,-770,-280,,,,,,,0x03,
8362,-334,-115,942,1190,-700,-420,,,,,,,0x03,
8372,-331,-110,944,980,-490,-420,,,,,,,0x03,
8381,-328,-105,946,280,-420,-490,,,,,,,0x03,
8391,-327,-108,945,-770,-210,-350,,,,,,,0x03,
8401,-327,-115,941,-1400,-70,-350,,,,,,,0x03,
8410,-331,-126,938,-910,0,-280,,,,,,,0x03,
8420,-338,-132,937,0,140,0,,,,,,,0x03,
8430,-340,-127,940,840,350,-70,,,,,,,0x03,
8439,-331,-118,940,1120,420,-210,,,,,,,0x03,
8449,-326,-112,945,420,420,-140,,,,,,,0x03,
8458,-323,-118,945,-560,420,0,,,,,,,0x03,
8468,-321,-127,944,-980,490,70,,,,,,,0x03,
8478,-317,-131,937,-350,490,140,,,,,,,0x03,
8487,-323,-130,932,1120,350,280,,,,,,,0x03,
8497,-334,-128,934,1960,280,560,,,,,,,0x03,
8507,-337,-131,934,2100,70,560,,,,,,,0x03,
8516,-340,-136,932,2240,0,490,,,,,,,0x03,
8526,-345,-139,933,2940,0,560,,,,,,,0x03,
8536,-346,-128,934,3780,70,350,,,,,,,0x03,
8545,-345,-116,934,3710,0,350,,,,,,,0x03,
8555,-347,-113,934,2660,-140,560,,,,,,,0x03,
8564,-346,-114,930,1750,-210,630,,,,,,,0x03,
8574,-345,-118,926,1680,-420,700,,,,,,,0x03,
8584,-347,-113,930,2240,-770,770,,,,,,,0x03,
8593,-345,-104,932,2590,-1050,770,,,,,,,0x03,
8603,-340,-102,933,2240,-1330,770,,,,,,,0x03,
8613,-342,-110,934,1400,-1540,910,,,,,,,0x03,
8622,-342,-117,935,1190,-1540,700,,,,,,,0x03,
8632,-340,-116,937,1820,-1680,490,,,,,,,0x03,
8641,-341,-114,937,2520,-1610,420,,,,,,,0x03,
8651,-341,-113,936,3080,-1610,280,,,,,,,0x03,
8661,-343,-111,938,3430,-1470,350,,,,,,,0x03,
8670,-338,-106,938,3640,-1400,350,,,,,,,0x03,
8680,-337,-99,936,3500,-1540,350,,,,,,,0x03,
8690,-338,-98,942,2520,-1540,350,,,,,,,0x03,
8699,-331,-105,941,1470,-1470,140,,,,,,,0x03,
8709,-333,-114,937,1330,-1540,0,,,,,,,0x03,
8719,-339,-112,938,2170,-1470,-140,,,,,,,0x03,
8728,-337,-101,941,3150,-1470,-280,,,,,,,0x03,
8738,-335,-88,939,3010,-1540,-210,,,,,,,0x03,
8747,-333,-77,942,1610,-1750,-210,,,,,,,0x03,
8757,-331,-76,945,-280,-1890,-210,,,,,,,0x03,
8767,-330,-89,945,-2030,-1960,-210,,,,,,,0x03,
8776,-332,-103,941,-2660,-2030,-210,,,,,,,0x03,
8786,-337,-102,939,-2240,-2030,-280,,,,,,,0x03,
8796,-339,-93,943,-1890,-1960,-420,,,,,,,0x03,
8805,-339,-86,943,-2520,-1890,-280,,,,,,,0x03,
8815,-337,-86,945,-3920,-1820,-140,,,,,,,0x03,
8825,-329,-91,950,-5600,-1680,70,,,,,,,0x03,
8834,-322,-103,950,-6720,-1540,140,,,,,,,0x03,
8844,-318,-111,948,-6790,-1260,70,,,,,,,0x03,
8853,-324,-119,945,-6370,-1120,-70,,,,,,,0x03,
8863,-327,-122,938,-5600,-910,-210,,,,,,,0x03,
8873,-332,-122,934,-4620,-980,-280,,,,,,,0x03,
8882,-334,-118,939,-4060,-910,-70,,,,,,,0x03,
8892,-327,-111,948,-4270,-770,-140,,,,,,,0x03,
8902,-315,-115,949,-5040,-700,-140,,,,,,,0x03,
8911,-319,-134,946,-5390,-420,-70,,,,,,,0x03,
8921,-329,-135,946,-4480,-140,-350,,,,,,,0x03,
8931,-332,-128,944,-3010,210,-420,,,,,,,0x03,
8940,-335,-121,938,-2310,490,-280,,,,,,,0x03,
8950,-340,-121,934,-2450,630,-70,,,,,,,0x03,
8959,-345,-129,932,-2520,630,210,,,,,,,0x03,
8969,-341,-133,932,-2380,630,210,,,,,,,0x03,
8979,-334,-132,934,-1820,560,140,,,,,,,0x03,
8988,-328,-138,938,-1260,560,0,,,,,,,0x03,
8998,-327,-142,941,-560,700,-70,,,,,,,0x03,
9008,-326,-135,940,770,770,-350,,,,,,,0x03,
9017,-330,-129,938,1960,840,-280,,,,,,,0x03,
9027,-336,-124,930,2450,840,70,,,,,,,0x03,
9036,-344,-117,928,2240,560,420,,,,,,,0x03,
9046,-346,-118,932,1470,350,630,,,,,,,0x03,
9056,-336,-125,931,840,0,630,,,,,,,0x03,
9065,-332,-137,935,770,-210,560,,,,,,,0x03,
9075,-336,-143,937,1540,-210,280,,,,,,,0x03,
9085,-335,-135,936,3150,-140,0,,,,,,,0x03,
9094,-337,-127,934,4690,-70,70,,,,,,,0x03,
9104,-343,-116,929,5320,-210,70,,,,,,,0x03,
9114,-346,-109,933,5110,-350,210,,,,,,,0x03,
9123,-341,-106,934,4340,-560,210,,,,,,,0x03,
9133,-339,-111,933,3710,-700,280,,,,,,,0x03,
9142,-343,-111,939,3570,-910,210,,,,,,,0x03,
9152,-343,-106,945,3500,-840,70,,,,,,,0x03,
9162,-339,-103,943,3220,-770,-70,,,,,,,0x03,
9171,-339,-98,937,3080,-700,-140,,,,,,,0x03,
9181,-342,-92,932,2940,-840,0,,,,,,,0x03,
9191,-349,-94,932,2170,-980,210,,,,,,,0x03,
9200,-347,-103,931,1050,-1260,280,,,,,,,0x03,
9210,-342,-108,937,490,-1470,70,,,,,,,0x03,
9220,-335,-109,942,560,-1470,-210,,,,,,,0x03,
9229,-335,-112,947,420,-1330,-350,,,,,,,0x03,
9239,-336,-112,948,350,-1050,-560,,,,,,,0x03,
9248,-332,-108,946,700,-700,-560,,,,,,,0x03,
9258,-332,-98,943,1120,-420,-490,,,,,,,0x03,
9268,-332,-93,942,700,-350,-140,,,,,,,0x03,
9277,-331,-98,939,-210,-350,140,,,,,,,0x03,
9287,-333,-102,938,-1120,-420,70,,,,,,,0x03,
9297,-329,-116,941,-1400,-490,70,,,,,,,0x03,
9306,-330,-124,942,-840,-350,0,,,,,,,0x03,
9316,-331,-115,943,0,-210,-280,,,,,,,0x03,
9325,-329,-105,944,630,-70,-280,,,,,,,0x03,
9335,-330,-96,944,420,-70,-140,,,,,,,0x03,
9345,-333,-98,939,-700,-70,0,,,,,,,0x03,
9354,-337,-102,936,-1610,-210,70,,,,,,,0x03,
9364,-339,-98,937,-1820,-420,70,,,,,,,0x03,
9374,-334,-99,935,-2450,-700,140,,,,,,,0x03,
9383,-332,-96,937,-3290,-980,210,,,,,,,0x03,
9393,-338,-106,941,-4200,-1120,280,,,,,,,0x03,
9403,-343,-113,943,-4410,-1120,210,,,,,,,0x03,
9412,-345,-118,943,-4200,-770,210,,,,,,,0x03,
9422,-344,-117,942,-3640,-350,70,,,,,,,0x03,
9431,-344,-119,941,-3010,0,-140,,,,,,,0x03,
9441,-348,-116,937,-2520,210,-350,,,,,,,0x03,
9451,-348,-105,936,-2520,350,-140,,,,,,,0x03,
9460,-346,-108,936,-3360,420,210,,,,,,,0x03,
9470,-345,-120,937,-4620,490,490,,,,,,,0x03,
9480,-339,-131,935,-4970,490,350,,,,,,,0x03,
9489,-338,-137,934,-4060,490,420,,,,,,,0x03,
9499,-337,-136,933,-2940,490,280,,,,,,,0x03,
9509,-333,-134,932,-2030,490,140,,,,,,,0x03,
9518,-335,-134,930,-1330,420,70,,,,,,,0x03,
9528,-336,-136,928,-560,280,0,,,,,,,0x03,
9537,-335,-134,929,280,0,-140,,,,,,,0x03,
9547,-331,-124,931,1050,-350,-560,,,,,,,0x03,
9557,-329,-117,930,1470,-700,-700,,,,,,,0x03,
9566,-335,-117,932,1750,-1120,-700,,,,,,,0x03,
9576,-337,-111,937,1960,-1330,-840,,,,,,,0x03,
9586,-331,-105,939,2100,-1470,-980,,,,,,,0x03,
9595,-332,-101,941,2240,-1470,-1050,,,,,,,0x03,
9605,-335,-96,943,1960,-1540,-980,,,,,,,0x03,
9615,-338,-91,945,1190,-1470,-840,,,,,,,0x03,
9624,-337,-92,946,140,-1330,-840,,,,,,,0x03,
9634,-335,-99,945,-1190,-1120,-700,,,,,,,0x03,
9643,-336,-114,939,-1820,-980,-630,,,,,,,0x03,
9653,-343,-117,940,-1610,-840,-840,,,,,,,0x03,
9663,-338,-115,941,-1120,-700,-840,,,,,,,0x03,
9672,-334,-115,937,-1120,-630,-910,,,,,,,0x03,
9682,-334,-110,937,-1540,-630,-1050,,,,,,,0x03,
9692,-337,-110,939,-2030,-700,-980,,,,,,,0x03,
9701,-333,-112,942,-2800,-770,-980,,,,,,,0x03,
9711,-326,-126,939,-3430,-700,-700,,,,,,,0x03,
9720,-333,-141,937,-2870,-560,-560,,,,,,,0x03,
9730,-342,-138,942,-1680,-280,-490,,,,,,,0x03,
9740,-335,-130,943,-1120,-70,-490,,,,,,,0x03,
9749,-330,-123,941,-1330,140,-490,,,,,,,0x03,
9759,-335,-126,940,-1960,280,-210,,,,,,,0x03,
9769,-343,-138,939,-2310,490,0,,,,,,,0x03,
9778,-344,-145,936,-1610,770,140,,,,,,,0x03,
9788,-340,-143,930,-70,910,280,,,,,,,0x03,
9798,-345,-137,926,1330,910,280,,,,,,,0x03,
9807,-353,-132,927,2030,840,210,,,,,,,0x03,
9817,-350,-123,925,2100,630,0,,,,,,,0x03,
9826,-349,-116,926,1890,210,-210,,,,,,,0x03,
9836,-348,-111,929,1470,-140,-420,,,,,,,0x03,
9846,-349,-110,931,1330,-420,-560,,,,,,,0x03,
9855,-348,-107,932,1470,-560,-490,,,,,,,0x03,
9865,-343,-103,934,1610,-700,-420,,,,,,,0x03,
9875,-342,-106,930,1750,-910,-560,,,,,,,0x03,
9884,-344,-101,932,1680,-1190,-630,,,,,,,0x03,
9894,-345,-96,934,1190,-1470,-700,,,,,,,0x03,
9904,-339,-96,935,140,-1680,-770,,,,,,,0x03,
9913,-334,-103,935,-1190,-1960,-910,,,,,,,0x03,
9923,-335,-109,937,-2100,-2240,-1190,,,,,,,0x03,
9932,-334,-119,935,-1960,-2380,-1330,,,,,,,0x03,
9942,-335,-125,935,-1120,-2380,-1260,,,,,,,0x03,
9952,-335,-122,934,-280,-2450,-1470,,,,,,,0x03,
9961,-338,-119,933,280,-2520,-1680,,,,,,,0x03,
9971,-342,-116,936,280,-2590,-1750,,,,,,,0x03,
9981,-336,-120,940,-210,-2590,-1680,,,,,,,0x03,
9990,-327,-128,940,-350,-2520,-1610,,,,,,,0x03,
10000,-326,-131,945,140,-2310,-1540,,,,,,,0x03,
10009,-327,-134,943,560,-2030,-1400,,,,,,,0x03,
10019,-327,-137,944,1260,-1750,-1190,,,,,,,0x03,
10029,-330,-139,943,1890,-1470,-840,,,,,,,0x03,
10038,-334,-142,939,2520,-1120,-770,,,,,,,0x03,
10048,-338,-139,940,3080,-840,-840,,,,,,,0x03,
10058,-334,-129,942,3360,-630,-840,,,,,,,0x03,
10067,-323,-121,945,3220,-490,-700,,,,,,,0x03,
10077,-317,-114,948,2870,-280,-490,,,,,,,0x03,
10087,-317,-109,947,2170,-210,-280,,,,,,,0x03,
10096,-323,-108,945,1540,-140,-70,,,,,,,0x03,
10106,-327,-114,943,910,-70,210,,,,,,,0x03,
10115,-331,-119,937,1050,0,280,,,,,,,0x03,
10125,-340,-113,935,1750,-70,210,,,,,,,0x03,
10135,-345,-104,933,2240,-210,0,,,,,,,0x03,
10144,-345,-91,934,1820,-490,-210,,,,,,,0x03,
10154,-345,-79,935,770,-770,-280,,,,,,,0x03,
10164,-344,-70,938,-630,-1120,-210,,,,,,,0x03,
10173,-339,-67,943,-2520,-1400,-280,,,,,,,0x03,
10183,-338,-71,944,-4340,-1470,-140,,,,,,,0x03,
10193,-338,-74,944,-6090,-1610,-210,,,,,,,0x03,
10202,-334,-78,942,-7350,-1680,-140,,,,,,,0x03,
10212,-335,-90,938,-8540,-1820,-140,,,,,,,0x03,
10221,-341,-103,936,-9660,-2030,-70,,,,,,,0x03,
10231,-347,-121,934,-10570,-2030,210,,,,,,,0x03,
10241,-348,-139,929,-10710,-2170,70,,,,,,,0x03,
10250,-347,-155,929,-9870,-2100,0,,,,,,,0x03,
10260,-346,-168,930,-8540,-1890,-70,,,,,,,0x03,
10270,-344,-170,933,-7140,-1750,-490,,,,,,,0x03,
10279,-338,-170,936,-6020,-1400,-770,,,,,,,0x03,
10289,-327,-164,938,-4620,-1190,-1050,,,,,,,0x03,
10298,-319,-153,940,-3150,-980,-1050,,,,,,,0x03,
10308,-321,-144,939,-2450,-840,-910,,,,,,,0x03,
10318,-328,-142,936,-2170,-840,-700,,,,,,,0x03,
10327,-334,-147,930,-1470,-770,-490,,,,,,,0x03,
10337,-338,-145,928,0,-840,-490,,,,,,,0x03,
10347,-338,-138,930,1470,-910,-630,,,,,,,0x03,
10356,-334,-136,932,2520,-980,-700,,,,,,,0x03,
10366,-332,-131,933,3290,-1120,-840,,,,,,,0x03,
10376,-332,-122,936,3780,-1260,-910,,,,,,,0x03,
10385,-333,-113,937,3640,-1470,-770,,,,,,,0x03,
10395,-331,-102,941,2520,-1750,-770,,,,,,,0x03,
10404,-324,-105,942,770,-2030,-630,,,,,,,0x03,
10414,-322,-114,941,-700,-2170,-770,,,,,,,0x03,
10424,-325,-127,938,-980,-2310,-910,,,,,,,0x03,
10433,-334,-137,936,-140,-2240,-770,,,,,,,0x03,
10443,-335,-131,939,980,-2170,-770,,,,,,,0x03,
10453,-331,-117,943,1190,-2100,-700,,,,,,,0x03,
10462,-327,-106,947,0,-2100,-770,,,,,,,0x03,
10472,-326,-105,948,-2310,-2170,-770,,,,,,,0x03,
10482,-325,-109,946,-4270,-2170,-910,,,,,,,0x03,
10491,-327,-117,942,-5250,-2170,-910,,,,,,,0x03,
10501,-335,-119,938,-5530,-2100,-770,,,,,,,0x03,
10510,-339,-119,933,-5530,-2170,-700,,,,,,,0x03,
10520,-342,-121,932,-5880,-2310,-350,,,,,,,0x03,
10530,-343,-134,928,-6370,-2590,-210,,,,,,,0x03,
10539,-346,-150,926,-6860,-2730,-140,,,,,,,0x03,
10549,-348,-161,929,-6720,-2800,-420,,,,,,,0x03,
10559,-336,-166,934,-5810,-2800,-700,,,,,,,0x03,
10568,-321,-167,937,-4620,-2590,-910,,,,,,,0x03,
10578,-318,-162,938,-2730,-2520,-1190,,,,,,,0x03,
10588,-320,-157,941,-1120,-2380,-910,,,,,,,0x03,
10597,-323,-155,941,-280,-2100,-700,,,,,,,0x03,
10607,-323,-156,945,210,-1750,-630,,,,,,,0x03,
10616,-318,-164,945,1260,-1190,-490,,,,,,,0x03,
10626,-315,-166,945,3080,-770,-490,,,,,,,0x03,
10636,-323,-154,944,4690,-350,-490,,,,,,,0x03,
10645,-325,-141,945,5530,70,-560,,,,,,,0x03,
10655,-321,-133,945,5250,350,-210,,,,,,,0x03,
10665,-320,-132,940,4690,490,-70,,,,,,,0x03,
10674,-324,-130,939,4620,560,-70,,,,,,,0x03,
10684,-328,-129,939,4830,560,-70,,,,,,,0x03,
10693,-327,-126,942,5180,490,-140,,,,,,,0x03,
10703,-321,-124,944,5320,490,-140,,,,,,,0x03,
10713,-317,-120,944,5320,490,-210,,,,,,,0x03,
10722,-319,-108,945,4830,490,-280,,,,,,,0x03,
10732,-322,-99,946,3640,350,-280,,,,,,,0x03,
10742,-327,-100,942,1820,140,-140,,,,,,,0x03,
10751,-332,-107,940,0,0,-140,,,,,,,0x03,
10761,-336,-119,936,-1120,-70,-70,,,,,,,0x03,
10771,-336,-128,935,-910,-210,-70,,,,,,,0x03,
10780,-342,-129,933,-420,-210,-140,,,,,,,0x03,
10790,-340,-127,935,-140,-280,-210,,,,,,,0x03,
10799,-333,-121,938,-700,-420,-350,,,,,,,0x03,
10809,-325,-116,939,-2030,-630,-420,,,,,,,0x03,
10819,-326,-121,941,-3360,-840,-280,,,,,,,0x03,
10828,-327,-132,944,-4270,-840,-280,,,,,,,0x03,
10838,-323,-141,941,-4130,-700,-140,,,,,,,0x03,
10848,-324,-147,939,-2870,-420,0,,,,,,,0x03,
10857,-330,-149,939,-1400,-140,210,,,,,,,0x03,
10867,-334,-147,937,-140,70,210,,,,,,,0x03,
10877,-334,-145,936,630,210,140,,,,,,,0x03,
10886,-332,-148,931,1120,210,70,,,,,,,0x03,
10896,-333,-144,929,1400,70,-140,,,,,,,0x03,
10905,-335,-135,934,1610,-140,-140,,,,,,,0x03,
10915,-329,-128,933,1540,-420,-140,,,,,,,0x03,
10925,-324,-124,936,1470,-700,0,,,,,,,0x03,
10934,-327,-124,935,1470,-910,0,,,,,,,0x03,
10944,-334,-127,932,1540,-1190,-70,,,,,,,0x03,
10954,-340,-125,933,1960,-1260,-70,,,,,,,0x03,
10963,-335,-122,933,2380,-1470,-70,,,,,,,0x03,
10973,-338,-118,934,2030,-1680,-140,,,,,,,0x03,
10982,-340,-116,937,1120,-1890,-210,,,,,,,0x03,
10992,-334,-122,942,140,-1890,-280,,,,,,,0x03,
11002,-330,-132,936,140,-1820,-280,,,,,,,0x03,
11011,-337,-130,936,770,-1750,-140,,,,,,,0x03,
11021,-333,-119,943,1190,-1680,-210,,,,,,,0x03,
11031,-325,-115,943,490,-1680,-350,,,,,,,0x03,
11040,-323,-121,941,-210,-1750,-350,,,,,,,0x03,
11050,-325,-126,942,-560,-1680,-420,,,,,,,0x03,
11060,-327,-131,939,-210,-1680,-420,,,,,,,0x03,
11069,-330,-128,941,350,-1540,-420,,,,,,,0x03,
11079,-328,-123,941,420,-1540,-280,,,,,,,0x03,
11088,-326,-122,942,0,-1400,-140,,,,,,,0x03,
11098,-322,-124,944,-700,-1400,-210,,,,,,,0x03,
11108,-320,-129,943,-1190,-1330,-140,,,,,,,0x03,
11117,-323,-135,944,-1190,-1260,-280,,,,,,,0x03,
11127,-323,-139,944,-770,-980,-420,,,,,,,0x03,
11137,-321,-141,942,210,-700,-350,,,,,,,0x03,
11146,-324,-139,942,1470,-490,-350,,,,,,,0x03,
11156,-324,-130,943,2380,-280,-280,,,,,,,0x03,
11166,-322,-124,945,2520,-140,-210,,,,,,,0x03,
11175,-324,-121,942,1960,-70,70,,,,,,,0x03,
11185,-330,-126,942,1190,0,210,,,,,,,0x03,
11194,-327,-124,943,560,140,210,,,,,,,0x03,
11204,-319,-122,943,70,140,210,,,,,,,0x03,
11214,-320,-130,941,-280,210,280,,,,,,,0x03,
11223,-330,-137,937,280,210,280,,,,,,,0x03,
11233,-334,-127,934,1330,140,210,,,,,,,0x03,
11243,-331,-114,936,1680,0,210,,,,,,,0x03,
11252,-329,-108,930,910,-350,210,,,,,,,0x03,
11262,-335,-106,934,-490,-770,210,,,,,,,0x03,
11272,-340,-111,936,-1680,-1050,210,,,,,,,0x03,
11281,-334,-113,939,-2310,-1260,70,,,,,,,0x03,
11291,-328,-116,938,-2590,-1400,70,,,,,,,0x03,
11300,-330,-123,942,-2800,-1400,210,,,,,,,0x03,
11310,-331,-130,943,-2590,-1260,210,,,,,,,0x03,
11320,-329,-135,939,-1960,-1190,140,,,,,,,0x03,
11329,-333,-130,937,-1540,-1190,70,,,,,,,0x03,
11339,-329,-126,938,-1680,-1260,-140,,,,,,,0x03,
11349,-329,-134,935,-2170,-1330,-70,,,,,,,0x03,
11358,-331,-141,935,-2310,-1400,-140,,,,,,,0x03,
11368,-327,-141,935,-1610,-1470,-280,,,,,,,0x03,
11377,-327,-140,936,-490,-1540,-350,,,,,,,0x03,
11387,-330,-134,938,140,-1470,-420,,,,,,,0x03,
11397,-327,-127,941,700,-1470,-490,,,,,,,0x03,
11406,-324,-117,942,770,-1400,-560,,,,,,,0x03,
11416,-325,-116,944,0,-1400,-420,,,,,,,0x03,
11426,-324,-124,946,-560,-1260,-280,,,,,,,0x03,
11435,-324,-130,942,-490,-1050,-210,,,,,,,0x03,
11445,-326,-130,942,-70,-910,-140,,,,,,,0x03,
11455,-322,-125,947,0,-770,-210,,,,,,,0x03,
11464,-317,-122,944,-350,-700,-420,,,,,,,0x03,
11474,-318,-124,943,-700,-630,-420,,,,,,,0x03,
11483,-326,-126,940,-910,-630,-210,,,,,,,0x03,
11493,-329,-122,941,-910,-770,-210,,,,,,,0x03,
11503,-325,-123,941,-1190,-700,-140,,,,,,,0x03,
11512,-324,-127,940,-1330,-700,-70,,,,,,,0x03,
11522,-325,-129,938,-980,-770,-350,,,,,,,0x03,
11532,-326,-128,938,-700,-770,-350,,,,,,,0x03,
11541,-327,-125,938,-630,-840,-350,,,,,,,0x03,
11551,-323,-115,941,-1190,-980,-350,,,,,,,0x03,
11561,-320,-119,942,-2380,-1190,-140,,,,,,,0x03,
11570,-324,-131,940,-3500,-1260,-70,,,,,,,0x03,
11580,-327,-141,939,-3500,-1190,70,,,,,,,0x03,
11589,-327,-147,936,-2660,-1190,210,,,,,,,0x03,
11599,-324,-149,936,-1820,-1120,280,,,,,,,0x03,
11609,-325,-150,938,-1050,-1120,210,,,,,,,0x03,
11618,-329,-152,937,-420,-1050,70,,,,,,,0x03,
11628,-328,-150,938,350,-910,-70,,,,,,,0x03,
11638,-326,-147,937,1260,-770,0,,,,,,,0x03,
11647,-327,-137,938,1680,-700,210,,,,,,,0x03,
11657,-326,-129,940,1400,-770,350,,,,,,,0x03,
11666,-326,-126,940,630,-770,420,,,,,,,0x03,
11676,-323,-130,939,140,-840,490,,,,,,,0x03,
11686,-323,-136,938,490,-980,560,,,,,,,0x03,
11695,-324,-134,937,1330,-1050,420,,,,,,,0x03,
11705,-327,-128,937,2240,-1050,420,,,,,,,0x03,
11715,-328,-125,936,2590,-1050,490,,,,,,,0x03,
11724,-332,-125,938,2450,-1120,420,,,,,,,0x03,
11734,-332,-126,939,2170,-1190,350,,,,,,,0x03,
11744,-333,-125,937,2030,-1260,210,,,,,,,0x03,
11753,-338,-124,937,1820,-1260,210,,,,,,,0x03,
11763,-337,-124,941,1470,-1190,70,,,,,,,0x03,
11772,-331,-123,940,1120,-1050,0,,,,,,,0x03,
11782,-325,-122,940,1470,-1120,-140,,,,,,,0x03,
11792,-325,-121,941,1680,-1120,-140,,,,,,,0x03,
11801,-322,-113,943,1470,-1120,-210,,,,,,,0x03,
11811,-319,-109,942,840,-1260,-210,,,,,,,0x03,
11821,-320,-118,941,-280,-1400,70,,,,,,,0x03,
11830,-322,-123,940,-980,-1610,0,,,,,,,0x03,
11840,-322,-126,942,-1260,-1750,-210,,,,,,,0x03,
11850,-323,-135,940,-1190,-1750,-350,,,,,,,0x03,
11859,-322,-138,941,-420,-1610,-560,,,,,,,0x03,
11869,-321,-139,944,980,-1400,-700,,,,,,,0x03,
11878,-322,-126,943,2100,-1260,-630,,,,,,,0x03,
11888,-326,-113,943,2240,-1120,-490,,,,,,,0x03,
11898,-325,-108,947,980,-1120,-350,,,,,,,0x03,
11907,-321,-116,943,-630,-1120,-210,,,,,,,0x03,
11917,-320,-127,941,-1400,-1190,-280,,,,,,,0x03,
11927,-319,-131,938,-1120,-1330,-490,,,,,,,0x03,
11936,-317,-133,939,-700,-1400,-560,,,,,,,0x03,
11946,-312,-131,938,0,-1540,-700,,,,,,,0x03,
11956,-317,-130,944,560,-1540,-700,,,,,,,0x03,
11965,-320,-127,944,980,-1540,-840,,,,,,,0x03,
11975,-316,-119,944,1190,-1540,-910,,,,,,,0x03,
11984,-319,-114,945,1050,-1610,-840,,,,,,,0x03,
11994,-322,-111,943,630,-1610,-840,,,,,,,0x03,
12004,-326,-110,943,70,-1540,-700,,,,,,,0x03,
12013,-328,-116,943,-560,-1540,-560,,,,,,,0x03,
12023,-328,-124,942,-840,-1540,-490,,,,,,,0x03,
12033,-326,-120,946,-1190,-1260,-490,,,,,,,0x03,
12042,-321,-120,945,-1470,-1120,-490,,,,,,,0x03,
12052,-322,-126,945,-2030,-910,-350,,,,,,,0x03,
12061,-327,-133,944,-2800,-770,-420,,,,,,,0x03,
12071,-329,-122,941,-2800,-490,-490,,,,,,,0x03,
12081,-330,-117,941,-2870,-560,-140,,,,,,,0x03,
12090,-330,-123,938,-3640,-560,70,,,,,,,0x03,
12100,-331,-136,940,-4270,-560,0,,,,,,,0x03,
12110,-326,-145,941,-3710,-420,-280,,,,,,,0x03,
12119,-317,-148,939,-2100,-350,-420,,,,,,,0x03,
12129,-317,-140,938,-280,-420,-280,,,,,,,0x03,
12139,-319,-124,940,140,-560,-350,,,,,,,0x03,
12148,-319,-116,940,-1400,-770,-420,,,,,,,0x03,
12158,-318,-129,938,-3290,-1120,-350,,,,,,,0x03,
12167,-321,-151,935,-3640,-1260,-560,,,,,,,0x03,
12177,-324,-159,937,-2030,-1260,-560,,,,,,,0x03,
12187,-319,-150,939,490,-1260,-630,,,,,,,0x03,
12196,-315,-127,939,2310,-1330,-840,,,,,,,0x03,
12206,-318,-111,943,1890,-1470,-840,,,,,,,0x03,
12216,-322,-108,944,140,-1680,-770,,,,,,,0x03,
12225,-323,-108,945,-1610,-1820,-770,,,,,,,0x03,
12235,-320,-115,946,-2730,-1750,-630,,,,,,,0x03,
12245,-319,-124,946,-3220,-1610,-490,,,,,,,0x03,
12254,-317,-133,944,-3150,-1470,-490,,,,,,,0x03,
12264,-317,-137,943,-2590,-1400,-420,,,,,,,0x03,
12273,-317,-140,941,-1750,-1330,-420,,,,,,,0x03,
12283,-316,-139,943,-1330,-1190,-560,,,,,,,0x03,
12293,-315,-138,940,-1260,-1190,-560,,,,,,,0x03,
12302,-319,-138,940,-1470,-1190,-420,,,,,,,0x03,
12312,-320,-142,942,-1680,-1260,-350,,,,,,,0x03,
12322,-319,-150,942,-1400,-1120,-210,,,,,,,0x03,
12331,-320,-150,942,-770,-910,-210,,,,,,,0x03,
12341,-324,-147,942,140,-700,-280,,,,,,,0x03,
12350,-319,-144,943,700,-560,-210,,,,,,,0x03,
12360,-314,-144,941,1120,-490,-140,,,,,,,0x03,
12370,-318,-141,940,1470,-490,-70,,,,,,,0x03,
12379,-319,-139,940,1680,-490,-70,,,,,,,0x03,
12389,-311,-138,938,1540,-630,0,,,,,,,0x03,
12399,-310,-142,938,1540,-770,70,,,,,,,0x03,
12408,-317,-152,935,2100,-840,210,,,,,,,0x03,
12418,-322,-155,938,3220,-910,70,,,,,,,0x03,
12428,-320,-148,941,4410,-840,-70,,,,,,,0x03,
12437,-319,-137,942,5530,-770,-70,,,,,,,0x03,
12447,-325,-128,943,5670,-630,0,,,,,,,0x03,
12456,-328,-122,944,5250,-560,0,,,,,,,0x03,
12466,-324,-115,944,4760,-490,70,,,,,,,0x03,
12476,-323,-115,940,4130,-490,210,,,,,,,0x03,
12485,-326,-117,942,3430,-490,420,,,,,,,0x03,
12495,-324,-119,939,3010,-560,420,,,,,,,0x03,
12505,-324,-122,940,2940,-490,490,,,,,,,0x03,
12514,-322,-127,941,3080,-490,420,,,,,,,0x03,
12524,-320,-132,944,3430,-490,350,,,,,,,0x03,
12534,-321,-131,944,3990,-420,280,,,,,,,0x03,
12543,-318,-123,944,4480,-280,350,,,,,,,0x03,
12553,-318,-125,946,4340,-280,490,,,,,,,0x03,
12562,-318,-123,944,3920,-210,350,,,,,,,0x03,
12572,-314,-118,946,3920,-280,210,,,,,,,0x03,
12582,-312,-113,947,3640,-210,350,,,,,,,0x03,
12591,-309,-108,948,3080,-210,420,,,,,,,0x03,
12601,-314,-111,946,2310,-210,630,,,,,,,0x03,
12611,-320,-109,942,1750,-420,490,,,,,,,0x03,
12620,-326,-102,941,1190,-630,490,,,,,,,0x03,
12630,-328,-102,939,350,-770,420,,,,,,,0x03,
12640,-333,-108,937,-420,-910,350,,,,,,,0x03,
12649,-332,-110,945,-490,-910,210,,,,,,,0x03,
12659,-325,-104,947,70,-840,70,,,,,,,0x03,
12668,-318,-97,949,210,-630,70,,,,,,,0x03,
12678,-320,-95,950,-420,-560,70,,,,,,,0x03,
12688,-324,-100,945,-1470,-420,140,,,,,,,0x03,
12697,-326,-100,947,-2660,-420,140,,,,,,,0x03,
12707,-320,-108,945,-3710,-420,210,,,,,,,0x03,
12717,-314,-120,942,-4340,-420,210,,,,,,,0x03,
12726,-315,-132,939,-4270,-560,140,,,,,,,0x03,
12736,-320,-138,938,-3220,-630,-70,,,,,,,0x03,
12745,-321,-139,935,-1750,-770,-280,,,,,,,0x03,
12755,-322,-135,935,-420,-910,-350,,,,,,,0x03,
12765,-320,-125,939,280,-1050,-420,,,,,,,0x03,
12774,-319,-118,942,280,-1190,-490,,,,,,,0x03,
12784,-319,-115,944,-490,-1330,-350,,,,,,,0x03,
12794,-320,-119,946,-1330,-1330,-210,,,,,,,0x03,
12803,-322,-130,947,-1890,-1190,-70,,,,,,,0x03,
12813,-319,-136,945,-1680,-980,-140,,,,,,,0x03,
12823,-315,-135,942,-630,-840,-140,,,,,,,0x03,
12832,-318,-128,944,490,-700,70,,,,,,,0x03,
12842,-320,-121,944,560,-630,70,,,,,,,0x03,
12851,-322,-120,944,140,-630,210,,,,,,,0x03,
12861,-318,-125,943,-140,-630,350,,,,,,,0x03,
12871,-318,-126,940,70,-630,280,,,,,,,0x03,
12880,-322,-126,942,280,-560,280,,,,,,,0x03,
12890,-322,-126,940,490,-560,210,,,,,,,0x03,
12900,-323,-125,938,910,-630,140,,,,,,,0x03,
12909,-323,-115,938,1120,-840,70,,,,,,,0x03,
12919,-320,-109,938,630,-1120,-70,,,,,,,0x03,
12929,-321,-109,940,-490,-1470,0,,,,,,,0x03,
12938,-322,-113,941,-1400,-1680,-140,,,,,,,0x03,
12948,-320,-117,942,-1610,-1750,-350,,,,,,,0x03,
12957,-324,-123,944,-1120,-1750,-280,,,,,,,0x03,
12967,-328,-121,944,-490,-1610,-280,,,,,,,0x03,
12977,-327,-113,945,-210,-1470,-280,,,,,,,0x03,
12986,-328,-112,945,-560,-1190,-70,,,,,,,0x03,
12996,-324,-119,946,-1260,-1050,70,,,,,,,0x03,
13006,-321,-124,947,-1820,-840,-140,,,,,,,0x03,
13015,-316,-131,944,-1610,-700,-350,,,,,,,0x03,
13025,-311,-131,942,-630,-630,-280,,,,,,,0x03,
13034,-313,-129,942,140,-630,-350,,,,,,,0x03,
13044,-316,-130,942,560,-700,-280,,,,,,,0x03,
13054,-315,-124,941,910,-770,-350,,,,,,,0x03,
13063,-317,-116,945,840,-840,-420,,,,,,,0x03,
13073,-313,-117,947,140,-840,-280,,,,,,,0x03,
13083,-310,-116,947,-560,-840,-350,,,,,,,0x03,
13092,-313,-114,946,-1050,-910,-420,,,,,,,0x03,
13102,-313,-122,945,-1050,-840,-210,,,,,,,0x03,
13112,-315,-126,945,-630,-840,-140,,,,,,,0x03,
13121,-314,-124,943,-70,-770,-210,,,,,,,0x03,
13131,-317,-126,938,560,-840,-140,,,,,,,0x03,
13140,-327,-129,936,1050,-840,-140,,,,,,,0x03,
13150,-331,-123,939,910,-910,-280,,,,,,,0x03,
13160,-330,-121,940,490,-980,-280,,,,,,,0x03,
13169,-328,-123,943,-70,-1050,-350,,,,,,,0x03,
13179,-322,-125,944,-140,-980,-490,,,,,,,0x03,
13189,-319,-122,946,210,-770,-350,,,,,,,0x03,
13198,-317,-118,951,420,-490,-140,,,,,,,0x03,
13208,-311,-119,950,420,-350,-70,,,,,,,0x03,
13218,-308,-119,947,630,-140,70,,,,,,,0x03,
13227,-313,-120,950,350,0,140,,,,,,,0x03,
13237,-312,-127,948,210,140,210,,,,,,,0x03,
13246,-311,-127,943,420,210,280,,,,,,,0x03,
13256,-316,-126,942,630,210,210,,,,,,,0x03,
13266,-317,-129,943,560,210,210,,,,,,,0x03,
13275,-315,-131,940,980,70,0,,,,,,,0x03,
13285,-318,-130,938,1680,0,70,,,,,,,0x03,
13295,-326,-128,940,2450,0,0,,,,,,,0x03,
13304,-327,-117,940,2660,-140,-280,,,,,,,0x03,
13314,-327,-109,943,2380,-280,-280,,,,,,,0x03,
13324,-327,-111,945,1680,-210,-140,,,,,,,0x03,
13333,-324,-108,945,1190,-70,-140,,,,,,,0x03,
13343,-324,-105,943,910,-140,0,,,,,,,0x03,
13352,-324,-106,941,140,-210,280,,,,,,,0x03,
13362,-326,-109,940,-700,-280,140,,,,,,,0x03,
13372,-325,-122,937,-1050,-350,140,,,,,,,0x03,
13381,-325,-128,936,-420,-490,140,,,,,,,0x03,
13391,-321,-121,938,490,-770,-70,,,,,,,0x03,
13401,-320,-113,937,700,-1050,-140,,,,,,,0x03,
13410,-322,-106,939,0,-1470,-210,,,,,,,0x03,
13420,-323,-109,936,-1120,-1820,-280,,,,,,,0x03,
13429,-326,-115,939,-1750,-2100,-280,,,,,,,0x03,
13439,-324,-116,944,-1820,-2240,-420,,,,,,,0x03,
13449,-320,-116,944,-1400,-2170,-490,,,,,,,0x03,
13458,-320,-118,942,-980,-2170,-420,,,,,,,0x03,
13468,-326,-115,943,-630,-2100,-490,,,,,,,0x03,
13478,-327,-105,942,-840,-2170,-560,,,,,,,0x03,
13487,-322,-105,943,-2030,-2240,-420,,,,,,,0x03,
13497,-319,-111,944,-3360,-2170,-420,,,,,,,0x03,
13507,-320,-123,945,-3710,-2240,-350,,,,,,,0x03,
13516,-317,-131,946,-3290,-2030,-280,,,,,,,0x03,
13526,-317,-144,948,-2660,-1750,-350,,,,,,,0x03,
13535,-309,-130,950,-1190,-1470,-770,,,,,,,0x03,
13545,-306,-118,952,-140,-1190,-490,,,,,,,0x03,
13555,-309,-119,952,-280,-910,-210,,,,,,,0x03,
13564,-310,-118,952,-980,-630,-350,,,,,,,0x03,
13574,-313,-131,951,-1540,-280,-280,,,,,,,0x03,
13584,-311,-139,947,-1120,0,-140,,,,,,,0x03,
13593,-308,-138,947,0,280,70,,,,,,,0x03,
13603,-306,-134,946,840,350,210,,,,,,,0x03,
13613,-310,-133,945,1050,420,70,,,,,,,0x03,
13622,-314,-137,938,1190,420,0,,,,,,,0x03,
13632,-318,-136,939,1960,350,0,,,,,,,0x03,
13641,-317,-127,940,2660,210,0,,,,,,,0x03,
13651,-316,-123,937,2800,0,140,,,,,,,0x03,
13661,-320,-120,935,2520,-350,280,,,,,,,0x03,
13670,-330,-121,934,2030,-700,280,,,,,,,0x03,
13680,-334,-125,935,1680,-980,210,,,,,,,0x03,
13690,-327,-128,932,1680,-1260,70,,,,,,,0x03,
13699,-327,-123,933,2170,-1540,-70,,,,,,,0x03,
13709,-326,-112,941,2730,-1820,-140,,,,,,,0x03,
13718,-320,-101,947,2310,-1820,-210,,,,,,,0x03,
13728,-311,-105,953,1330,-1680,-140,,,,,,,0x03,
13738,-313,-117,953,1050,-1400,-70,,,,,,,0x03,
13747,-318,-122,955,1750,-910,70,,,,,,,0x03,
13757,-321,-113,957,2520,-350,280,,,,,,,0x03,
13767,-316,-107,956,2170,210,420,,,,,,,0x03,
13776,-317,-119,953,840,630,630,,,,,,,0x03,
13786,-315,-126,946,210,910,420,,,,,,,0x03,
13796,-314,-126,944,770,980,350,,,,,,,0x03,
13805,-315,-119,940,1540,910,280,,,,,,,0x03,
13815,-314,-109,937,1960,770,140,,,,,,,0x03,
13824,-322,-104,938,1680,420,210,,,,,,,0x03,
13834,-321,-101,937,1400,0,70,,,,,,,0x03,
13844,-316,-101,934,1400,-420,0,,,,,,,0x03,
13853,-325,-96,936,1400,-840,0,,,,,,,0x03,
13863,-331,-91,939,770,-1330,-280,,,,,,,0x03,
13873,-328,-92,941,-560,-1680,-490,,,,,,,0x03,
13882,-320,-106,945,-1750,-1750,-490,,,,,,,0x03,
13892,-315,-120,947,-1890,-1680,-350,,,,,,,0x03,
13902,-314,-120,947,-980,-1540,-420,,,,,,,0x03,
13911,-320,-113,949,-420,-1400,-280,,,,,,,0x03,
13921,-321,-113,946,-700,-1260,-140,,,,,,,0x03,
13930,-323,-121,945,-1610,-1050,-70,,,,,,,0x03,
13940,-322,-127,944,-1960,-910,-70,,,,,,,0x03,
13950,-317,-127,941,-1470,-910,0,,,,,,,0x03,
13959,-314,-120,943,-840,-910,-70,,,,,,,0x03,
13969,-314,-120,944,-980,-1050,-70,,,,,,,0x03,
13979,-311,-125,943,-1330,-1190,0,,,,,,,0x03,
13988,-310,-126,943,-980,-1190,-210,,,,,,,0x03,
13998,-311,-128,945,140,-1120,-140,,,,,,,0x03,
14007,-312,-129,948,1260,-980,-70,,,,,,,0x03,
14017,-312,-123,948,1960,-910,-280,,,,,,,0x03,
14027,-315,-117,944,2450,-840,-210,,,,,,,0x03,
14036,-321,-112,947,2450,-700,0,,,,,,,0x03,
14046,-318,-115,949,1960,-630,70,,,,,,,0x03,
14056,-316,-120,948,1540,-350,70,,,,,,,0x03,
14065,-316,-123,948,1750,-140,-70,,,,,,,0x03,
14075,-316,-123,943,2730,70,-70,,,,,,,0x03,
14085,-323,-114,942,3360,210,-70,,,,,,,0x03,
14094,-325,-110,941,3290,210,-140,,,,,,,0x03,
14104,-326,-110,943,3220,210,-70,,,,,,,0x03,
14113,-322,-110,945,3150,280,-70,,,,,,,0x03,
14123,-321,-107,941,3220,210,-70,,,,,,,0x03,
14133,-326,-102,941,3290,140,-140,,,,,,,0x03,
14142,-325,-90,946,2520,-70,-210,,,,,,,0x03,
14152,-314,-89,948,1050,-210,-140,,,,,,,0x03,
14162,-311,-95,946,-280,-350,-140,,,,,,,0x03,
14171,-310,-99,949,-980,-490,-140,,,,,,,0x03,
14181,-310,-109,945,-1050,-630,0,,,,,,,0x03,
14191,-315,-111,941,-630,-700,-70,,,,,,,0x03,
14200,-327,-109,940,-280,-700,-140,,,,,,,0x03,
14210,-329,-104,944,-350,-770,-350,,,,,,,0x03,
14219,-324,-102,943,-700,-980,-560,,,,,,,0x03,
14229,-326,-105,943,-1050,-1050,-560,,,,,,,0x03,
14239,-325,-104,944,-1330,-1050,-560,,,,,,,0x03,
14248,-321,-106,944,-1400,-1050,-490,,,,,,,0x03,
14258,-322,-109,942,-1400,-1050,-350,,,,,,,0x03,
14268,-324,-114,944,-1400,-980,-280,,,,,,,0x03,
14277,-323,-120,943,-1190,-910,-350,,,,,,,0x03,
14287,-322,-123,941,-840,-910,-420,,,,,,,0x03,
14297,-326,-125,940,-700,-840,-350,,,,,,,0x03,
14306,-324,-123,946,-840,-770,-280,,,,,,,0x03,
14316,-314,-122,948,-1050,-630,-350,,,,,,,0x03,
14325,-307,-124,950,-1120,-490,-350,,,,,,,0x03,
14335,-310,-130,951,-770,-210,-350,,,,,,,0x03,
14345,-309,-127,951,350,70,-280,,,,,,,0x03,
14354,-310,-119,951,1750,420,0,,,,,,,0x03,
14364,-314,-108,948,2520,700,70,,,,,,,0x03,
14374,-320,-98,945,2310,770,210,,,,,,,0x03,
14383,-321,-91,945,1260,630,140,,,,,,,0x03,
14393,-317,-92,941,140,350,-70,,,,,,,0x03,
14402,-318,-95,940,-350,70,-210,,,,,,,0x03,
14412,-315,-93,947,-630,-70,-140,,,,,,,0x03,
14422,-309,-96,947,-700,-210,-280,,,,,,,0x03,
14431,-313,-102,944,-700,-280,-280,,,,,,,0x03,
14441,-325,-106,944,-420,-350,-210,,,,,,,0x03,
14451,-332,-106,942,-140,-280,-210,,,,,,,0x03,
14460,-330,-103,942,-490,-350,-280,,,,,,,0x03,
14470,-326,-105,941,-1470,-420,-280,,,,,,,0x03,
14480,-326,-108,937,-2030,-630,-560,,,,,,,0x03,
14489,-326,-107,940,-2380,-910,-630,,,,,,,0x03,
14499,-327,-116,938,-2800,-1050,-490,,,,,,,0x03,
14508,-327,-126,940,-2520,-1050,-420,,,,,,,0x03,
14518,-325,-128,940,-1610,-980,-490,,,,,,,0x03,
14528,-324,-126,942,-630,-910,-490,,,,,,,0x03,
14537,-319,-124,946,-140,-840,-560,,,,,,,0x03,
14547,-315,-120,946,0,-700,-490,,,,,,,0x03,
14557,-316,-120,944,-70,-700,-420,,,,,,,0x03,
14566,-320,-119,944,-70,-630,-350,,,,,,,0x03,
14576,-319,-115,944,0,-630,-210,,,,,,,0x03,
14586,-317,-111,945,-210,-700,-210,,,,,,,0x03,
14595,-318,-113,944,-630,-630,-280,,,,,,,0x03,
14605,-322,-118,941,-490,-630,-280,,,,,,,0x03,
14614,-328,-110,943,-140,-630,-140,,,,,,,0x03,
14624,-328,-103,946,-210,-560,-140,,,,,,,0x03,
14634,-324,-105,946,-840,-420,-140,,,,,,,0x03,
14643,-323,-110,945,-1470,-280,-140,,,,,,,0x03,
14653,-324,-116,944,-1260,-140,-210,,,,,,,0x03,
14663,-320,-109,947,-560,0,-280,,,,,,,0x03,
14672,-314,-100,946,-210,70,-210,,,,,,,0x03,
14682,-315,-94,947,-840,70,-210,,,,,,,0x03,
14691,-315,-95,945,-1960,0,-140,,,,,,,0x03,
14701,-314,-101,943,-2730,-210,0,,,,,,,0x03,
14711,-313,-106,945,-3360,-420,140,,,,,,,0x03,
14720,-315,-115,941,-3360,-490,0,,,,,,,0x03,
14730,-321,-121,942,-3150,-630,0,,,,,,,0x03,
14740,-320,-123,941,-2870,-700,-140,,,,,,,0x03,
14749,-319,-127,942,-2380,-700,-140,,,,,,,0x03,
14759,-319,-130,938,-1750,-700,-210,,,,,,,0x03,
14769,-321,-132,940,-1190,-770,-140,,,,,,,0x03,
14778,-326,-133,938,-700,-840,-140,,,,,,,0x03,
14788,-325,-133,939,-210,-910,-140,,,,,,,0x03,
14797,-325,-130,941,140,-840,-210,,,,,,,0x03,
14807,-320,-127,942,630,-840,-280,,,,,,,0x03,
14817,-319,-118,945,700,-840,-140,,,,,,,0x03,
14826,-316,-112,946,560,-840,-140,,,,,,,0x03,
14836,-315,-118,945,280,-770,0,,,,,,,0x03,
14846,-323,-121,942,420,-630,140,,,,,,,0x03,
14855,-329,-115,942,1050,-490,140,,,,,,,0x03,
14865,-326,-110,941,1400,-490,280,,,,,,,0x03,
14875,-325,-102,939,1400,-560,350,,,,,,,0x03,
14884,-329,-95,941,770,-700,280,,,,,,,0x03,
14894,-326,-97,942,-420,-980,280,,,,,,,0x03,
14903,-317,-104,940,-1330,-1330,210,,,,,,,0x03,
14913,-316,-111,937,-1890,-1680,0,,,,,,,0x03,
14923,-325,-111,937,-1680,-1960,-210,,,,,,,0x03,
14932,-329,-109,937,-1470,-2310,-350,,,,,,,0x03,
14942,-327,-110,940,-1680,-2450,-350,,,,,,,0x03,
14952,-321,-116,944,-1960,-2520,-420,,,,,,,0x03,
14961,-319,-120,948,-1890,-2450,-420,,,,,,,0x03,
14971,-319,-118,950,-1610,-2240,-350,,,,,,,0x03,
14981,-316,-117,950,-1750,-1960,-350,,,,,,,0x03,
14990,-318,-113,950,-2100,-1820,-280,,,,,,,0x03,
15000,-316,-113,949,-2800,-1610,-140,,,,,,,0x03,
15009,-315,-121,946,-3430,-1470,140,,,,,,,0x03,
15019,-315,-129,941,-3430,-1400,210,,,,,,,0x03,
15029,-314,-135,938,-2590,-1540,280,,,,,,,0x03,
15038,-315,-137,935,-1540,-1750,210,,,,,,,0x03,
15048,-318,-133,937,-700,-1960,140,,,,,,,0x03,
15058,-317,-127,937,-280,-2240,70,,,,,,,0x03,
15067,-313,-120,940,-280,-2520,0,,,,,,,0x03,
15077,-314,-118,945,-910,-2730,0,,,,,,,0x03,
15086,-311,-123,945,-1190,-2870,70,,,,,,,0x03,
15096,-313,-126,949,-1330,-2730,280,,,,,,,0x03,
15106,-311,-129,951,-910,-2520,350,,,,,,,0x03,
15115,-312,-133,948,-140,-2240,560,,,,,,,0x03,
15125,-318,-132,944,770,-1960,560,,,,,,,0x03,
15135,-321,-129,946,1540,-1750,770,,,,,,,0x03,
15144,-320,-126,945,1610,-1610,700,,,,,,,0x03,
15154,-318,-124,944,1400,-1540,630,,,,,,,0x03,
15164,-319,-127,942,1400,-1540,630,,,,,,,0x03,
15173,-318,-125,943,1680,-1540,560,,,,,,,0x03,
15183,-320,-122,942,1890,-1540,630,,,,,,,0x03,
15192,-320,-127,939,1960,-1610,840,,,,,,,0x03,
15202,-327,-132,937,2310,-1540,910,,,,,,,0x03,
15212,-329,-138,939,2940,-1470,770,,,,,,,0x03,
15221,-322,-146,943,4130,-1190,700,,,,,,,0x03,
15231,-314,-144,943,5950,-910,490,,,,,,,0x03,
15241,-311,-129,945,7770,-770,210,,,,,,,0x03,
15250,-312,-108,948,8260,-770,0,,,,,,,0x03,
15260,-314,-88,950,7140,-910,-280,,,,,,,0x03,
15270,-310,-82,949,5180,-980,-490,,,,,,,0x03,
15279,-311,-84,948,3570,-980,-560,,,,,,,0x03,
15289,-314,-79,950,2870,-1050,-560,,,,,,,0x03,
15298,-312,-71,952,2590,-1190,-560,,,,,,,0x03,
15308,-309,-64,952,1890,-1190,-350,,,,,,,0x03,
15318,-310,-57,955,420,-1190,-140,,,,,,,0x03,
15327,-310,-59,957,-1750,-1190,0,,,,,,,0x03,
15337,-307,-68,956,-4200,-1260,-70,,,,,,,0x03,
15347,-305,-80,954,-6020,-1330,-280,,,,,,,0x03,
15356,-307,-93,952,-7140,-1260,-280,,,,,,,0x03,
15366,-308,-100,950,-7910,-1190,-210,,,,,,,0x03,
15375,-310,-116,948,-8400,-1120,-140,,,,,,,0x03,
15385,-313,-127,946,-8050,-1050,-70,,,,,,,0x03,
15395,-308,-131,945,-7210,-980,-210,,,,,,,0x03,
15404,-306,-137,942,-6510,-980,-420,,,,,,,0x03,
15414,-314,-140,938,-5950,-1120,-630,,,,,,,0x03,
15424,-321,-141,936,-5320,-1260,-700,,,,,,,0x03,
15433,-319,-144,937,-4410,-1400,-630,,,,,,,0x03,
15443,-317,-149,936,-3500,-1470,-490,,,,,,,0x03,
15453,-315,-153,940,-2030,-1470,-490,,,,,,,0x03,
15462,-316,-146,939,-210,-1400,-770,,,,,,,0x03,
15472,-319,-135,944,1190,-1400,-980,,,,,,,0x03,
15481,-312,-127,945,1890,-1330,-980,,,,,,,0x03,
15491,-311,-119,946,2030,-1260,-840,,,,,,,0x03,
15501,-312,-118,950,1610,-1190,-700,,,,,,,0x03,
15510,-312,-119,947,1540,-1120,-700,,,,,,,0x03,
15520,-309,-112,948,1750,-1050,-840,,,,,,,0x03,
15530,-308,-107,949,1540,-980,-770,,,,,,,0x03,
