# PAMAP2 dataset (wrist-mounted sensor)

acc_x[mg],acc_y[mg],acc_z[mg]
-480.61758,541.5089,497.03748
-419.6223,622.6579,371.07202
-361.66476,648.0008,390.23416
-186.11304,656.91797,387.05893
-38.708866,989.5238,435.2688
471.3995,1009.21906,311.2848
-44.246487,1264.7391,320.68222
-446.0395,819.1479,558.35016
-798.4073,325.99075,198.4195
-687.84796,-171.7344,-175.49556
-1396.5632,-582.4871,117.10021
-1601.4385,-1306.2211,-243.91563
-2479.5588,-552.619,-635.76776
-3285.9443,-141.24927,-489.7208
-4880.224,1366.6543,-88.34471
-4162.3545,3148.0012,189.78424
-2241.8687,2105.5994,-72.645836
-428.5678,2274.6594,145.93478
883.5466,916.79016,182.44118
1663.2102,734.9791,220.31929
1364.9392,751.5843,102.32514
1102.461,423.58032,324.77655
426.63235,669.92645,12.979745
601.1686,427.5827,93.14257
-188.13359,436.8654,-51.261272
521.1619,1389.4432,313.67133
-5253.825,6532.1084,5.3516827
-6824.1,4973.579,-528.8284
-3235.759,1376.8497,4.535041
-3149.1714,655.3199,73.258446
-1548.7732,-281.12753,125.42221
-1262.3131,-790.8083,-129.03365
-331.8013,-1539.3807,-405.5525
-713.7727,-1103.294,-288.93668
-731.6942,-1401.9948,-276.93018
-1284.2109,-904.8379,-407.5596
-1339.3403,-564.21405,-397.12366
-1726.6669,-687.32214,-377.17114
-3789.9165,548.0865,-620.853
-7046.993,3790.7048,608.3242
-4516.92,4468.2036,617.5697
-1045.393,2442.2925,-59.456944
579.76697,1346.2888,68.6945
1121.2118,1268.4114,87.39316
1162.8062,789.9788,197.45993
885.4691,867.3728,198.08466
1003.57745,401.93008,372.97906
683.8933,667.11176,132.48076
884.8896,176.63309,252.41026
289.5774,703.6259,-65.060425
851.0681,9.206099,480.30835
-1845.6569,5766.2363,222.96045
-6672.892,9811.157,-444.16882
-2871.0251,1770.3455,-203.0317
-2760.476,895.7763,-666.45
-2045.027,-492.42038,3.8300261
-1140.9606,-1589.2593,-1000.153
-330.4677,-2272.1182,-1022.9102
-1021.48004,-1510.5021,-337.5691
-1057.8234,-1272.0293,-64.620735
-1599.9674,-92.80837,-297.1685
-1504.2848,-269.02478,-649.668
-3340.4006,313.02817,-208.48538
-5758.38,4125.5303,635.9379
-3967.2336,4419.4395,476.0611
-986.01697,2687.0122,281.40558
535.1056,1327.4368,-214.57545
1172.8048,1022.8988,-20.03034
1133.8492,484.82617,128.03296
1053.2275,458.69772,125.542336
1079.6704,424.43582,207.83727
972.6153,515.9026,216.38058
1073.543,242.89806,337.11508
654.37506,522.29895,31.696312
952.1382,151.87022,257.50354
-1357.6943,7198.5806,-1254.5753
-5432.459,8902.687,-1232.5253
-2335.8713,1582.8378,-409.48962
-2505.7275,1268.299,-1082.5751
-2034.9346,-1231.5575,-446.42123
-1437.5564,-1670.141,-849.1454
-878.995,-2537.748,-704.37415
-1304.6392,-1332.0566,-534.89484
-1621.7322,-1403.9978,-212.32137
-2290.6934,-154.09529,-436.18234
-3846.2847,-539.85474,-963.1684
-7381.7095,5503.9404,47.84489
-3654.1003,5174.1865,423.37494
-753.3788,3083.437,-224.97096
648.28455,1223.3347,-31.216372
890.45166,851.59326,-51.103096
1304.1597,326.03717,298.5838
982.56165,642.98676,31.95586
1498.853,150.07309,201.33786
1067.6407,728.9128,-108.77814
1553.6011,-153.80458,105.23511
420.45242,828.4388,-212.53615
1539.1428,-87.90725,177.17862
-2303.3733,8932.8,-962.83276
-6043.645,8448.826,-563.21655
-2401.8066,984.86755,-119.60029
-3167.0894,1178.4718,-374.91296
-1794.9602,-1336.0724,-321.44308
-1238.3162,-1653.6967,-717.3576
-793.9993,-1859.4672,-518.8161
-1182.6552,-1065.4677,-113.05328
-1142.576,-924.98175,41.00841
-1479.0339,-58.372513,-271.70572
-1416.279,-419.02853,-380.7295
-3848.7283,2061.9263,600.0052
-4420.0415,4976.9707,949.34894
-1814.58,3245.45,580.10175
-307.19302,2117.0361,272.42255
260.626,1393.156,186.5934
706.7508,892.6754,296.1228
996.6246,424.85577,190.54851
1138.9834,514.8825,311.8947
1394.4736,324.21133,349.3531
1124.4198,372.19846,116.55473
1209.5605,412.75858,59.49128
795.22174,580.94183,-144.89832
762.3462,2052.971,-27.970024
-2344.6768,8303.561,-321.02795
-3553.3835,5715.6777,-425.51782
-2535.875,1776.1427,-84.31503
-2527.345,689.7603,-35.29416
-1632.0304,-744.1375,-115.23161
-1018.71204,-1299.8339,-398.98453
-974.55585,-1756.7606,-227.09987
-1158.1963,-1186.942,128.58041
-1160.6838,-797.1324,-125.461494
-1450.3531,-289.3034,-416.61032
-2335.7874,17.470825,-102.36776
-5025.885,3837.055,592.1805
-4159.3687,4699.2046,544.43286
-1568.5948,3158.8096,280.2913
17.388395,1710.8176,234.2256
793.5292,845.05334,167.90451
1101.4928,512.24146,43.549778
1085.5072,547.66595,109.1468
1173.8319,350.16315,197.9226
1224.9569,461.7192,116.39755
1078.045,396.4773,165.23677
711.0018,545.8373,86.19021
665.26276,585.56146,104.07244
-241.83342,5412.89,144.63298
-2980.1948,8713.809,-472.91797
-2566.0383,3046.079,-364.2428
-1961.2615,1438.0662,-452.01205
-1684.3202,-108.87701,-385.10703
-1622.4141,-927.6629,-389.85696
-1386.0599,-1948.3662,-542.34216
-1245.2091,-1520.5413,-357.68884
-1601.8738,-1139.9912,-105.17657
-1826.1904,-538.0489,-385.63672
-2081.6802,-355.35526,-477.9978
-4857.8735,1243.3479,15.202387
-6139.358,4759.7754,389.372
-3117.4673,4355.563,427.38818
-731.9844,1628.7535,99.16039
703.80286,1313.1669,119.49525
1657.4446,1284.38,307.64587
1866.0986,862.1254,339.91983
1304.7059,751.6268,286.0483
1353.246,502.40134,294.88995
562.93677,545.2036,152.23882
819.3115,465.30115,111.18654
-1553.597,5559.4053,-296.59415
-6464.701,8563.033,-1141.7045
-3311.336,1868.2021,-609.9556
-2764.6353,843.02106,-315.35678
-1755.6697,-848.09814,-11.396314
-952.3712,-1689.4893,-397.36105
-756.1402,-2886.0269,-325.58676
-1307.4344,-1147.9406,94.56162
-981.05164,-1030.5564,72.226326
-1737.5536,-177.11627,-370.20605
-1594.1194,-890.14514,-261.5316
-4478.6313,1385.5428,116.08393
-6028.882,4198.8945,692.2429
-3181.126,4007.6228,636.1562
-526.3737,1705.6992,187.04161
428.1211,1208.5859,43.928055
1008.34735,932.48804,218.62154
1254.9519,891.8936,54.812298
1725.2372,335.4289,226.08826
1426.3999,888.5837,92.14665
1328.8363,537.4999,201.70074
456.8467,1123.1697,-69.590935
1039.4453,1404.8049,76.36639
-3636.5374,9165.77,-932.13556
-5392.1323,6094.1357,-1064.4478
-2185.5376,1122.2349,-441.79837
-2682.5835,590.7433,-284.19086
-1446.9955,-773.335,61.492596
-1496.0521,-2068.8174,-422.53552
-1004.8378,-1920.2322,-222.246
-1803.5603,-1713.1552,-0.13865586
-1699.9634,-616.08307,-339.6472
-2651.0024,-1230.8433,-714.1734
-3627.9316,779.406,49.399044
-7064.928,2366.5793,492.18814
-6412.1426,3691.969,379.08963
-1298.545,3903.9666,663.627
361.59555,710.1964,273.65622
1126.8063,1293.9098,71.377266
1549.4647,715.2842,-77.24531
1191.454,880.8453,166.55112
1457.0435,355.13223,42.73125
1049.2637,463.29095,55.333878
992.81464,573.8701,-29.290506
634.71594,-58.599617,110.55149
-10.574087,4144.9194,-738.34357
-8783.48,9893.727,-2849.4407
-3419.8591,2947.391,-801.8457
-3041.0088,949.6141,-1289.4879
-3085.764,-739.2786,-86.126495
-1389.7396,-1837.3965,-176.38756
-1311.5779,-3580.8696,-691.5475
-1528.7462,-1968.5234,-270.20306
-1596.8115,-846.46954,-322.73438
-1986.1255,-290.05026,-407.1883
-1828.6957,-206.90425,-412.63995
-4620.6807,1082.2454,40.718212
-6794.0225,4529.6733,-1400.4769
-2951.4783,4697.2163,88.60543
-217.78952,1190.0946,-747.839
738.9442,1686.8236,-815.96204
1678.2365,358.57895,-330.80194
1343.6313,1012.92957,81.7634
1525.1627,-3.9551322,264.83856
841.37616,697.8133,194.88518
1506.8458,-64.74418,249.84674
405.1224,649.02594,201.02917
1588.1324,853.8625,-583.2374
-4518.9004,9820.872,-2479.7656
-5212.542,5967.857,-1137.6793
-1191.5485,1329.2714,-913.83746
-3219.108,250.31868,-388.8636
-1334.0984,-1257.5499,117.26427
-1429.8623,-1621.8981,-169.75748
-1165.8002,-2344.0078,0.81939864
-1219.315,-1016.1288,-38.13024
-1359.8097,-644.0995,-139.19695
-1960.1595,-377.04126,-335.03687
-2362.4976,247.80768,-476.68015
-5441.571,5626.268,-121.98942
-2869.1375,5418.023,301.53973
-194.9055,2496.5051,43.53749
537.02625,1223.2681,218.25165
457.21094,595.5882,98.04802
763.2767,386.86453,118.87845
584.0811,485.97754,227.66217
1151.7626,367.47418,313.38852
1395.798,376.46375,159.36322
1421.8441,114.354645,165.8424
863.00586,575.23035,-284.61862
953.47266,1218.8126,-101.11436
-1020.9812,7967.6875,-1284.3796
-3956.7432,7956.3633,-1076.3685
-2328.2896,1529.189,-629.0456
-2481.7434,1264.9722,-704.58685
-1811.969,-681.31665,-198.88184
-1541.2643,-306.48053,-304.13126
-1281.6951,-1800.5231,-148.71283
-1329.7194,-1275.7554,-258.02036
-1457.4973,-1054.0776,18.973047
-1951.6694,51.38956,-394.0647
-1782.7648,-382.1186,-226.90237
-4638.6045,2738.3777,-921.6518
-6064.017,6441.571,-181.31598
-1883.271,3923.016,75.51281
915.38763,1465.6616,-790.67706
1454.4216,910.4782,-20.816547
1814.1155,302.7239,345.05106
1218.2113,228.17305,281.7855
1586.8967,31.41983,108.73469
959.2553,412.68753,136.0401
1349.1394,-0.10712603,76.65268
166.52592,318.99603,63.732357
1682.8234,932.1572,-412.73373
-4752.2783,10916.511,-2793.8794
-4612.869,5836.7705,-1439.4694
-1186.5182,613.88745,-893.0666
-3064.5337,335.696,-77.836426
-892.99713,-1529.3531,101.92767
-1623.3298,-2244.4026,-37.962395
-999.03955,-2524.304,221.55547
-1605.0848,-1115.925,250.54514
-2007.3702,-694.33777,-495.78384
-2948.08,-874.8916,-964.0268
-4961.439,711.24866,-488.08215
-7195.2866,4705.368,-48.507126
-3922.9011,3724.0366,465.3775
-661.86633,2300.343,-329.20572
755.3064,1202.1035,87.70501
1099.2213,836.9682,241.95386
1679.3746,454.67233,104.02118
1168.9324,436.54105,162.3633
1429.0776,562.7026,35.45088
871.1822,527.6103,15.350693
750.4525,799.71893,14.291734
394.92813,544.4563,-286.09357
518.6025,4593.4995,-780.99756
-4491.7896,10095.641,-1864.9757
-3329.4907,2298.4832,-1153.7778
-1935.1914,509.31,-289.4096
-1775.0394,187.22292,67.83033
-1002.50946,-612.92883,74.622025
-669.4477,-1323.8616,-317.31503
-844.0245,-1299.6787,-264.14624
-1162.2047,-1209.1041,-282.90628
-1868.5017,-218.08247,-501.72983
-2402.8357,-567.06635,-549.14777
-4023.0347,2276.4207,-808.22284
-5693.765,6448.1035,-90.75244
-2013.3861,4962.545,135.38689
704.59955,1742.5737,-517.9869
1256.5232,531.1452,-268.19415
1357.0432,330.5699,-53.991188
1342.2135,82.044846,-94.220474
1235.6667,215.96002,111.46049
1238.531,348.23987,31.21477
973.1246,-24.625551,108.637566
801.2894,438.58978,-164.47957
822.0584,-303.0054,170.94226
722.5099,5784.5376,-1941.7272
-4785.387,11077.583,-2634.794
-1656.1085,995.589,-717.5593
-1771.1276,1008.21234,-814.5013
-2051.282,-1023.74133,45.268223
-1310.9528,-536.0026,108.070526
-1167.6371,-2343.34,-100.17205
-1196.8826,-1497.0419,-345.1169
-1884.886,-1577.5675,-19.545113
-2273.3845,202.92586,-481.5373
-3160.1772,15.045869,-461.50684
-4955.054,6558.9653,-561.7406
-5252.246,2151.3303,-258.3105
-1491.2451,3907.4265,-1383.855
1469.3025,3123.3,33.747643
1028.949,229.01913,208.63936
1790.486,-27.012724,313.51453
1223.6997,429.91547,218.57593
1807.3281,129.76637,350.28412
847.7025,332.62354,92.50311
1284.7825,-246.3852,395.97488
-115.51555,792.7945,-5.7303934
1802.7346,-307.91568,918.9211
-3546.4097,9861.134,-3219.461
-5789.885,7463.981,-2605.5835
-1347.6191,-1912.4219,-642.6514
-2197.218,1468.4905,46.706047
-1509.6569,-1566.7819,198.45905
-1015.87933,-2230.4946,-2.364325
-862.61914,-2855.23,-241.75624
-1457.4933,-626.6278,173.68652
-1412.8612,-1234.4304,-587.48004
-2545.3298,-331.94815,-214.42319
-3966.3413,580.70074,-1048.1442
-7465.849,6717.766,-1644.1411
-2606.0059,5651.723,-172.84438
453.31012,1339.4609,-1090.5378
839.69006,732.6017,-28.336033
1160.1041,322.10046,25.236027
1436.4723,674.3532,156.75722
1530.0402,-20.398527,2.318456
1130.2417,332.2345,80.097046
1315.972,-260.96356,38.199722
587.90894,509.80664,-46.39636
1264.463,-343.0545,-110.00358
-283.61087,7527.4546,-2578.5225
-4812.2314,10307.837,-2650.5933
-1867.4208,972.6745,-1364.7303
-2986.614,636.9479,-1089.1829
-1905.7467,-1156.2941,-142.3258
-1344.4409,-1299.4231,-146.88373
-1060.9584,-2771.2283,-477.64282
-1232.1985,-1435.8193,-194.09947
-2113.959,-603.8866,-253.01442
-2845.5579,-85.182106,-349.19885
-4645.2046,264.53207,-1586.8019
-7388.4634,7206.723,-1392.3176
-3437.5725,5751.0063,-68.56923
509.2799,2527.6023,-1311.3809
1950.4568,776.0459,-548.48975
2110.4365,244.79855,81.65892
1498.6064,558.51355,297.04553
1452.7252,88.3875,127.863365
965.0765,129.80365,133.19835
1269.2653,-101.851746,221.37296
251.97804,126.48364,24.369509
1992.6761,574.73846,-280.68805
-4536.2764,7641.3594,-6543.3853
-4482.719,6955.5684,-3795.0447
-69.52865,-263.7164,-1924.9878
-3008.292,27.282919,-664.408
-1093.0724,-724.3857,724.7354
-1849.9211,-2590.2173,589.3683
-1068.2056,-3066.5042,427.9048
-2102.5967,-1009.2579,147.15733
-2457.6326,-1328.6313,-560.5946
-3221.969,-79.47769,-438.18488
-4722.784,1299.6539,-1906.9115
-7714.0903,6450.8486,-2509.1868
-2510.0515,4506.103,-427.86115
152.76775,2129.971,-1488.3375
1455.714,676.1576,14.912479
1412.54,-260.23074,93.11018
2011.3827,20.085398,326.91174
794.7599,75.59407,414.3043
1523.5066,-22.222971,339.48346
542.3334,202.46512,199.70203
1217.1183,225.46571,83.69242
112.17541,169.21277,6.559242
1492.8936,2734.7996,-2918.644
-3865.0007,9834.894,-5498.906
-3122.7078,3964.4504,-2486.4097
-1544.3289,616.06616,-1850.8032
-2631.4343,-227.71082,-130.18503
-1717.6788,-567.04456,-18.475256
-1605.8528,-878.9807,647.32404
-728.47565,-2602.0742,-63.533623
-1432.8186,-1484.227,769.7697
-2041.9006,138.91092,-226.02779
-1714.2075,-65.76515,213.0646
-3319.5195,399.48172,-1311.1154
-5359.6953,7277.967,-1615.4178
-2204.8904,6554.003,-66.23388
435.4726,895.8145,-1319.1116
1727.774,766.91077,-963.47626
823.28094,-90.33123,-45.24147
1142.4554,328.6426,111.46213
1018.0196,-440.0525,118.38136
1690.8844,-47.4688,-175.86322
1350.4026,-585.45636,172.61685
1109.5553,191.02293,-93.52895
609.9895,-540.82153,385.51196
2032.8636,2769.797,-898.19434
-4995.885,12578.07,-4455.134
-2523.78,2734.7715,-1361.2615
-345.37872,77.02366,-540.986
-3248.28,236.58289,-55.69601
-1225.7802,-2506.1426,538.3425
-1119.6306,-2885.1301,261.6121
-1490.3461,-878.0255,123.33402
-1240.8425,-717.9375,-186.96265
-1796.5076,-545.13196,-873.64294
-3280.04,3.6513336,-1321.0287
-5569.19,5587.9224,-1836.9558
-3410.584,6941.4966,-542.16846
-474.3959,2513.4592,-135.66966
1357.1418,1327.5411,-837.30237
1618.2412,188.40775,130.98141
1245.9562,471.27255,41.842842
1277.2692,246.2874,338.5082
1178.241,786.15173,33.5205
990.5475,0.29649353,307.2593
1095.1326,377.3788,-343.24844
811.14197,-373.0737,187.80038
1955.0984,3139.1663,-2163.2888
-4563.49,10884.82,-4879.3535
-2805.81,2569.8198,-1523.2272
-509.10504,59.376,-1131.7255
-3209.538,-150.5827,-165.18394
-1124.9576,-1540.2993,604.0487
-1791.6675,-2531.6262,237.32646
-1216.3385,-2078.4023,263.41998
-2213.8196,-114.70529,76.72035
-2039.3015,-1142.0732,-532.24945
-4818.109,439.5162,-1541.6592
-6576.615,7514.539,-2976.9966
-3233.8777,5923.658,-559.7026
429.38943,2078.9475,-998.68665
1763.9103,765.8742,-905.34283
1471.6025,406.77634,212.64742
1506.408,286.79672,185.41692
1380.8696,-193.28041,278.97086
1355.1964,356.61078,24.237345
1227.1199,-185.88301,300.1177
1072.3591,392.28522,-193.02908
753.1313,-329.3255,352.6343
1248.2969,3859.293,-1240.81
-6090.5283,12479.675,-4505.9976
-2834.7925,2208.9727,-888.69995
-1485.7811,504.05414,-1243.7927
-3192.0154,-621.80884,556.19965
-567.7339,-2787.436,748.50006
-1630.208,-3082.9014,479.126
-1179.5868,-462.72598,268.91248
-1251.0035,-775.00757,127.99855
-2239.7085,81.09794,-599.05566
-2995.962,-259.91446,-834.2034
-5653.972,4099.4775,-2144.8044
-4752.604,6922.0176,-671.1441
-608.20575,2571.4739,-511.78354
965.4898,1398.0878,-848.1859
1157.0654,504.08777,-277.35568
1104.2316,-118.007576,7.651272
1728.0928,-218.32971,-129.97737
1617.3993,-84.127815,129.97238
1317.4425,269.64435,286.97437
1171.5988,-130.34291,90.67078
647.61646,550.67426,-378.94116
1491.5638,1104.9235,-551.21497
-2178.7344,11306.408,-3322.665
-5911.776,7586.971,-2463.8608
-1336.998,-480.58167,-660.9292
-2538.8987,1133.7543,-154.07597
-1770.5254,-906.45404,-58.55759
-2187.5522,-2567.3179,706.79364
-449.77838,-2494.3054,345.05566
-2359.4536,130.32585,-693.97546
-1397.7551,-1079.0745,-814.0124
-2820.6167,-51.420067,-671.84186
-4195.537,2075.6748,-2072.0671
-4617.6216,7388.2363,-1491.9432
-1226.972,3891.6064,-303.71124
28.442879,2109.094,-675.65356
1542.4069,578.98193,-212.68188
453.87015,852.17175,-71.381454
1380.6223,129.19144,127.54717
839.2879,324.28726,100.053535
1701.9623,-97.76746,191.30171
932.7239,234.29738,319.91458
1839.4592,94.25627,177.16653
930.9665,250.65532,647.01025
1907.0548,3580.6963,-828.30597
-5452.55,13791.267,-4223.2686
-2897.4426,1700.0222,-2132.2888
-1216.7148,105.34819,-1107.3174
-2154.3625,-1322.6421,-1056.6768
-1598.1913,-4547.443,-788.74536
-1313.2146,-2546.2065,-492.77612
-1775.2035,253.93665,-539.7707
-1615.6666,-1031.5194,-60.027397
-3256.9976,193.68874,-809.24817
-4019.6216,161.01196,-787.31744
-6368.481,5978.3877,-1200.2363
-3140.5466,5345.674,69.26992
-652.7863,2687.9019,-424.34067
1337.9187,600.3654,-356.72412
425.09753,785.4636,-230.994
1492.43,-325.2408,14.62381
582.22864,481.5629,-278.56226
2164.144,-542.8991,-3.715265
807.3776,554.7128,-236.39314
1906.8636,-653.7448,154.8387
82.64912,616.7569,-481.37244
2756.716,-541.48553,340.69342
-4930.0396,10243.588,-3216.5525
-5257.3745,6214.3765,-2248.2886
851.7821,-479.60867,-137.3623
-2266.0752,803.88495,-624.442
-1821.0024,-1085.0696,608.1167
-551.90594,-3469.8303,306.73065
-1461.4043,-1120.1323,-380.4085
-1598.6732,-557.4059,-272.19025
-1676.0905,-585.0432,-690.35895
-2371.9111,-450.29886,-485.6214
-3852.028,2751.014,-1374.8356
-4472.864,7337.376,-1096.0715
-950.46356,4884.8237,78.05661
491.16556,1302.263,-338.31427
983.87714,883.75146,-208.77231
1223.7002,-269.05682,131.88425
979.2687,275.13638,134.23584
1573.3292,-384.26096,222.55963
1015.806,256.93027,-43.340054
1303.6941,-862.05023,181.87808
512.8638,744.8167,-264.4602
1957.0107,-1050.6113,506.0095
-904.3019,8111.1357,-2702.8652
-5547.1865,10245.175,-3332.6238
-877.16376,-325.27002,-633.3663
-2388.4395,517.42883,-760.64386
-2122.787,-991.6863,511.09753
-660.90356,-3454.7534,641.787
-1544.72,-2306.73,-0.35361484
-1705.5817,-174.05222,-27.995758
-1556.4066,-779.0661,-586.50476
-2363.4,-535.9882,-725.6984
-4867.596,2427.018,-1518.2201
-5689.7266,8598.894,-836.69965
-550.8262,4225.0327,-651.5608
711.2887,979.67706,-430.9053
1296.584,70.7504,208.75081
1091.4592,194.34973,224.28206
1379.4391,160.15442,282.36487
1496.2192,-581.31116,31.339052
1213.6453,53.331696,49.941273
1067.5692,-306.42773,-52.75782
516.24005,414.7274,-217.2611
1596.4623,-280.24936,-252.26028
-756.4864,9435.098,-1682.4574
-4196.224,8139.1,-1653.7766
-158.6141,-225.73436,30.252369
-2145.341,1461.0436,-225.25063
-2062.7798,-977.5926,2.2333868
-1243.8287,-1607.9078,-258.42703
-1437.1327,-2279.3928,-504.13608
-1766.2118,-416.05957,-95.662735
-2066.7827,-179.89255,-224.66432
-2297.6213,-91.58714,-570.3942
-4160.254,1582.7908,-996.18866
-5543.765,8552.46,-735.77295
-938.1769,5078.25,-65.640366
1120.6187,1506.1947,-686.7668
1258.2158,597.0571,-229.18997
1267.3425,-456.01752,-171.03966
1128.9729,-72.111885,-16.892567
1039.7238,-356.8202,-120.21359
996.4249,-569.5353,-93.30879
935.9939,-478.84848,-119.71738
814.6421,-357.33478,-226.07672
2196.889,-464.38812,-199.86389
1453.8281,3339.042,545.383
-5229.777,11863.99,-2751.1985
-760.65594,4504.272,-877.4818
-1405.3448,-250.33978,-1137.7792
-3273.497,418.18976,-570.32245
-2113.7007,-2632.5625,-1161.5515
-1511.9207,-3027.9094,-254.65794
-1766.8865,-1473.8667,159.78894
-2353.9097,-107.78961,-448.69623
-2982.1912,-689.64844,-1102.2079
-5221.855,1880.2,-1332.7804
-6181.3354,7088.151,-2465.0603
-3872.34,6283.024,1.0968164
839.53284,2144.055,-1326.5273
1782.4885,1036.5009,-1170.5784
1889.1296,359.40063,-113.191345
1282.7003,445.9356,230.77664
2052.5808,-97.39423,-126.6591
1312.0077,308.99387,-115.76109
1407.1674,-171.03873,-69.74066
443.24393,481.32086,-64.596115
1680.2006,933.54663,-517.21094
-3628.4502,12533.665,-2952.8447
-4979.7983,5416.8857,-2044.427
-1834.1151,-376.94266,-867.30774
-2992.2666,366.98538,-373.76593
-1448.3453,-1070.6206,48.336906
-944.7207,-1802.4518,-444.25146
-940.011,-2527.3022,-467.5354
-1246.6283,-803.0563,38.14233
-2243.2515,-549.99603,-363.52444
-2473.8188,-837.83765,-809.1207
-5521.5654,1933.2633,-933.75323
-6196.7783,9295.374,-506.66678
-459.99005,3445.0625,-255.6357
379.7629,1045.6783,-335.23868
1136.3458,647.2258,120.45923
864.75104,611.28925,-34.07456
1781.1715,35.743046,-225.44606
1658.4971,372.32724,-36.03787
1323.2222,426.62643,18.16797
1068.7074,97.84202,-120.45353
771.46265,838.966,27.076727
657.9304,2412.3242,257.72955
-2255.3345,8330.034,-64.92728
-4147.8145,4356.3555,-332.83975
-1350.6796,333.46255,-31.12303
-1948.2614,780.0184,-377.06342
-993.8811,-562.26843,-236.79318
-1234.6108,-528.49146,-382.8137
-619.8433,-1522.9967,-444.04068
-1156.4407,-1360.6967,-283.26242
-1995.532,-701.73065,192.25954
-2322.173,-591.5088,-496.73697
-4285.574,1861.0944,-216.28217
-4964.755,5955.7266,1019.2816
-1330.7584,3731.0735,175.93265
-10.632152,1642.6975,-172.74919
634.1297,741.8647,-342.74594
621.06836,817.527,-79.787865
1081.6014,587.43756,-220.37569
1193.8944,369.16928,-388.1893
1622.4513,831.9339,-161.28091
1095.2122,536.6864,-113.08331
1125.4644,884.61835,-318.64435
533.26825,1738.4978,147.5371
-1167.0116,6148.6343,231.4217
-4761.857,6523.857,85.88367
-2553.556,1159.2848,279.55457
-2276.273,613.3167,-385.5168
-1394.3679,-636.08746,-401.371
-1221.7123,-352.5157,-396.71228
-654.18616,-1164.7812,-512.76587
-972.6811,-1093.7408,-343.99722
-1336.3295,-987.20135,-78.36204
-1969.697,-716.63196,161.42111
-2043.2183,-360.60214,-428.40363
-5625.7354,2919.835,-346.6202
-3961.907,6625.9243,885.5872
-456.50497,2378.345,-25.6687
510.10574,1157.4393,-202.19681
829.195,668.7109,-238.63231
992.91876,694.393,117.552826
1154.737,329.0858,-326.64136
1886.402,443.43103,-57.238285
1351.8975,433.48566,-144.9022
1216.3933,712.6768,-27.346355
992.8807,-15.773022,-554.24384
542.3716,3398.149,748.60895
-7885.493,10249.473,-1288.5994
-4203.8916,1415.8917,-837.008
-1496.3392,465.69128,-361.7792
-2068.087,-296.24658,-450.93622
-1109.187,-1306.064,-237.49922
-562.32153,-3053.0508,-993.71545
-1209.367,-2031.2407,109.29906
-1751.4856,-816.00507,463.69882
-1953.9318,-188.00009,-158.3231
-2183.976,-79.0065,-692.92926
-5328.696,1992.2772,-799.4864
-5153.0693,4562.455,-349.05746
-1525.7284,3825.9756,516.8818
-274.44696,950.1985,-376.24292
556.17426,1402.595,-658.7356
793.2359,762.8499,-699.1698
1039.5033,324.42697,-386.18488
1383.434,309.44037,-696.89026
1686.862,271.27356,-482.43478
1347.7649,506.79947,-480.6774
1010.3537,611.8137,-241.14732
761.54767,2967.4285,-449.70578
-1949.8021,7981.319,-725.2028
-1753.1793,3407.7617,321.73672
-1146.0035,1151.0555,429.9293
-1573.7386,857.80237,-103.22867
-1384.7178,-194.98236,-568.3529
-1692.3093,-678.2004,-856.2189
-2040.3628,-767.49194,-895.8929
-1782.6564,-384.7673,-286.22623
-1505.4111,-357.6403,79.1329
-1464.1775,-285.35394,-38.063858
-2367.374,1316.6943,22.41248
-3836.4844,5382.7324,1080.4031
-1759.7144,5655.248,764.99774
591.93835,1199.0245,38.22576
631.2009,1128.9154,-317.3115
806.67096,411.04727,-57.95777
715.0966,302.67145,-146.13246
1674.892,-40.62418,-174.57573
1692.1843,302.44547,-71.33177
1116.24,230.07944,132.18039
984.2533,68.627014,-225.73436
526.45416,3054.558,441.15848
-2986.1223,9163.76,7.902958
-3419.4207,3804.678,-470.25812
-2208.5923,1011.2298,-13.029232
-2100.3513,475.01865,-248.9611
-1688.5566,-800.6062,-298.34494
-996.3976,-1380.2196,-635.66876
-1014.0158,-1877.6721,-571.7016
-1351.6927,-1518.6777,10.192054
-2213.2676,-427.76547,-49.550804
-1693.36,-310.90396,-535.3907
-3611.7039,509.22394,-766.7513
-6387.214,5788.582,174.22913
-2709.6995,4398.325,697.35187
-357.77954,1376.5139,-213.64166
698.0908,1529.7266,-353.59756
922.7365,436.1606,-81.32453
934.78235,850.3691,-139.67009
1369.1934,339.64194,-320.67224
1441.7906,1066.413,-149.63922
1634.4073,209.68054,40.82228
997.2805,1237.5046,-128.07637
1535.8401,-38.04449,-97.53244
-2310.4036,6664.896,419.2737
-7563.7866,8054.23,-1051.1554
-2562.4814,358.4434,478.0775
-2537.8208,1155.8021,-298.65115
-2156.1467,-1042.0634,-501.108
-1407.0364,-1813.312,-787.5192
-484.27182,-2534.1086,-677.27325
-1361.7025,-1723.0642,-240.08836
-1784.4468,-1330.0613,-265.26636
-2101.7144,-569.36365,-1027.5364
-3863.8196,-169.52898,-655.2987
-6962.558,4273.909,277.01447
-3464.3647,4280.8564,615.0765
-1074.728,1862.7418,229.07979
216.45187,1413.1299,146.4382
602.686,1015.0582,61.85903
1209.3118,1045.5725,107.48706
1013.8256,845.4533,125.67058
1584.2717,1025.425,165.53961
1077.8542,951.8396,118.53221
836.6959,940.8981,103.81772
404.56833,901.75824,3.2904253
-1101.1716,5130.3867,581.9082
-6304.7104,7116.6934,-247.52011
-3628.1333,1898.6204,26.009989
-2861.7905,979.65686,52.990925
-2060.6182,-49.095013,-301.60135
-1781.9144,-772.8878,-585.4127
-869.5472,-2503.7488,-1164.4812
-1039.6885,-1911.2825,-568.8361
-1558.2389,-1506.4343,102.805565
-1772.96,-340.8065,21.056992
-2009.1476,-422.21243,-629.39764
-4236.0615,2238.6604,-558.37555
-6122.133,3468.5532,528.72656
-3345.8662,4177.966,418.7107
357.95126,2247.7014,-376.29306
166.7232,1013.0662,-112.02823
926.1643,956.6692,-44.00244
643.9469,500.38602,7.940407
1678.555,668.42957,-290.19397
1543.577,1001.1566,24.876328
1378.4302,719.4607,97.54485
807.1309,961.9142,-80.1669
949.5,781.4017,48.000435
-1868.5105,6026.28,615.2254
-6008.772,6679.679,-291.977
-2477.3857,973.9983,546.88
-2371.693,1286.0487,119.69351
-1668.7891,-81.20468,-228.22386
-1690.4307,-488.5177,-618.3592
-1007.9768,-2022.8005,-976.784
-1071.3387,-1230.788,-639.7914
-1463.4609,-1017.8578,31.566286
-1754.7775,-316.78607,-5.470202
-1511.2693,-477.07333,-171.54353
-2617.7515,1003.2977,-572.6369
-4309.032,4074.599,26.372135
-2732.3044,5218.245,322.44592
-319.5056,1881.2552,251.9315
275.9951,1261.7157,-201.70978
611.80743,835.4861,-241.57713
677.327,841.91406,-123.46432
1298.9576,192.65076,-3.9757986
1607.3427,838.9345,-21.048065
1459.1683,253.49297,164.5958
803.6572,773.1116,-101.14632
1179.0938,219.24017,128.98502
-1271.8007,6828.992,-19.1338
-4598.6387,7781.7905,-583.4866
-1768.6707,995.98315,288.23285
-2110.6013,1022.5278,-518.83374
-1649.6382,-599.676,-378.99402
-1556.3752,-793.68176,-462.39993
-928.40076,-1298.7578,-466.40228
-921.34845,-897.2531,-322.317
-1154.1605,-655.57635,63.62878
-1731.0428,-312.59808,-15.942831
-1824.6138,-371.3032,-434.13736
-3311.3528,1833.9146,-589.76416
-5079.2817,5089.0396,-532.3756
-2341.616,5405.856,45.791496
247.56413,1527.4819,281.9375
612.38776,948.57886,-369.57697
931.87054,546.6393,-308.46225
861.39844,-1.7322085,-108.195045
938.345,-100.67631,-12.715053
1747.981,-81.04521,10.103591
1446.0707,25.703293,198.73976
981.6557,93.70671,160.2093
688.5462,62.70711,49.11913
1642.1635,2369.3022,-591.38696
-3030.5725,11645.403,-2915.8042
-3076.6333,3963.087,-609.8502
-960.05133,776.18396,-757.172
-2802.5874,729.77374,-548.44885
-1685.6125,-1097.2402,-92.90262
-1275.554,-1497.4294,-537.5959
-1052.2092,-1645.1302,-583.865
-1504.443,-843.1034,-70.31234
-2396.8079,-271.29926,15.568927
-2362.4578,-356.61908,-720.4782
-4754.819,3805.9016,-421.6925
-4472.021,7787.9155,768.52795
-369.27753,3772.8628,-259.7113
834.9341,1245.12,-270.52094
1076.199,599.6286,-231.09004
791.16644,219.0902,144.3632
1017.4047,272.99725,-278.48575
1462.7897,30.641647,134.03978
1492.5875,395.21005,-66.695045
1190.4852,-180.1314,387.72418
737.10443,638.13477,-456.77924
1453.6311,-378.2851,588.15076
-2210.5466,7421.614,-1839.5594
-6590.504,8717.861,-1993.6554
-848.33966,248.1542,554.16077
-2224.9353,1531.0803,-1232.6395
-1371.8201,-1635.7904,-15.812682
-1282.9269,-1009.66345,-522.447
-842.0727,-2983.3315,-361.0378
-1538.209,-1922.9426,-259.20203
-1646.3337,-993.6461,291.04794
-2201.8894,187.57158,-293.85718
-3544.6284,401.11386,-909.2048
-6905.461,6055.9956,132.5299
-2436.766,5105.4604,736.1576
-12.408426,2206.1172,-373.36157
1017.0525,760.84644,-163.97461
339.80347,507.536,-134.58339
1278.0297,21.41413,-9.147941
882.5217,271.32642,-221.46039
1747.7054,-175.95564,-186.45924
1107.3068,279.5059,-184.37018
1439.498,-171.21194,-118.27601
579.2876,573.8886,318.94025
1410.8364,2858.0896,166.19583
-3403.3071,10239.873,-1471.5319
-2730.9634,3345.3745,778.8418
-1571.3188,1492.7675,-108.306625
-2662.2107,612.6928,-670.546
-2585.9883,-892.3326,-871.79626
-1605.4513,-1255.4048,-940.04846
-1386.1449,-1630.4133,-867.75397
-1410.8087,-1111.221,389.66977
-2542.8958,-158.3678,449.6834
-2056.7004,-502.05444,-611.573
-5569.1973,2926.2927,-437.32574
-4613.5854,8207.577,424.08746
-723.3924,3476.867,-188.60129
1150.1581,1269.5933,-577.6283
990.97327,853.9537,-331.351
1115.2415,180.56644,110.675804
1252.0205,310.42288,-308.02744
1947.5292,139.4452,-84.02128
1135.2368,467.80875,-163.61102
1312.4432,-7.075643,75.27295
600.0676,366.51047,-313.27087
1583.7096,1406.269,139.83963
-3449.8538,10459.436,-2126.9084
-4455.329,4953.3237,-482.1261
-848.83356,768.35693,37.58898
-2273.2227,1110.0605,-541.87036
-1743.447,-676.8919,-329.62335
-1534.4128,-818.6652,-526.1725
-897.3911,-2027.798,-1013.12317
-903.43945,-2075.9639,-1007.4546
-1914.2786,-987.0574,19.207747
-2307.5403,-100.31176,-34.212578
-4373.9453,2488.8518,-1514.7765
-5113.853,8031.0894,726.4491
-1041.2397,4982.5757,199.37288
1298.6544,1211.4282,-474.82315
1214.8088,992.05634,-134.05675
1226.0004,106.25746,64.36245
1045.1615,407.91727,137.24397
1250.1929,-250.12715,137.42903
842.052,359.58322,116.93083
1383.8958,-445.06836,199.22084
714.73486,422.83246,68.34798
1367.8306,682.24005,500.21075
-2037.1979,9114.02,-1770.122
-4409.173,5625.079,-1133.6678
38.82166,-243.66187,199.15147
-1673.905,1148.7067,-464.3183
-1264.9631,-757.34845,-175.99152
-922.9553,-1761.137,-1009.75006
-840.7125,-2490.2253,-943.1212
-1691.4724,-806.9072,-272.26627
-2256.2236,-386.1712,203.78609
-2336.9377,831.03986,-1164.6941
-4417.259,4013.8428,38.502285
-2305.8396,5473.834,228.83327
-240.15076,2245.4675,98.83568
306.0214,1210.7762,97.54399
619.919,494.30548,17.379374
637.3981,534.86053,71.29828
1034.1216,133.274,-50.322933
1456.3835,393.17505,25.320198
1574.6006,167.7715,35.304245
1214.8566,707.0912,-1.6046046
841.8346,553.8465,126.157196
-743.3386,5649.741,734.6743
-3916.18,6712.0894,484.91733
-2222.3416,1707.3381,428.17676
-2070.024,1000.7814,259.34244
-1634.4224,-40.100765,-110.64959
-1338.3192,-612.1938,-636.26984
-861.70105,-1364.8801,-927.7815
-927.736,-1351.7339,-531.1465
-1311.5781,-744.8002,-0.6729663
-1787.3574,-374.61942,-206.29878
-1296.9808,-483.0677,-737.728
-3390.756,1094.5858,418.55804
-4110.055,4807.66,1289.4448
-1697.6283,3680.8206,921.3827
48.34878,1063.1564,473.82477
688.80566,1182.1111,463.82324
1078.3326,696.8774,389.3346
966.1893,648.9556,213.47864
1260.6444,283.72607,177.24272
1331.6847,456.45236,-16.939486
1038.0886,698.38257,-17.681128
246.39404,1420.3667,92.936935
-344.17743,3139.5276,-76.18116
-2615.8713,6396.2603,-166.52222
-2895.236,3768.516,44.985397
-2373.3616,2020.5424,-71.171074
-2114.2744,753.61005,-191.03003
-1687.7589,-150.7275,-299.56995
-1475.636,-978.355,-726.8613
-1227.6566,-1992.042,-964.41315
-1215.8444,-1918.2523,-299.3431
-1792.6666,-616.7161,39.079113
-1462.9899,-351.6581,-576.78375
-3415.2852,2221.4014,-150.87183
-3854.6953,5811.38,737.7093
-1161.6476,4109.8916,386.37137
19.869402,1608.4797,298.25266
426.52167,968.217,71.855385
843.2367,478.2784,177.06436
930.32715,722.752,122.51503
1182.052,244.14214,152.13766
1505.029,598.6835,74.548325
1280.7504,178.50307,328.71194
828.3189,607.74713,-63.19516
1018.6697,788.8743,134.11195
-919.4035,7246.844,-407.77213
-3356.5107,6952.6665,-906.60754
-1706.7646,1298.067,-191.02815
-1572.5411,867.11346,-407.6393
-1514.7627,-324.52008,-334.11038
-1484.8152,-905.999,-737.34
-1255.3245,-1776.9972,-955.2812
-1390.1906,-2009.1747,-611.57086
-2329.3093,-736.5481,-65.075226
-2011.4414,-428.96832,-726.2332
-3691.4956,979.9596,-380.22394
-5565.994,5935.4863,459.2967
-2519.2466,4658.976,-119.0865
-308.61813,2061.0005,321.70566
388.64706,1215.579,113.65152
704.9583,937.0693,112.29427
1043.7113,959.3882,0.2412103
1314.6094,601.5529,158.74028
1854.1871,737.3878,-24.77677
1341.8345,219.73032,167.04184
897.36804,713.3558,-109.93128
800.26416,269.3855,53.37803
-663.57776,7201.897,-701.6542
-4713.1143,9108.432,-1584.7596
-2681.5283,1655.4509,-606.8976
-2703.713,1258.9899,-543.3823
-2497.999,-942.8748,-316.31216
-1651.8989,-1830.2787,-751.96783
-967.4829,-2898.8342,-680.68427
-1520.9171,-1053.3057,-44.1428
-1604.4956,-436.2473,43.307972
-1812.5591,-120.38075,-519.13354
-2944.648,245.13219,-676.8126
-6021.1685,5336.7935,787.0186
-2639.8997,4843.2827,890.82007
-320.08963,2049.076,368.87885
348.02063,1195.7887,467.6383
648.0547,665.2309,313.9652
961.2409,474.4646,241.07133
854.56024,579.5497,145.36613
1622.0883,254.11028,23.551018
1246.0546,479.5875,-35.390327
1165.166,351.75726,-59.08874
590.7214,268.333,-196.50305
1122.9999,2243.7297,227.49117
-2756.5945,9125.587,-854.9454
-3089.633,4198.942,-415.46902
-578.96436,470.66785,148.75946
-1738.2108,965.9804,-290.65433
-1299.4242,-476.28247,-257.99005
-1454.4558,-443.82672,-586.1323
-1528.0792,-817.9421,-795.5154
-1787.9803,-880.25977,-770.43286
-1471.9945,-554.9393,-271.011
-1558.4729,-250.10051,-53.42233
-2390.23,1187.4178,-76.38144
-4067.895,5368.611,849.52527
-1933.9354,6128.034,947.21405
311.0704,1861.2147,223.47623
520.3913,1147.0729,22.44726
660.62354,557.24866,-17.742918
771.12646,468.11743,102.65863
1062.0001,354.7309,-72.89584
1603.9303,344.98245,-85.94782
1195.7599,506.78555,36.841076
829.242,406.98624,-44.869167
1023.2158,853.2433,-97.63041
476.4499,4340.069,-31.17567
-1668.656,7068.2725,-335.5027
-1724.8966,3024.4438,1.5071164
-1181.7699,1156.3351,-70.44395
-1480.5256,474.73846,-209.89395
-1152.3414,-201.12997,-363.69635
-1315.9052,-511.85068,-633.32025
-1339.6055,-1025.9193,-791.98895
-1108.7657,-564.5711,-488.5209
-1226.9752,-101.18823,-237.90497
-1119.1022,-53.067253,-45.98587
-2097.083,1746.7281,114.005615
-3154.862,3868.366,499.3621
-1844.9291,5243.096,175.34875
136.55905,2122.5156,310.8464
352.63138,1454.9677,-82.922844
651.41296,695.4923,30.448439
1084.9286,556.45996,130.58737
1506.8104,390.1163,455.32812
1507.8314,511.03406,135.58919
1214.3585,257.35016,294.24744
709.8903,706.0049,-139.0329
1074.1093,470.4976,17.36019
-1208.5793,6189.6147,-1602.8752
-4261.196,6956.505,-1859.365
-1247.5425,992.50183,-503.73984
-1301.509,1316.0669,-516.2459
-1259.0115,35.15581,-249.9581
-1121.9879,-46.186443,-181.05457
-1558.5774,-855.4763,-607.4324
-1534.9309,-1409.4126,-832.34875
-1431.8335,-1786.0404,-478.11646
-1806.669,-558.8717,190.92343
-1728.9423,-94.768684,-426.31006
-4159.4424,4644.292,-82.87581
-3308.3179,6789.889,864.136
82.55292,2387.895,284.5874
414.38388,1196.7108,-46.298344
878.8917,346.5477,33.702045
980.1444,403.93817,186.91638
1084.6315,352.99762,294.52573
1537.5714,311.35715,322.3043
1260.7977,70.40343,309.09674
1122.3751,379.58264,140.27336
909.1831,64.24137,-15.574122
584.2908,3657.2236,-379.67993
-3132.0427,9489.708,-1696.2665
-2589.9927,3116.509,-504.22223
-1238.7777,1191.3661,-358.44415
-1669.3685,645.9535,-426.02094
-1562.8187,-333.37372,-328.3329
-1488.1328,-686.8059,-616.2964
-1292.6307,-1521.2529,-970.0918
-1312.4335,-1511.2351,-663.1381
-1979.6179,-538.97156,158.50177
-1718.4991,-336.50974,-349.59763
-3319.8984,3096.5134,-51.412724
-3352.997,6316.3584,855.20844
-412.0324,3825.1475,341.89755
310.1443,1462.2079,284.6895
848.14594,1123.229,30.198397
912.231,599.5726,175.7747
896.5721,628.0523,48.75496
1004.26483,214.24385,160.17162
1162.1833,355.908,-94.44066
992.4484,-115.605606,130.52333
729.1567,473.99207,-126.79644
1142.744,270.99316,242.89468
-676.0845,7642.4756,-1497.1173
-3575.2046,7994.9487,-1504.1819
-1009.20215,783.0611,-77.86992
-1685.1782,1349.8887,-764.8915
-1819.171,-784.92285,-477.6661
-1544.2113,-736.09625,-699.039
-1285.1177,-1634.9519,-624.1941
-1564.9525,-884.69824,-260.11438
-1485.7592,-613.6963,56.77409
-1839.9193,-12.858657,-290.09903
-1948.7118,302.52988,-314.90604
-4327.8174,4462.349,-377.9219
-3177.372,6125.469,139.29155
-342.337,2771.027,189.861
424.59924,1168.5286,35.15799
375.284,963.66174,-11.016448
898.5969,416.78366,206.97855
762.7823,755.36115,150.1806
1572.9923,296.66998,302.49286
1274.4873,517.12585,186.60793
1331.5007,-6.2793856,269.6361
555.49286,603.70996,-70.14007
1194.8939,910.74945,-23.072767
-1943.6652,8170.5386,-2295.121
-3864.7217,5905.1553,-1504.8962
-1066.1152,703.7872,-484.53714
-1668.6716,1012.0353,-932.7398
-1361.723,-818.8639,-355.95355
-993.704,-437.94656,-319.5446
-1121.8859,-895.5185,-559.90985
-1255.7721,-1297.3682,-666.3369
-1466.5956,-662.0702,-403.64246
-1926.8567,-174.52827,-39.63107
-2030.2506,815.3754,-250.02742
-3639.1619,3932.5898,-229.01706
-3170.464,5852.1206,340.13022
-84.39363,3505.416,42.08962
640.85626,791.0088,-110.5552
347.78915,1117.2764,-284.04202
862.1347,104.56909,-54.71444
829.8937,216.92299,-148.02715
1413.3428,-215.80525,-185.22702
1415.6438,73.34485,-284.92023
1374.2944,-166.86172,12.065181
648.4939,443.25842,128.05261
1224.3184,1924.9275,202.14891
-2511.8113,9221.161,-3087.6816
-3301.1646,4711.3467,-873.5348
-433.59335,240.20062,-145.03326
-1799.0995,1269.5521,-583.70874
-1171.304,-593.2323,-239.33702
-1490.5963,-516.5116,-547.08887
-1272.7909,-1296.2916,-744.5256
-1284.8606,-1191.7135,-568.13074
-1432.7516,-592.2256,50.027225
-1570.226,33.54051,-119.9605
-2168.6917,1942.5763,-365.6528
-3606.4917,7311.3027,-131.5155
32.371006,4470.107,278.6595
858.41736,844.4867,166.1621
823.1708,1039.964,-213.44655
984.5538,-205.91516,-0.35479307
745.7204,-225.24875,-34.44641
802.0843,117.074554,364.2534
1260.2727,143.94287,603.83453
1490.4374,-41.033157,897.3311
1263.2821,476.78983,281.0916
1797.401,1156.5753,144.76544
435.99667,6557.8467,-320.77548
-1580.3911,6456.7017,-752.07654
-244.9618,1686.5167,-412.66165
-752.06586,1196.1335,-528.7348
-843.26044,499.94748,-693.94934
-1145.395,172.49203,-866.82245
-1638.6547,-519.80145,-810.9577
-2225.4736,-398.5592,-859.00684
-2108.742,-356.06107,-561.69183
-2132.7322,67.15239,-147.57979
-2077.1997,145.92192,71.39408
-4206.602,3600.9436,722.6293
-3255.169,7352.7676,1300.2452
-678.0352,2846.9304,873.7472
369.80798,1272.7896,288.08502
697.5754,765.82697,170.59564
1043.8678,808.6203,166.26286
1059.7083,401.41223,-117.383865
2106.4067,149.73833,-323.05328
1411.1129,223.4563,-202.10811
1221.9839,233.76152,-218.43991
850.80444,175.7453,-203.83237
904.1226,2426.612,192.78429
-4403.9946,10070.663,-1921.0681
-3124.6484,4008.5898,-853.88666
-712.972,651.8019,-396.73682
-2018.0634,906.2512,-382.45816
-1106.4602,-423.75717,-315.06848
-1350.9902,-358.0568,-705.37
-1308.5696,-1188.2422,-759.30994
-1304.5718,-927.0408,-598.1325
-1308.0189,-766.84546,-94.134605
-1427.2969,-468.87604,-146.79442
-1769.7017,142.17513,-183.241
-4139.3096,4264.6406,-143.35733
-2992.6724,7157.7534,131.25523
258.3414,2053.372,345.47186
574.6031,1098.5139,8.01091
1076.379,367.87875,146.32199
1330.2274,641.2672,416.3118
1748.9668,498.46335,514.7206
1421.6815,359.3965,398.7898
976.902,132.93353,163.84808
529.7506,425.80762,-38.101562
479.63727,1843.7784,-163.80478
-1415.7484,7116.1597,-1224.0635
-2321.7314,4953.276,-955.9882
-1262.9027,1431.2673,-495.5538
-899.45654,1006.56604,-456.8654
-747.0025,162.48792,-270.07306
-1575.4857,331.1919,-248.68318
-1427.6083,-938.71594,-401.26233
-1644.0972,-901.6167,-763.1951
-1680.5154,-960.48895,-414.24277
-1865.943,-21.766943,-31.87117
-1925.0626,459.3396,-275.03647
-3765.7275,4813.1196,-180.92012
-2271.1052,6674.0977,167.9655
155.96121,2029.4031,309.80685
621.6807,1433.9066,-142.73885
926.68854,511.3946,53.56791
1002.5461,751.4534,124.606415
1019.287,397.17523,328.39584
1395.3126,151.24855,169.46492
1314.3806,-24.598358,273.57797
1190.1342,241.56328,168.0096
917.00616,85.16522,61.02521
442.4858,3648.0479,-420.1344
-5301.647,10781.628,-2387.9805
-3208.329,2962.6938,-251.1202
-1674.974,797.3931,-318.2341
-2373.1233,381.7392,-633.93964
-1353.7799,-1314.6151,-670.7419
-808.037,-1693.329,-892.61273
-663.38306,-2167.6506,-1016.9121
-835.5211,-1785.7837,-678.26184
-1281.4142,-560.75256,-377.26654
-3392.8655,-410.43112,-629.20514
-6097.09,3137.3467,-1484.1033
-5029.0405,7843.586,83.75679
-980.10657,3443.1526,656.6003
188.17136,1831.4479,-222.49744
715.8101,1068.9828,-291.44815
658.4803,583.6601,-83.02309
1317.6787,548.52924,-165.54651
1945.3899,273.107,-141.03761
2015.8799,228.06013,5.856819
1180.3065,350.13333,189.05406
953.8265,220.87444,10.784899
865.54083,1112.9001,-200.44783
14.70657,6630.5347,-2530.2715
-4228.5215,6451.6436,-2366.3987
-1732.0121,1270.8978,-658.3849
-2210.8005,1478.3922,-1043.3113
-2270.2935,-732.4533,-340.97256
-1535.2682,-716.02155,-502.5757
-1303.7135,-1694.6938,-636.24066
-1152.8584,-2009.8616,-834.60474
-1632.0421,-1262.2098,-44.00094
-2311.8628,-155.24661,-259.6745
-3166.1023,986.61816,-727.49866
-4977.3384,6999.3276,-640.06085
-2195.4343,5428.424,274.9767
329.8058,2466.0513,-301.61978
881.5244,740.7897,-185.46152
635.8828,562.7093,46.64658
1170.6621,-26.10948,189.68704
819.60596,242.64001,40.547226
1751.4935,-272.1725,157.9829
1166.6127,124.83473,73.004105
1288.117,55.869354,233.22258
611.26935,330.46426,-161.97113
1686.6311,1470.1427,163.48901
-3578.7134,10313.439,-2710.1802
-3584.1672,4717.4775,-701.5449
-159.45108,381.93024,-350.74493
-2243.8591,880.99066,-691.502
-1625.9662,-926.04834,-167.11224
-1327.9736,-982.7987,-384.86127
-1165.1592,-1942.7053,-766.7677
-1303.432,-1538.2947,-307.81284
-1990.4948,-675.9729,-112.41869
-2238.386,-254.58119,-265.91187
-3945.1943,2812.5864,-931.64294
-4805.7837,6572.579,-673.71545
-1508.4209,4604.7725,328.02832
312.47183,1318.8341,-21.18833
611.924,934.60876,-567.3159
1083.5914,596.92596,-599.1903
1034.4174,505.48587,-335.77652
1307.4354,-58.23178,-107.751175
1447.0437,351.7435,-24.532242
1484.3329,46.075573,159.92111
878.37445,691.42065,31.372702
1276.3578,-248.2428,-58.175274
48.935246,6319.394,-1469.6101
-4617.7046,9445.936,-1616.1901
-1235.984,1205.5055,-42.684788
-1404.1534,1591.0363,-651.0793
-1925.1622,-715.86646,-768.5862
-1701.4008,-342.89206,-781.142
-1735.4098,-1421.2435,-838.0849
-1187.9722,-1454.6224,-659.361
-1481.6814,-905.0965,-238.24771
-1764.6084,-70.29993,10.297247
-2299.6877,408.62906,-666.17896
-4855.9487,5558.3647,-214.88576
-2716.1567,7051.7607,412.8933
134.65292,1718.979,321.25293
529.2424,1284.1715,-107.5439
918.1113,392.00293,-67.7323
1144.3988,389.46136,219.46762
1269.7194,257.6632,146.1917
1661.0671,247.37044,111.694176
1241.7435,-64.15298,197.85022
864.39905,591.46387,119.07328
907.0551,-186.39043,44.97641
719.0514,4264.4424,-255.21718
-4104.384,10726.595,-1776.5292
-2240.7427,2446.8003,-98.77038
-1379.9979,1124.4441,-252.32492
-1999.1041,-63.33509,-437.90106
-1259.4803,-647.2182,-518.08624
-1345.1036,-1107.3867,-650.97235
-834.8423,-1494.0094,-691.8639
-1211.8059,-848.3744,-366.32422
-1697.3445,-203.36507,-36.533176
-2076.7136,328.74747,282.578
-3279.3044,3293.1191,-205.06262
-3360.1824,5869.2285,1329.7986
-426.40408,4019.1633,492.5794
467.88516,1540.5206,330.82288
572.37726,1317.2252,-171.63585
981.1867,604.5553,-261.1403
1198.2039,511.2131,-429.35794
1118.2583,17.890469,-193.21481
1737.0066,-199.60165,-507.90506
1388.4033,-103.22405,115.88595
881.0266,223.23988,-84.11447
1179.11,82.18258,364.45282
1305.2887,4355.9907,-1587.6383
-3158.7283,9641.219,-2658.1396
-1505.6699,2284.057,-53.4097
-697.56396,976.95013,-630.5332
-1819.8436,361.76398,-448.25354
-1115.7129,-945.1475,-434.49692
-1312.8348,-619.0635,-662.22375
-2066.5674,-1252.9064,-910.65216
-1473.6066,-563.11774,-325.59146
-1833.7357,-220.62888,-149.05511
-1895.3688,918.1834,-526.28534
-3705.8682,4819.0215,-263.0557
-1829.3683,7201.968,175.68204
388.7709,2277.2495,215.87798
719.9927,1107.2981,-39.948036
995.1823,357.04333,57.999714
1010.8607,201.6845,56.493176
1041.2487,209.94075,280.17636
1361.4564,159.29832,300.43256
1250.1559,-156.40494,615.64606
935.9212,161.03177,171.73988
1066.6527,-112.66637,337.0835
340.09036,4327.427,-708.3715
-3845.8892,9142.132,-2358.7292
-1253.5458,1557.5107,38.708076
-482.98105,1116.4591,-488.7973
-1169.7158,485.08142,-60.629204
-993.23914,-300.8537,-314.27664
-1097.8243,-655.4369,-362.2063
-1200.6017,-1150.3357,-720.7546
-1251.3779,-996.94275,-261.2864
-1810.5223,-230.67084,-69.776344
-1696.1826,-249.48367,-370.95224
-3136.0854,2749.7937,-393.2014
-3213.8054,6270.6313,73.840324
-579.2477,4117.7803,125.53407
444.61926,1387.4172,155.06532
660.5884,1062.8237,-140.93915
1054.1024,422.6439,177.08528
1109.2815,654.85925,98.125755
1664.7837,213.06136,423.5549
1618.2697,399.1313,249.98503
1127.9941,74.06824,484.43372
434.19095,412.69217,-32.83732
1233.3099,663.96313,-86.54977
-1751.9165,8656.742,-2171.0127
-4079.8784,5944.9644,-1451.2499
-582.0433,563.78375,-458.89487
-1569.4308,901.7892,-571.63916
-964.8534,-637.7153,-243.43521
-1180.0676,-307.11154,-336.77747
-989.5383,-1472.4418,-615.13934
-1289.1315,-1206.7922,-602.64233
-1540.5273,-919.21875,-271.962
-1897.5077,-70.622345,-253.59875
-2378.2454,168.1469,-514.40924
-4689.215,5760.4746,-565.4629
-2328.417,6527.354,80.33631
73.731544,1766.2595,341.59445
697.7141,1205.2485,-90.39622
862.2543,181.8101,149.52394
1302.4852,428.82324,180.4575
1137.9689,274.97293,414.30978
1548.1106,269.6187,283.78223
1036.6193,-23.24604,467.86945
863.22314,398.79492,257.50894
579.5807,35.287987,117.121635
521.85895,4431.711,-2031.3138
-3862.158,10312.256,-3502.0874
-1680.7787,2096.1377,-1706.99
-1387.4532,958.47614,-1292.3691
-2093.4934,-245.69241,-565.8203
-1534.0255,-584.13586,-109.4523
-1262.3654,-1067.139,-183.84813
-1036.1665,-1331.3246,-524.94855
-1088.3302,-1258.4631,-105.00385
-1845.7709,-253.13312,-191.57875
-1933.101,-825.05096,-371.71146
-4121.737,3024.6877,-1644.7493
-4291.8975,8009.569,-927.65155
-522.7094,4417.486,-55.75773
786.142,1415.5405,-465.6195
1283.0763,553.84564,-159.87798
1347.4241,-35.629887,107.277016
1182.1389,397.68304,142.31378
1236.7156,126.73729,153.27516
1130.4377,282.22253,119.65463
1007.0849,-120.31063,233.98181
539.87177,289.14606,11.353474
1344.7352,625.97284,-48.957676
-954.56836,9246.846,-1916.2135
-3575.2954,5916.713,-1607.8695
-411.56784,290.06592,-566.6078
-1424.8462,773.22394,-918.04456
-871.99524,-807.7387,-284.5892
-1213.4514,-15.347534,-399.3154
-1217.3076,-1155.0515,-787.51685
-1593.009,-1029.5968,-951.937
-1844.4303,-690.83185,-383.72144
-2184.5732,13.325549,-211.37872
-2065.706,1777.3972,-620.01044
-3427.3027,6531.244,117.262314
-930.9957,5736.032,173.93301
787.2674,1440.6554,59.024197
526.43384,789.6084,139.71822
615.16876,44.223392,95.97108
710.90063,-128.81917,159.4062
721.6085,-166.63539,122.89763
1179.5134,-107.43147,85.80304
1095.3186,-397.6619,222.81746
1001.103,61.261024,115.58878
977.62274,-165.25854,135.01668
1201.3024,4317.025,-1054.9763
-2733.222,9402.511,-2233.157
-884.3342,2124.691,-585.8076
-761.8924,1090.4994,-415.78488
-1712.3104,401.32755,-127.86461
-1563.4824,-260.98697,-338.7011
-1525.3545,-664.2821,-509.18362
-1539.7388,-1298.1262,-793.5295
-1298.6959,-952.11194,-100.95631
-1750.5521,-172.6637,19.388325
-1769.3602,1009.9155,-411.5512
-3001.554,4517.9316,-530.8533
-1745.1797,6442.003,-39.241257
184.08936,2655.9468,113.30707
722.6071,1072.9927,-282.02377
928.01117,874.7271,-274.2741
893.738,106.257706,24.269958
888.13617,394.7471,47.708275
1418.7832,-181.20152,107.396225
1410.3218,-49.07927,130.27429
988.8592,-63.398903,241.81639
1023.04803,205.35718,29.077175
1433.1951,2905.6475,-397.94342
-1758.7565,8842.842,-2445.7703
-1680.6013,3476.2688,-485.41574
-649.3249,1048.9092,-781.63715
-1820.5753,244.10236,-700.6247
-1696.0618,-771.4009,-555.69495
-1382.2634,-925.15204,-609.79395
-1111.9612,-1059.0117,-604.31836
-1131.6974,-769.8411,-117.08177
-1885.4042,-397.3381,-44.650654
-2155.3691,379.5596,-432.21692
-3814.174,5117.944,-538.7018
-2675.9067,6338.6895,628.9639
-96.347626,2328.1724,48.84498
648.96686,1224.2263,-32.055267
579.2244,553.6508,60.05773
821.3147,461.56696,170.22202
783.88306,430.29388,38.054173
1181.7246,53.65887,199.20874
1299.5936,197.86691,42.74089
1112.6616,-33.109127,251.16383
790.93616,205.24495,-92.54325
1229.2512,1613.792,230.89905
-1718.2412,8063.9697,-1989.688
-2396.2722,5260.9814,-498.38403
-964.39435,895.17737,-76.475876
-1661.3376,821.00226,-313.7017
-1667.9165,-553.6416,-282.45282
-1375.2811,-900.72614,-450.61108
-1440.7792,-1100.6948,-431.66046
-1025.8268,-1086.7753,-132.67896
-1402.0009,-340.8297,46.511345
-1575.5015,-211.48453,-508.6712
-3180.8865,4137.25,-406.32367
-2571.8286,7176.981,117.227
150.78212,2904.002,228.95485
632.8358,1076.1775,-323.99155
1188.595,390.10538,-201.35101
958.49023,26.130266,-76.969055
974.59625,-34.758316,64.8987
1176.0792,-127.69954,140.2694
1305.129,-19.128027,238.70409
1036.7806,-20.212578,183.23187
814.1858,108.40631,289.9501
835.9065,2724.8389,-447.88144
-3054.0503,9469.09,-2521.6624
-2456.7097,3243.6526,-601.3959
-315.07535,605.5203,-586.62445
-1460.5787,566.9062,-477.134
-817.58124,-517.071,-292.34262
-1204.4669,-396.43854,-216.23962
-1101.5223,-827.4598,-664.9115
-1392.2589,-883.28033,-468.4688
-1525.5885,-299.24448,-183.41399
-1887.3065,-232.9538,-70.96797
-2127.2283,1358.3635,-189.47865
-3578.9534,5125.3164,-349.21658
-1050.8925,6657.405,-688.07935
728.07446,1405.5464,220.39093
603.5074,836.39966,-515.73676
978.6103,-87.13385,-124.65453
926.4473,-362.05457,-416.677
1019.14813,95.21217,44.677742
1425.474,177.8411,-128.1037
1141.0677,-368.7607,384.25522
1324.5474,120.28253,-270.95273
1136.2157,-139.41757,472.4277
938.22156,2931.9136,-1446.6013
-5235.382,10523.75,-3336.4534
-1051.8224,2205.3347,-677.04333
-277.22177,492.54404,-889.2467
-2001.509,-344.10364,-452.66904
-697.9464,-753.6044,-374.4938
-1376.5062,-861.93665,-502.80472
-1182.6716,-1416.4658,-247.32768
-1811.3759,-1240.6721,-254.13696
-1817.034,-494.60608,-224.70927
-2075.7063,602.9653,-475.02237
-3904.9531,5254.444,-807.78143
-2044.782,6695.1455,-187.64787
481.64038,1652.0092,-15.59445
542.1877,1171.4775,-331.36917
818.72345,-91.896706,64.23636
1107.5087,480.26773,-112.22527
1378.8453,-32.41257,196.47157
1387.0573,210.89027,-100.71655
1369.3604,-353.67944,233.26443
1026.3013,452.03073,-187.16486
1121.6901,-298.91223,259.0182
328.28488,5193.443,-2881.2979
-5141.398,8505.668,-3889.7502
-1120.6895,1539.167,-940.35815
-825.8778,747.84503,-951.9299
-2006.698,-81.74946,-417.03897
-1166.8522,-528.6347,-343.85117
-1685.0156,-824.8956,-403.86444
-1472.4718,-1340.7664,-530.1333
-1749.5804,-1019.9196,-150.98459
-1711.9242,-459.7564,-124.362076
-1722.6473,367.70233,-331.10382
-3405.5188,4004.9924,-575.3488
-2859.699,7138.2227,-199.11131
20.02842,3082.0828,41.805267
478.84653,1045.0819,-356.83047
834.3089,569.3372,-203.11711
958.41486,106.08719,-141.1324
1089.8971,272.39883,-116.09313
1584.221,105.14937,-169.80026
1723.2122,-31.398058,48.721287
1060.0211,246.38287,223.94238
868.65125,215.0429,310.68063
1220.6238,3022.0176,-1116.0887
-2678.6836,8839.736,-2925.975
-2286.7737,3952.765,-1094.2809
-1221.1737,1281.1354,-1016.0394
-2166.8318,252.56,-845.7696
-1248.0443,-1007.9229,-386.07956
-1676.7072,-745.68054,-252.91278
-1366.0768,-1342.9872,-128.81265
-1293.9545,-731.22314,-38.78735
-1644.6956,-674.43225,-79.594444
-1571.6018,-162.05052,-215.97954
-3097.8513,2825.9885,-269.3616
-3717.6133,7383.8047,-336.50986
-141.48576,4569.578,80.81395
390.02408,1160.3414,54.2508
436.06067,869.3888,-81.67245
1044.6527,-200.023,-210.46823
1087.3015,-164.06361,-265.9141
1048.5054,-163.58755,-236.18568
1023.0105,-58.96861,-221.78117
964.71234,-236.50221,-152.94373
805.66864,229.15749,-106.37633
1412.4636,1091.296,8.564332
-704.0192,8999.123,-1436.6506
-1653.2046,5660.406,-614.9686
-567.2307,920.115,-43.472095
-1846.8627,969.0229,-393.8634
-1496.7549,-1298.7205,-501.34756
-1752.6187,-807.4591,-675.3804
-1533.9275,-1245.4565,-426.39676
-1573.659,-562.91,157.81812
-1827.23,-192.13196,-3.3247006
-2161.7178,-44.72212,-611.6058
-4237.375,4132.482,6.3383446
-3107.0854,8183.8286,-71.31897
441.51385,2178.2117,243.0553
336.92926,1119.5494,-193.66008
1033.8652,80.32529,-25.186493
807.28796,269.33102,-60.61514
1083.9359,92.91964,-11.612322
1121.5676,306.21896,-212.0318
1335.4313,-146.38213,168.08539
960.25446,340.302,245.79413
987.66345,134.6548,427.29044
1235.8142,3249.495,-460.95105
-525.78064,8059.7476,-1382.4906
-1515.1427,3612.722,-611.9272
-815.8607,953.82745,-684.9672
-1422.6243,866.08264,-544.68164
-1227.1976,-508.7016,-335.6647
-1598.2283,-229.67084,-272.6605
-1670.1252,-687.8748,-323.43896
-1625.0756,-135.30925,-291.3407
-1599.7137,-357.63126,-31.67016
-1760.5734,498.04108,-254.12602
-2436.988,3181.549,505.33887
-2534.1687,6335.902,676.90063
741.56274,3734.5505,47.213707
1077.9703,1475.0199,-46.339573
838.51056,514.4861,-9.388867
733.61523,169.73782,67.73303
744.55817,56.95049,311.80624
831.40234,27.195776,345.48285
1313.8622,-186.6434,462.09955
1100.9685,-27.063059,423.0635
889.33276,-66.62343,302.68005
1118.5587,1984.7306,31.322844
-1768.1868,9515.836,-2487.7222
-2417.9724,4318.0664,-1431.989
-117.644264,285.849,-918.8117
-1503.6454,751.81354,-662.37524
-1054.708,-647.1768,-511.42084
-1390.6168,-436.07007,-332.9835
-789.9897,-1351.8977,-460.9131
-1195.7421,-1085.2279,-355.8811
-1503.3059,-1042.0535,-189.9929
-1926.6108,162.47366,-383.05325
-2048.9214,66.2766,-615.47675
-4687.3877,6468.3945,-1065.7969
-2359.493,6627.79,-61.747524
-114.49891,2002.1727,-79.04053
1245.2396,769.2922,-635.54724
808.3312,445.34695,-76.08078
1051.3518,235.16396,73.45244
895.6696,511.4847,234.17514
1535.0914,-49.153404,197.49538
1067.7712,101.46436,181.36671
1335.2579,-260.93823,-68.01409
733.14844,189.29099,-15.814355
1735.9901,1634.4366,-554.7807
-2117.6824,9726.875,-3454.1514
-2900.9712,5147.034,-1554.7933
-534.93176,964.04535,-1039.0836
-2511.6313,592.26587,-731.2714
-2427.5376,-769.89954,-670.98615
-1866.9702,-901.2501,-734.48737
-1880.4772,-1788.1077,-712.22076
-1287.4778,-1435.5342,25.00308
-2107.955,-161.9782,-6.2527566
-1833.3961,-191.78798,-584.176
-4693.785,4150.169,-591.5215
-3593.876,8600.089,-686.68335
434.56204,2914.336,-417.9059
610.16846,891.17236,-268.85663
881.2355,267.0308,-131.30083
911.56244,431.20142,-13.95499
919.7135,365.83035,-184.51324
1314.6532,-155.47968,-139.85408
1286.173,258.4841,-151.16745
1185.0259,-236.6591,1.7382293
785.75684,258.42368,-121.39421
1498.564,845.0793,-400.344
-960.342,9048.577,-2507.369
-2758.5027,5899.6284,-1566.854
-736.557,411.67487,-529.6255
-1561.1053,797.8731,-471.75272
-1473.4644,-682.2218,-408.89435
-1565.6826,-479.921,-420.10056
-1594.7382,-1091.8584,-412.11755
-1393.0603,-1161.2152,-45.409935
-1734.8159,-599.0542,55.188046
-1884.3035,-421.15738,-266.03647
-3306.9075,1855.4636,-930.9661
-5018.7334,8420.349,-219.13837
-911.95685,4808.207,-222.47412
592.11285,1095.7129,-250.8152
555.852,474.7272,-117.47756
1046.8354,10.588202,-86.1005
1121.0233,381.62643,-223.19437
1407.2997,-120.24045,-123.70635
1733.713,307.89337,-86.15253
1243.0891,-210.19,202.83115
1075.1992,463.33725,-214.38235
1018.09937,-609.04877,-79.42388
963.9657,5097.608,-1703.6538
-3285.3977,10600.151,-2155.8425
-1599.417,1771.3193,-663.4722
-1524.3566,1275.6249,-397.08072
-2015.4316,-289.20703,-210.196
-1194.6604,-458.13947,-415.10815
-1465.394,-817.244,-466.12048
-1207.3043,-1217.3552,-378.1505
-1163.7362,-925.8535,-120.90139
-1326.7406,-410.80658,-70.50486
-1453.3619,0.5325902,-183.7836
-3338.3232,2530.634,-554.44403
-4164.133,7759.8623,-227.37488
-769.4889,3897.7559,395.74548
220.74521,1130.1644,-332.46524
1336.3315,551.4657,-263.91583
1339.2277,-122.359825,-19.655079
1158.8353,220.3407,136.03094
955.884,121.51545,163.89714
1080.6881,-131.03464,122.56666
