# PAMAP2 dataset (wrist-mounted sensor)

acc_x[mg],acc_y[mg],acc_z[mg]
835.75323,119.02484,197.30696
1018.2774,145.15562,85.154915
1571.4025,3225.4631,-729.1313
-1246.8243,8514.351,-1305.4163
-1617.5638,3816.3047,-466.19626
-550.39075,1047.9685,-646.6607
-1406.2148,382.7384,-700.6728
-947.6934,-268.17532,-385.50964
-1701.0675,-170.07239,-462.14905
-1407.802,-991.08716,-567.24756
-1492.9,-471.812,-513.14764
-1370.153,-603.5016,-161.69397
-1820.8821,-70.10995,-169.18227
-2161.776,1236.6227,-523.909
-3674.8352,6585.948,-403.7126
-1140.9929,5860.5967,228.65504
186.00093,1667.906,162.33452
653.9835,951.3041,-126.673836
724.11115,62.433403,-94.91449
1006.64044,189.39201,-61.10703
1029.6669,195.94093,-84.19931
1720.832,-159.62398,-193.44304
1212.8177,-45.75193,43.205452
1171.3915,83.55649,-12.584515
1033.139,-8.325996,95.54229
1534.9565,2524.3567,-9.627041
-4051.7935,10706.115,-2669.1584
-1958.7756,3482.4824,-366.20175
-325.2029,482.84326,-953.0551
-2240.3467,297.58768,-655.2108
-1732.7073,-748.4609,-639.216
-1545.3085,-464.1412,-706.2362
-1389.3326,-1450.9851,-777.9828
-1441.3389,-375.68964,-106.271706
-1397.0896,-152.55267,-135.26576
-1071.6917,1122.3156,49.760487
-2440.6055,3595.2869,342.92755
-1972.9515,6640.672,320.9795
-71.05288,3144.9375,50.061253
1038.1274,422.29514,-310.88846
865.52563,367.18387,-315.80798
1001.2408,-154.18211,49.41036
582.78894,14.692902,-88.26631
1130.1654,-288.75455,-37.016407
746.5763,24.713451,-21.495758
1169.5446,-370.37756,177.1199
740.8117,139.96593,-131.85606
1904.4369,1235.2499,325.8387
-1512.0328,10075.176,-2571.647
-2342.4204,5555.442,-1030.6665
-236.69765,452.6068,-430.89832
-1927.3575,1017.84674,-718.94086
-2068.7014,-1279.4401,-484.50198
-1201.5009,-1666.4713,-338.43823
-1330.7466,-2142.053,-184.03938
-1924.7803,-447.94885,19.25516
-1817.6461,-181.26332,-436.81802
-2617.4446,450.9396,-582.7457
-4495.185,5790.893,-233.25156
-2105.6873,7048.638,60.65469
322.1793,1800.1072,106.039986
448.4513,1105.4349,-181.45323
870.1815,147.16524,-109.88839
1194.559,320.98764,-74.89803
990.1977,23.948156,63.926384
1353.7902,294.2278,126.25735
1309.9128,-128.54706,513.1223
1181.8944,438.19653,573.3114
939.2879,-445.16095,66.22992
1284.9688,3663.3196,-694.2436
-3470.122,10291.129,-1906.5122
-2231.273,2004.4584,-410.65662
-501.0968,781.4197,-534.97974
-1479.5183,249.48703,-406.67517
-977.5082,-389.9427,-272.27628
-1155.215,-262.18427,-255.64299
-1331.1133,-936.4115,-608.8348
-1465.5447,-1026.8817,-634.49786
-1818.9534,-571.66754,-425.7073
-1726.9275,240.86115,-154.82666
-3141.9175,3181.1191,-375.02332
-3183.7378,7312.2515,266.0124
-235.2493,4236.4805,290.57858
752.08875,430.80646,161.84131
521.6446,940.3866,-223.84924
1093.4503,-355.646,29.77721
831.929,12.787539,-224.7193
1090.9022,-416.59918,99.57189
925.73895,61.227825,-83.5877
1040.8898,-572.6386,391.80902
647.85443,441.8777,-94.37786
1537.2404,-85.454445,498.4883
-633.25757,7316.624,-2020.3789
-4444.9463,8913.74,-1932.1768
-1288.0801,370.40436,96.30314
-1595.2775,1203.6595,-794.2916
-2001.5402,-500.28128,-319.37424
-1394.0596,-1017.6167,-547.72455
-1393.5374,-1348.3236,-667.79816
-1120.2375,-967.4122,-391.7109
-1194.0452,-799.98206,-13.832477
-1393.9016,-464.32227,-199.14877
-1861.74,-114.63761,-271.26962
-3965.745,5098.2163,-29.104452
-2743.335,6682.784,911.4085
-47.549862,2289.997,264.3715
778.94324,1220.1022,-244.8299
982.1208,310.63272,-147.64496
1194.0862,332.3667,22.369686
1228.4376,34.374588,82.97078
1364.923,53.3349,14.418795
1088.4355,-38.524742,170.40977
712.9265,279.62048,-40.636772
912.67303,-73.342834,67.15751
560.61176,3616.364,-406.6364
-3218.072,10326.299,-2042.6735
-2567.9436,3548.9531,-279.0962
-1446.9972,1139.9471,-640.4289
-2279.5364,621.70844,-318.96207
-1562.005,-885.46027,-216.06544
-1566.0444,-708.04785,-456.56778
-1186.4386,-1414.6865,-483.1561
-1195.1768,-605.623,-51.20748
-1152.7836,-635.9579,19.214794
-1407.6494,41.90152,-337.13025
-1628.3759,-125.423294,-363.20877
-4446.9575,6894.985,-325.53925
-1795.5184,6951.1533,30.300463
578.7925,1555.4645,-48.12171
465.32898,711.1585,78.88854
683.6533,-205.62186,140.94075
1092.6271,-312.90073,79.144966
741.84607,-317.865,225.08003
1237.8939,-464.7309,392.91742
886.67017,-287.45804,368.70132
1167.7941,-239.8243,144.85832
846.0008,-43.328632,-8.461683
1659.5242,1665.9696,-36.39702
-2527.2146,10231.184,-2180.4014
-2277.026,4513.4424,-815.26514
-607.718,416.27402,-503.09424
-1804.7944,417.0631,-265.8317
-1085.0265,-733.5953,-269.73672
-1204.9459,-660.18884,-407.14264
-1153.0419,-1317.3539,-667.46375
-1263.6434,-1169.6,-340.34085
-1839.5135,-429.42627,-97.952286
-1958.4487,138.9024,-221.37741
-3395.733,3088.4553,-917.9932
-3597.7434,7260.596,299.88086
-469.79175,4077.5107,352.59073
926.1832,896.12616,-121.02619
844.0301,951.6052,-253.561
1521.089,-153.62805,53.553207
1025.6138,302.84814,76.95419
1389.2283,-159.06781,269.14914
890.7606,181.2996,59.96929
1024.2277,-435.05023,315.61273
456.16794,422.1743,-123.79511
1753.0914,271.0505,324.94647
-2826.4104,9559.503,-2595.668
-3909.3848,6180.4043,-1473.3093
-151.26157,-42.95706,-329.8573
-1712.8275,1126.878,-687.827
-1254.6696,-778.2243,-274.15323
-1186.6473,-510.60794,-467.59402
-1149.4335,-1178.8745,-542.96936
-1202.2349,-1174.2008,-595.801
-1266.0134,-789.9417,-316.27405
-1658.9818,-428.52002,-401.5621
-1828.2543,380.67865,-136.68456
-3498.9966,3926.0662,-974.56213
-3132.9697,6877.1826,-1630.2513
-491.8171,3621.1487,59.37873
707.5442,867.9406,-467.2645
1058.7556,935.6399,-575.6971
1105.77,51.415966,-449.19894
1450.9436,-345.83975,19.023022
2037.7019,20.328989,5.1678996
1488.8098,-142.69266,723.96106
308.2977,506.8668,285.28818
1636.9406,99.40819,600.6316
-102.88731,6206.663,-3158.053
-4722.346,9152.222,-3056.013
-724.85785,783.66406,-280.5647
-1527.4397,1284.2286,-1196.5597
-2266.768,-666.965,-203.4479
-1293.36,-1364.3201,-493.3144
-1391.3527,-1673.3438,-313.8053
-1328.6956,-2020.5635,-568.35846
-1934.5605,-1213.1324,103.245735
-2246.5808,-211.22092,-465.8894
-3327.9736,834.9982,-381.18613
-5994.619,5239.323,-1968.0836
-4676.9707,7391.6074,-352.867
301.28464,2689.367,-377.805
1147.143,1094.5536,-1008.069
1543.7717,367.0256,-89.619736
1594.053,-211.9603,-86.40882
1935.4434,-99.91267,218.34158
1215.3652,320.61362,104.48752
1051.5969,-340.54404,227.7769
413.149,400.11874,-197.03229
1377.8147,-546.9342,11.318461
-811.69183,6944.783,-3029.291
-5247.4106,10963.762,-3574.3975
-1680.795,1298.8488,-1431.3478
-3038.0376,1468.2812,-1017.68494
-2281.7727,-1061.0598,-296.22034
-2599.33,-889.7673,-161.25024
-1143.9801,-3500.6558,221.31067
-1541.6412,-1644.9532,-63.379955
-1867.1584,-134.80554,-54.425674
-2079.0984,241.08482,-455.9285
-2525.781,-442.86603,-711.7819
-4943.559,3641.4204,-1656.4537
-4692.167,7183.5786,-1296.1562
-677.5021,4494.907,-1139.778
393.0209,1008.9982,-233.16718
982.57904,974.85,-313.49722
1132.5415,122.6047,21.3754
1264.5032,508.21143,-53.818314
1293.6241,-35.60769,306.8369
1428.2944,405.77658,108.28159
1290.0931,-393.76443,490.4586
1190.2913,521.3136,-144.43121
1134.9713,-817.29645,183.99272
619.94543,5710.9375,-1399.1091
-6082.3887,11132.127,-3237.7546
-1841.7164,1419.0958,-850.71106
-1651.3463,1023.7232,-794.7067
-1824.5914,-132.20958,-374.431
-1426.1199,-330.8191,-65.70782
-1403.2639,-1686.3328,-408.36798
-1503.3362,-2055.8293,-914.83057
-1512.7771,-1753.8795,-301.34576
-2363.1038,254.23093,-177.18898
-2100.4097,-136.65186,-1190.1044
-4374.06,4925.0596,-1700.9597
-2996.2598,8021.2197,-803.0223
3.193279,2630.577,-392.0292
876.86743,1147.0713,-217.69595
455.95987,350.7041,-128.25952
936.6947,-26.108963,-103.25678
998.0448,466.34235,-126.54279
1764.6349,203.28363,189.61931
1316.3126,171.51266,131.22089
1293.1176,138.06447,159.2958
460.09778,176.9137,-87.29047
1686.6943,1612.5092,-730.15326
-3493.8628,10836.431,-3507.3042
-3451.785,4352.0986,-1108.3442
-700.34625,84.771736,-708.2646
-2448.4177,603.3078,-296.11557
-1655.6777,-1028.607,283.99344
-1276.7421,-2198.3555,548.617
-1195.2997,-2119.9602,223.99113
-1392.755,-183.52295,173.63724
-1502.3561,-501.59174,-254.17664
-2409.7144,-409.23752,-831.345
-4726.37,5093.8486,-1284.1357
-3193.9746,7720.737,-405.1706
286.47278,1912.4717,-276.05542
510.01672,1162.201,-201.8683
960.3903,81.186134,-245.14052
876.53876,189.26392,-56.85234
910.89545,-201.29852,-289.42447
1149.1342,195.79018,-23.897799
1288.6111,478.74133,15.16584
1106.8573,426.65787,472.33423
706.54395,-95.97488,-273.47748
1632.3333,995.79395,68.548355
-1322.8671,6019.382,-4320.714
-4807.853,7543.566,-3084.4556
-143.32188,443.1737,-689.4286
-1196.133,422.0371,-1437.232
-1302.8937,-347.1411,-268.82904
-1587.9076,-631.8616,228.72014
-637.8641,-2729.0505,656.4117
-1540.2523,-441.844,-77.527145
-1494.0654,-253.33794,-190.4365
-1922.8999,-598.4784,-542.20233
-2568.2183,1027.2987,-1037.5957
-3932.1042,6737.861,-2295.91
-1212.0895,5651.9966,-924.64185
467.64328,1845.1405,-713.2007
844.8208,600.56244,-205.90031
841.99567,340.71524,-323.10184
1065.5359,-177.76491,135.12103
654.24524,365.72946,-143.74042
1300.4155,-271.50836,230.26314
1009.2049,212.2344,-56.909527
1210.9438,-403.41086,399.7137
633.7616,585.8045,-290.0628
1834.8108,-363.50192,586.1014
-758.4983,7807.5796,-1824.4791
-4190.997,8494.95,-2019.9121
-337.403,155.00911,3.157272
-1318.5667,1147.1984,-971.4231
-1774.8389,-615.5501,-74.94099
-1305.1084,-920.92413,-357.68588
-1093.0674,-1380.7324,-426.39313
-1070.6202,-1300.5706,-589.26697
-1471.5806,-868.8982,60.462624
-1652.972,-646.92126,-687.9558
-2834.115,639.97205,-408.67828
-4621.0435,5152.494,-3061.1348
-3039.9856,6967.305,-2963.023
379.16867,3219.2847,-1294.2502
1393.1841,103.62576,-1149.6649
944.7297,136.9984,-396.91513
1290.013,-326.12054,-436.15366
1646.512,-261.8479,-69.67574
1951.5938,-39.304836,-184.23383
1205.411,80.22243,445.7133
407.06265,-30.195116,481.71777
1545.5748,293.668,-526.9216
0.6322344,6053.1016,-4541.8457
-3922.4524,7317.702,-4076.623
-337.5956,541.57996,-1590.301
-1368.0527,401.3228,-1017.40784
-1210.9773,-529.28613,-390.32166
-1329.1431,-212.44905,-142.23787
-1413.6373,-1079.0247,-157.54655
-1474.6033,-1192.7622,-345.75006
-1418.166,-1250.371,-392.6558
-1813.2727,-242.02318,-366.49432
-1704.7375,-192.88199,-230.37064
-4291.5327,4426.3345,-1369.7877
-3309.8862,7686.685,-1130.2034
83.71892,2845.7324,-515.6061
785.5674,832.44165,-324.4686
1023.4395,208.3998,0.9699194
968.2294,114.50754,-22.727318
876.6281,286.0507,115.55516
1438.8619,-181.50227,74.55187
1222.083,118.853516,183.3739
1114.6672,-192.90337,125.711655
601.326,273.02402,35.041428
1325.0724,971.1537,-533.2887
-1696.5952,9258.992,-2670.2842
-3525.169,5616.8354,-1956.2893
-411.18472,404.09274,-633.03595
-1804.5428,874.1359,-445.8154
-1280.944,-529.5169,-343.5584
-1297.77,-605.35986,-197.20532
-1227.1357,-1646.6611,-406.24664
-1318.1648,-1200.0894,-212.29457
-1682.0851,-665.23895,-133.29274
-1763.0968,-305.16745,-194.5962
-2633.6694,1805.3043,-633.58826
-4214.3745,7084.1826,-917.78314
-694.7259,4920.483,-318.3775
1041.4506,934.72375,-394.75354
1089.2391,644.9852,-37.01429
1170.9426,120.68856,151.5192
1271.896,407.92108,438.79486
1208.0573,125.99047,558.05316
1037.8518,261.21783,324.97604
808.3092,-244.14175,240.05989
504.4358,209.60835,-107.68246
994.2927,473.66678,-5.6368413
-1668.8232,7587.862,-2253.5708
-3607.3313,5517.65,-1708.6952
206.4512,682.7264,-442.83722
-1206.6055,1300.9318,-227.03842
-1068.0472,-212.40837,56.892494
-1412.3904,-138.9892,-225.60693
-1472.8608,-1223.0934,-600.9086
-1357.1414,-1924.7509,-554.1653
-1388.7228,-1240.6709,78.03615
-1594.8269,-370.68808,-130.39397
-1459.134,597.7385,-554.10175
-3913.889,5693.8193,-1115.3549
-1860.2185,5878.2134,-616.31903
459.2198,2131.221,-353.86716
569.5158,757.50085,-132.61511
974.34717,412.57083,-42.204777
1091.6045,466.2173,58.567444
952.22144,241.48692,240.03488
1141.3927,224.6436,221.78838
892.8626,-33.831272,256.25137
790.5132,286.9457,101.90083
911.7816,192.12889,-125.076065
313.36374,4999.587,-2565.947
-3636.668,8032.474,-3325.6267
-1432.7047,1789.6442,-1391.0651
-2008.3334,1219.1321,-734.8005
-2255.6956,9.7088785,-374.18887
-1645.2072,-498.10162,-402.43594
-1276.9233,-1628.9861,-462.28098
-881.991,-2108.5593,-330.9644
-772.0436,-1473.4855,-111.316536
-1616.9161,-350.62863,-525.7349
-1068.6545,-383.58035,-287.39673
-3136.89,2100.4033,-950.9893
-4780.3794,6148.608,-1787.9518
-2065.675,4504.2725,-3.4646056
21.822744,1518.7542,-313.69238
574.65094,1093.2888,-276.9492
1158.0385,364.48138,202.74765
1143.406,705.685,410.22357
1663.8932,363.11423,405.9875
1387.4099,455.94284,334.00333
1064.097,481.6022,325.5532
613.93024,453.88263,-13.072768
875.82477,2312.7363,-1442.3832
-3714.284,7643.86,-2983.099
-2936.3381,3223.4817,-1577.6665
-1351.0741,1497.0048,-1463.5133
-1935.2098,422.5943,-792.208
-990.8194,-344.92935,-446.31885
-1502.7417,-1101.814,-432.56165
-1133.8746,-1982.287,-665.3094
-1250.7971,-2350.445,-589.15497
-1626.4861,-907.7831,-460.91455
-1787.5317,-967.98193,-230.40178
-3033.1736,1048.7205,-191.58107
-5917.256,2622.41,-923.6779
-5401.033,3720.0972,-353.4335
-1078.8157,3045.9866,2.8076866
27.989748,994.203,-166.44957
499.56323,1252.1407,348.6417
1257.8639,816.14526,232.82655
1559.765,655.39545,643.4277
1743.097,895.8554,504.1019
1127.0212,626.6399,364.85904
829.1391,721.15015,-132.23776
660.6756,141.41869,-177.99297
-81.67461,5100.55,-1392.4037
-3040.368,9440.354,-2703.1362
-3560.7937,4676.0117,-2170.6528
-4386.377,2317.1812,-1501.6604
-3244.4663,-291.1228,-624.5082
-2537.7363,-377.76273,-424.71786
-1478.7668,-1660.0416,-342.8496
-723.2139,-1897.2947,103.25879
-1160.0724,-1251.1304,293.77182
-1414.0297,-553.89777,-288.65372
-1243.4159,-623.98474,-433.17926
-3027.1348,1391.3329,-500.44366
-4516.1235,6985.9863,-1391.7084
-1659.0597,5345.1787,-370.58475
63.14483,1537.4652,-30.841383
373.30862,1034.1614,224.11734
619.497,281.96487,330.07373
926.1084,445.03903,300.0286
1130.73,-94.64738,143.17693
1493.6622,388.98337,115.468445
1216.6687,61.253296,106.563194
1235.2688,616.05975,-252.4023
844.55066,-57.723064,-314.9349
752.9045,4427.2427,-866.0817
-1807.4812,9183.733,-1671.5795
-2288.6714,2947.1782,-968.59344
-1597.1411,1545.2214,-485.15778
-1681.5266,308.68982,-294.90195
-1515.8248,-168.58878,-457.71268
-1494.8926,-1128.9736,-574.0044
-1127.9114,-1224.4314,-777.0475
-1060.3357,-1172.5054,-527.1557
-1595.0046,6.4429255,128.20352
-1912.0012,-380.68396,-375.1425
-4408.6157,4273.5347,-1061.4377
-3416.4333,8014.872,321.47052
331.18134,2450.16,-147.47798
592.78925,1142.4705,-176.7394
1248.7694,185.77982,-231.33426
1396.3313,390.15005,-168.15999
1363.6426,-39.355736,-8.051937
1248.4602,93.26185,-3.7095153
1152.6909,-220.75537,276.38602
975.63666,148.2971,200.6369
908.9778,-350.04883,112.578766
1106.9579,3214.913,-836.13477
-2858.2917,9908.118,-2296.7886
-2175.9568,2610.1396,-933.0248
-120.62428,638.6361,-667.32654
-1261.9059,472.1065,-344.60452
-981.9354,-65.090416,-422.98877
-1559.8866,-413.44714,-398.69852
-1525.3326,-1102.5929,-750.0637
-1442.024,-1372.6005,-458.79236
-1699.3693,-526.6575,-180.20312
-1714.071,140.56898,35.347744
-2950.5747,2731.54,-849.33356
-3331.6272,7994.245,-748.4715
-175.25008,4103.6455,101.06809
382.59796,874.80927,-67.95374
890.69147,857.1305,-373.36346
962.3438,-141.6074,-47.6547
1046.7527,227.93477,-55.771236
1222.1528,-191.73181,-74.07458
1388.2124,5.497938,-201.64311
1127.848,-297.78033,203.67097
719.1437,490.54083,342.02692
1292.0306,-10.566824,296.476
321.75443,7015.8833,-2250.3008
-3388.8057,8224.559,-1283.0935
-250.059,1105.8342,-748.2776
-1237.5237,1315.1399,-844.6914
-1857.6516,-22.982231,-704.9913
-1704.6746,-811.9829,-1151.9908
-1826.83,-1197.5557,-893.13214
-1664.6976,-804.23627,-247.02737
-1490.7059,-377.0415,486.66162
-1807.521,-99.31213,-240.62582
-2350.6885,1142.0223,-188.80411
-3438.9727,7302.5483,189.76524
-779.0278,5237.254,276.372
300.82013,1607.95,329.15625
771.1908,674.033,-411.8054
1099.8042,52.929443,-305.06577
1049.4827,-318.01578,-289.02588
1010.9724,-347.7326,-128.8689
1524.5111,-359.3626,-412.1011
944.7224,-180.85272,110.15467
1075.6968,-184.20293,-278.45447
1360.135,48.7828,425.2615
733.5937,3872.4182,-430.60815
-3528.4229,9920.917,-2284.7947
-1319.6886,2403.298,73.01875
-152.27325,470.43384,-530.17523
-1451.4042,761.95483,-13.687435
-1414.8251,-693.43726,-343.48853
-1469.1185,-818.7819,-375.91138
-1407.7244,-1191.5378,-840.8807
-1259.4314,-951.19293,-124.53242
-1438.0569,-267.82745,8.043951
-1503.6407,-37.013924,-198.68425
-3399.0388,3358.1133,23.160168
-4001.5254,7548.172,-210.63069
-258.21735,3036.3687,344.6251
926.37036,1133.2987,-14.464137
925.4697,469.2441,362.74612
1415.5525,173.88434,640.2705
1378.1777,-64.482285,694.85785
1461.2396,-185.50954,116.18392
999.10406,-585.59827,21.802177
1076.6008,274.44998,-263.54654
1167.4819,-434.4263,-158.23672
-113.86662,5275.848,-1220.981
-4479.1416,9039.466,-1713.3481
-696.40076,1626.6923,-223.56506
-1308.7803,1226.3883,-211.91914
-1510.4756,-12.030587,125.095894
-1346.9567,-198.83226,-303.78656
-1436.2711,-988.80914,-176.45265
-1411.1215,-789.8076,-219.36865
-1040.141,-788.5197,240.11957
-1411.9196,-175.41231,-35.59368
-1028.8085,-801.8053,-45.234703
-2605.6023,2136.572,-34.399044
-3378.8445,6423.985,64.55589
-723.4915,4303.1772,440.05994
300.62744,1264.1997,175.24788
445.25958,1028.9387,-37.511322
1079.5522,-225.96611,213.91695
1057.1587,548.836,291.9131
1582.1656,-192.61206,357.6809
1212.8706,225.79242,8.307322
1141.0106,-474.1527,81.072296
479.14346,678.9893,-191.32913
1360.6956,59.313553,-254.87787
-1996.4841,8621.93,-2478.8438
-4304.55,6462.4604,-1678.6165
-130.96909,314.9592,-431.17114
-1770.7244,1303.8959,-276.6806
-1250.2583,-496.54678,11.261853
-1354.0687,-507.83157,-280.96976
-1115.925,-1669.7197,-680.9563
-989.3515,-1781.0449,-427.50116
-1258.4187,-1127.9713,10.882387
-1328.8702,-444.06836,-184.56386
-1948.3085,176.94553,-568.5345
-5171.3804,6625.8643,-1111.0931
-2114.4104,6818.575,-457.33624
870.7139,1551.5652,-282.47467
794.5433,1006.7523,-226.15608
983.10724,-33.722687,114.601845
1128.173,42.141575,-185.44751
1732.1622,-502.97574,0.4817961
1422.4023,138.20953,-148.3021
852.0418,-310.6262,237.8633
588.666,340.21548,-215.96147
1050.0568,-73.97153,376.759
-318.16168,7114.7886,-2673.503
-3973.7957,8602.196,-2825.5667
81.36846,917.42914,-1041.3484
-1009.1909,857.21423,-1130.1299
-1320.2405,-535.95135,-581.7837
-913.9847,-236.3544,-378.05264
-1540.0975,-1008.13354,-513.81116
-1456.9603,-1586.1772,-985.1569
-1531.5125,-1305.4828,-565.8323
-2315.28,-306.67206,-293.21353
-2194.8796,-30.713238,-741.0704
-4555.983,4892.8027,-1179.5161
-3221.7961,8690.5625,-1201.3013
419.79755,2782.7437,-232.70247
502.60577,904.54364,-45.63168
1176.4084,3.6120274,41.610992
1249.7863,-129.26091,160.20163
1222.4403,-229.63979,186.58864
1306.5656,50.641296,403.52917
1096.4753,-313.57956,472.6604
856.83984,148.70935,177.03726
1045.5417,-385.87943,-216.54047
913.4861,5053.749,-1461.1788
-2240.2996,9678.815,-2992.4402
-1956.6558,2144.622,-1510.7192
-1281.4966,842.90735,-725.00543
-1381.2156,-169.49457,-682.8129
-1177.2219,-348.42825,-501.73245
-1473.9521,-720.2805,-341.47067
-1086.3214,-1062.2615,-524.1242
-1138.5464,-704.2739,-333.30392
-1556.0322,-378.81906,-368.04288
-1582.3762,-162.74243,-389.75696
-2770.4868,2577.5535,-1158.869
-2741.085,7664.807,-1772.8677
-18.543453,3572.663,-745.324
446.89987,1005.5925,-437.7783
1120.6833,351.40408,-181.45354
1327.9442,88.000755,-95.95275
1187.7351,283.9738,149.28595
1259.1249,-81.79874,320.0564
1087.5074,85.5205,425.32278
837.4702,69.21115,349.97507
686.0301,169.2544,115.54802
1263.8575,2165.5273,-589.735
-2064.7727,9138.793,-2671.2908
-2260.0583,4001.565,-1483.6952
-320.3167,375.08963,-745.3467
-1485.9591,401.85275,-501.68082
-738.7506,-503.14975,-307.68918
-1303.6187,-419.15533,-341.70218
-1156.5608,-1231.8378,-481.85217
-1587.2202,-1197.191,-495.1424
-1771.9415,-767.2064,-177.37059
-2195.6326,50.680363,-239.3328
-2738.4631,651.62225,-514.8285
-4790.4297,6163.82,-2093.784
-2433.2627,6512.0015,-533.36163
381.7246,1577.7034,14.666321
867.21295,995.46027,-696.05884
1201.0057,168.2953,-89.434074
1268.7203,65.750114,-53.374046
1453.3765,-379.95578,219.01813
1413.5651,-58.446255,-84.84424
1052.2024,-330.57062,277.74185
634.95233,380.436,-257.01688
1564.7479,-197.20686,436.90445
-784.9291,6412.125,-2337.559
-5650.808,9298.54,-2846.6719
37.421906,722.892,-68.85327
-1615.5911,1213.1945,-1041.3395
-1610.6399,-859.4966,-13.565676
-1578.8016,-917.6489,-441.9368
-1258.3396,-2315.0718,-621.9883
-1477.6312,-2130.7378,-305.77554
-1903.4696,-1205.5845,331.71957
-2388.6206,-154.85094,-748.0372
-3572.8018,718.97797,-899.7889
-6317.2256,7414.3135,-1278.7455
-2369.469,4765.0703,-76.9405
-441.90054,1793.2188,-169.53265
927.9428,1377.4116,-600.2568
815.123,899.8598,-522.0016
1444.5569,441.63028,-139.23651
1374.3589,432.75375,-408.0898
2295.7852,23.457064,-108.11527
861.57806,296.0243,-128.30045
1083.176,271.85907,153.98059
285.99225,104.41103,-362.45416
1772.3945,2379.971,-263.54913
-4706.3677,10952.962,-2925.3872
-4353.764,3641.3965,-1161.445
-1275.9515,646.1387,-399.22214
-2490.6052,425.3564,-389.96948
-1368.4675,-729.1836,-62.86972
-1288.6163,-1280.287,-319.30392
-977.60876,-1806.9059,-520.7999
-1031.507,-1908.6699,-59.126305
-1907.0654,-709.38403,-319.15146
-2192.2158,-722.5723,-233.1095
-5022.137,4224.2305,-412.2776
-4286.0435,7650.6753,-812.30707
-859.07513,3885.5176,-59.00068
1049.1339,998.30524,-580.8586
1176.3076,529.6662,-350.54993
1280.8131,428.8174,41.455956
943.79706,464.98593,-348.6662
1565.2695,-274.43716,-134.21707
1195.4357,24.248846,-371.99805
1329.6609,-68.43576,215.8849
573.2579,479.4336,-284.35092
1499.9747,-86.57842,463.41806
-927.72595,7306.9277,-1962.4341
-4999.6016,8657.096,-2190.2434
-956.83234,483.28973,-38.96415
-1372.9213,1190.7195,-821.932
-1961.7719,-801.3156,-175.44484
-1016.1567,-790.78485,-347.0527
-1645.8131,-2060.9456,-722.9656
-1156.8904,-2120.857,-422.7579
-2093.1501,-1028.7277,93.696945
-2400.5723,-141.46382,-389.31152
-3775.8594,2398.1494,-1323.7257
-4587.4683,7402.594,-584.6349
-1402.283,4707.487,-8.832477
879.5639,1412.275,-837.20593
926.2832,862.44763,-81.53997
1312.1768,157.68663,60.392635
992.3081,400.28766,231.84409
1766.4622,-89.990005,190.38002
1212.0748,268.69308,423.00116
1490.8912,-200.11584,359.39642
578.5311,491.46027,376.0062
1492.6925,574.01227,-679.83923
-2915.0498,10010.338,-2867.7178
-3926.2593,5712.341,-1739.3932
-443.51953,-118.86807,-1033.7869
-1612.2308,1141.8864,-463.59937
-1011.9502,-678.464,-246.65779
-1303.9266,-134.14243,-274.56433
-1822.7444,-1922.8917,-809.0318
-1918.6077,-2293.6506,-731.581
-2615.454,-1689.8479,-213.20097
-2627.0437,349.9749,-337.87146
-2891.8083,2651.3433,-1095.0631
-6303.688,8015.196,-60.580566
-1022.7872,4384.6865,-645.63464
609.211,624.333,-377.19693
224.67282,424.0066,63.120384
1102.1713,819.9012,-9.123456
1117.0623,1016.51105,247.33405
2110.549,448.74048,134.36058
1831.9542,393.6666,306.2889
1479.0658,431.48645,167.74748
638.7239,357.55133,-30.379578
807.14355,2857.7222,-1102.5686
-3339.0764,8953.837,-2139.0564
-3430.3796,3759.1426,-1643.305
-2231.197,685.4928,-639.16833
-2196.2292,634.49475,-242.28296
-1478.8708,-307.50848,-258.97266
-1375.8679,-794.09595,-159.40266
-1212.5647,-1735.2914,-365.03278
-988.65173,-2150.666,-296.41064
-2067.5715,-802.37006,-316.91318
-1988.6212,-457.72586,-491.22455
-4072.1145,3602.978,-1215.4214
-3731.5095,8525.634,-779.2279
-590.623,4072.9126,-4.504807
689.0984,1071.9084,-386.32193
942.92596,-132.1872,121.81009
1339.2919,-143.49457,-40.40442
1117.572,-78.653595,42.898106
1666.4346,-165.8388,132.73544
1066.8446,-43.904324,411.43375
1444.6632,-58.538834,208.95488
549.55945,43.426876,31.142473
1753.3185,1645.0109,-480.04553
-3152.5247,10673.389,-3041.2588
-3817.1746,5095.12,-1103.472
-787.99994,379.92758,-409.78387
-2278.5066,648.44366,-854.3426
-1217.7859,-1317.4941,-416.82413
-1212.7952,-1490.7335,-505.38065
-1079.5089,-2141.7236,-110.7142
-1543.7908,-1466.8634,25.55876
-1908.7051,-714.3429,-494.4401
-2487.1501,-311.1033,-781.6166
-4456.7837,4738.802,-1318.2252
-3697.984,7697.7505,-388.14267
-385.3061,2804.4375,-258.8523
948.22845,1369.2587,-680.4474
1119.3832,195.65329,103.66726
1206.9543,614.47485,128.87416
1322.3741,138.76935,273.73724
1469.056,365.55252,11.440651
1171.7393,-242.16486,238.83151
818.1583,430.62543,-45.91925
927.84064,-79.02517,31.973547
581.70776,4657.298,-1558.9019
-4724.0103,9060.047,-3015.337
-1779.9136,1845.9575,-684.86847
-759.80225,861.7911,-719.2632
-1498.4843,231.35114,-410.36786
-536.62775,-418.96524,-312.9003
-1044.5394,-564.359,-568.81683
-955.61456,-1307.7507,-905.5639
-1392.482,-934.7118,-894.59015
-2306.0925,-752.2528,-469.49335
-2136.2544,-143.13724,-252.32605
-3101.24,1640.4957,-834.78906
-4273.6167,7291.052,-1216.8706
-1395.654,6306.602,-42.162937
672.454,1038.5132,-184.10266
793.2812,1086.9039,-384.12625
1317.7621,-368.9786,-103.680145
1334.265,-72.8575,-150.1336
1946.2968,-415.0575,-10.699264
1278.0829,117.93149,98.246346
1034.943,-368.6069,287.3312
654.1015,339.7994,-114.59202
2035.6312,859.0555,379.2737
-1813.648,9863.114,-1628.1703
-3324.0735,6495.1724,-758.0778
-628.07227,331.6603,-186.55475
-1905.1605,903.82477,-500.76666
-1033.7919,-1395.1199,-465.73947
-1371.3335,-767.3863,-537.8917
-1136.3359,-2179.001,-544.5507
-1502.9734,-1476.0217,-524.65393
-2097.0015,-1013.6984,-613.87976
-2467.9065,165.8667,-425.9311
-3038.2195,602.7139,-659.1831
-6530.4487,6652.567,-285.3005
-3620.1729,5932.6455,785.662
676.8576,1323.389,-219.76157
866.5531,1257.0428,34.79995
1248.6421,-10.199713,-24.322214
1259.3778,106.36323,134.59277
2016.0701,-98.59106,-58.887535
1609.8112,150.25192,352.51138
1427.0016,-713.30646,18.181189
903.5813,-636.23517,271.68796
272.32114,2490.2334,-290.26166
-7766.258,12169.037,-2541.8184
-3557.678,1507.9906,-1148.5421
-1067.3635,515.02045,-60.675087
-1744.6266,128.19836,82.45784
-1190.9453,-303.44772,-300.10007
-1960.3108,-1306.3267,-734.3655
-1682.9069,-2537.6519,-1093.5145
-1843.7213,-2235.4856,6.5569324
-2635.6511,-527.3924,-763.1871
-2419.7327,-423.2766,-487.53705
-5019.4346,4122.758,-79.95985
-4041.1306,8554.801,-194.22105
49.84659,2570.5876,137.8584
449.2339,1224.5083,54.874527
803.42065,557.8929,113.85334
1130.3195,287.31717,-58.822742
1221.5946,368.0334,41.895264
1592.0026,131.65424,57.869755
1196.1838,115.97756,172.56548
895.1063,-120.96913,135.21577
527.72864,110.73862,-152.67395
1423.751,1188.9071,-75.152985
-1728.7894,8814.711,-749.5732
-3852.348,5686.5654,-1096.0452
-351.28848,649.0965,161.32805
-1682.3431,1235.6433,-138.88774
-1485.3889,-428.21933,-160.74075
-1246.4916,-659.38184,-485.98016
-1144.4567,-1347.2134,-862.3542
-1609.2263,-1171.4996,-672.6309
-1550.3103,-358.45465,-186.22307
-1854.7875,-368.62042,-160.10378
-2238.1208,764.9733,-662.65076
-4340.1035,5360.082,-1295.8544
-2506.7424,6619.6523,52.05613
469.89612,1958.7592,-77.0745
684.20325,1471.9282,-187.76689
1440.7252,248.28616,413.86972
1655.9873,325.32425,558.186
1487.073,-290.39273,564.56903
1158.3738,184.3392,194.0944
915.0421,-314.31418,171.5957
527.33704,582.68286,-24.531315
1279.4885,-130.78612,25.871122
-1046.7523,7106.026,-2644.5798
-4055.0635,7971.6646,-2303.4482
-1194.5786,977.4936,-1145.9049
-2171.8008,1363.3507,-954.31805
-1698.6101,-688.11084,-386.6064
-1428.6058,-432.34055,-697.47076
-1605.2649,-1388.9819,-652.80975
-1202.7759,-1550.8804,-899.7262
-1601.773,-1394.0991,-164.52176
-1968.1786,-436.8128,-144.212
-2974.8542,231.05136,-555.73663
-5346.812,6494.2607,-1043.4683
-2196.7175,6751.597,-489.32645
157.68214,1783.7692,-104.71586
550.5334,1157.13,-157.29315
1320.6067,348.66357,-75.08719
1423.4646,669.2034,-127.13865
1996.3973,-22.762089,57.653877
1904.272,433.17453,148.5626
1634.9982,33.962624,140.51491
593.91504,514.567,-88.04609
1348.793,523.8026,-469.88873
-3656.8376,9414.124,-3212.0244
-5227.705,6731.0093,-1888.7257
-1131.0266,748.6858,-862.97437
-2716.2258,1043.7217,-527.4999
-1555.0057,-813.35986,-185.84431
-1953.4153,-478.7263,-220.33595
-1424.9791,-2225.4294,-315.14542
-1289.1537,-2415.4722,-349.3551
-1982.0989,-1373.3386,-57.361626
-2699.1228,-261.55225,-527.15643
-3318.8455,2011.7229,-1168.4362
-4926.7773,8287.561,-997.96594
-1131.786,4846.2075,-625.474
509.0602,1456.9102,-264.3196
787.33093,449.59824,-115.83334
647.1766,168.89583,29.227377
1140.6853,152.22945,-21.037327
1014.68427,158.16321,48.23569
1650.619,52.910805,44.841263
1306.9053,-128.79216,105.30938
1180.5449,145.6518,-84.69964
1011.57825,167.5477,181.54997
466.62662,5469.6055,-1476.8192
-4316.329,8861.59,-2553.8833
-1144.4586,1752.3163,-593.2116
-1053.3906,1018.89825,-943.39435
-1618.6221,-50.76199,-537.7156
-1361.519,-542.7731,-610.7354
-1675.5028,-1247.516,-648.5813
-1462.5823,-1596.2137,-1011.3739
-1576.089,-905.3341,-193.08147
-1910.6091,63.646545,-347.72916
-2476.0063,1866.0365,-559.7861
-3893.1497,6366.659,-746.69183
-1520.6063,6300.273,-364.9095
255.77084,1529.5887,-242.74002
953.0077,684.7507,-435.59827
748.39343,-170.19058,-194.89296
924.29596,300.9837,-403.7336
1240.7837,-247.36969,-341.7771
1655.0957,215.70772,-272.41
1295.7279,-176.99043,-199.61366
1198.243,247.53735,-509.07513
1035.52,-430.41864,-130.7798
597.3159,5830.382,-1617.2133
-4960.2764,10687.6875,-2731.5757
-1770.7029,1097.9335,-375.31754
-1481.0865,1186.5265,-512.36145
-1978.9825,-617.79565,-217.72824
-1247.3705,-780.31396,-189.95993
-1175.112,-1749.8142,-110.23267
-1311.998,-2070.0632,-42.86926
-1782.6718,-1115.4369,377.59262
-2155.8364,42.528114,-536.0632
-2821.1995,-834.413,-718.7994
-5550.587,5619.378,-2003.905
-3795.1982,7989.981,-1012.45807
331.49246,1963.9814,-738.0771
1275.3954,853.4704,-426.77124
1067.1913,-33.895065,-11.947661
1161.5729,230.6772,44.207794
1325.8522,-0.553398,255.04175
1486.7351,407.04422,339.18973
1030.1947,-21.18145,637.251
890.092,676.5174,546.2724
1040.963,-505.04303,-99.81544
167.3167,5122.0854,-375.65393
-3987.8455,11001.668,-2052.1223
-2368.7466,1134.8138,-1396.5432
-1120.1554,776.2923,-993.4953
-1298.2655,119.24151,-459.13275
-1318.7891,-23.726765,-501.81192
-1538.067,-1129.4863,-413.3562
-1475.5728,-1290.1396,-375.36618
-1667.9126,-1348.3182,109.038925
-2066.7761,-380.1235,61.827915
-1868.866,-445.4992,-224.15492
-3305.7722,1210.8318,-819.8044
-5294.096,7390.412,-1571.6133
-1115.5923,5924.0977,-533.47766
-3.2756147,1337.1969,-537.80524
755.1432,632.79407,-764.46234
1174.4601,-295.55386,-378.47433
1322.6753,597.67084,-556.36774
1606.3198,-406.40247,-331.96918
1482.2014,429.8616,-363.96725
1106.165,-60.1215,-177.74347
756.50616,399.33142,-560.0084
854.4445,-160.29666,-573.61725
-272.1252,4960.9067,-2460.9375
-3560.5034,7217.7886,-1926.5433
-1478.2273,1576.6979,-945.84424
-1539.2208,794.3236,-371.57034
-1615.5044,29.558086,-220.14557
-1740.1417,-170.14793,-219.31596
-2072.534,-1007.2417,-509.8255
-1401.694,-1749.8765,-287.05325
-1380.7451,-1877.4823,-51.921787
-2035.5505,-160.68427,24.038221
-2123.9004,-970.519,-1182.7268
-5598.236,5824.1104,-1690.1305
-3645.6675,8249.941,-1241.5088
144.63724,1859.4907,-689.75433
1316.9468,1308.6741,-381.92484
1707.7129,-18.919714,47.758423
1264.259,793.3492,171.14919
1499.5258,-54.180977,340.29193
1195.1329,305.00745,-18.760202
1157.3462,-241.31482,338.18655
416.28928,428.69962,-99.21988
1029.7509,224.83763,168.00206
-2109.0342,6748.9155,-1323.9567
-5449.5396,7728.669,-1864.7279
-700.21497,1285.8833,-288.964
-1330.3323,954.10803,-502.02325
-1122.1726,-84.712456,35.189606
-1263.4342,-358.68634,-218.96864
-1493.8542,-1021.27625,-519.81396
-1417.5812,-2092.0527,-731.5212
-1625.8921,-2104.876,-204.95119
-2288.9587,-979.67755,-573.29816
-2903.9768,-264.8242,-802.2744
-5659.7354,5410.4663,-1531.331
-4422.9087,6539.304,-937.96655
-943.33636,3127.075,-15.9890175
1549.3994,1711.0885,-694.19916
1546.5841,603.5434,-14.515434
1812.0178,118.96446,22.480064
1630.3341,122.910355,453.77356
1456.1177,825.30774,310.42328
947.2236,142.93396,666.93097
700.56134,712.36316,52.697212
856.45734,-172.73222,211.74945
-475.082,5755.669,-1043.1472
-4578.0054,8968.362,-2227.2112
-1750.0687,1820.5992,-921.8935
-1287.5996,1110.1283,-981.5198
-1303.092,124.91733,-557.66943
-1407.4255,-19.845224,-387.7068
-1852.1833,-1209.8987,-565.5387
-1698.7821,-1956.2668,-1222.9331
-1641.811,-1801.9624,-623.8733
-2693.74,-377.08545,-196.71872
-2680.2717,117.45235,-796.79895
-4658.071,5302.1,-1762.8121
-3853.356,8251.069,-533.11664
-2.9227068,3278.4282,-575.0005
1223.7335,942.99347,-286.30383
881.40125,282.2758,-10.372773
1461.9265,-295.2693,15.829271
1246.9811,32.774433,163.15137
1808.2184,-105.10679,183.8265
1192.2336,-215.14629,289.1656
1077.5541,102.14188,76.50548
725.08057,-36.839287,58.93423
902.98114,3490.3467,-294.22226
-3599.472,12115.711,-1850.3896
-2577.238,3083.5098,-1032.0393
-1347.7898,917.47,-294.08896
-1604.279,-107.04326,-523.852
-1314.5641,-508.4384,-320.5612
-1790.6378,-972.60706,-634.59656
-1434.7992,-1568.6023,-610.3333
-1426.6437,-1771.7103,-151.88727
-2875.95,-334.45715,-513.0739
-3033.8423,-769.61365,-1116.3826
-6386.159,7891.9844,-377.0213
-3014.7314,7808.6626,-1112.2653
768.4422,1255.4849,-369.9809
650.8622,1527.6031,218.07722
1176.2582,-150.27132,-84.53351
1371.0424,26.015575,-27.92154
1381.8702,-442.55505,-48.611855
2224.105,2.5148928,53.099586
1119.4799,-114.438774,392.98007
1027.566,286.1672,78.95202
615.2761,-380.28094,49.644665
1676.377,2967.2703,-1157.332
-5488.0015,11902.017,-3874.0388
-2511.9382,2460.4448,-1375.8027
-495.25436,522.60846,-477.21503
-2145.9395,174.49454,-517.35626
-1052.8275,-639.1079,-111.06176
-1898.0538,-1013.9151,-415.4193
-1277.8488,-2451.8047,-605.9309
-1705.2559,-2032.0743,-110.56494
-2720.597,74.81873,-100.70229
-2357.0273,86.23273,-1001.99896
-5002.6533,6445.462,-615.4508
-2683.9324,7431.2583,-667.26
860.6274,1764.9214,-138.19958
97.85814,630.0293,89.932465
770.70154,-72.64409,23.1906
830.62604,-193.34224,-3.6653666
914.14105,-319.99686,18.787292
1209.6357,-272.5812,44.41175
993.6097,-219.02986,204.93347
993.4458,-206.48428,-118.379105
772.6204,-61.685738,6.152229
1690.3003,1730.7462,-1207.8323
-1984.6372,10458.4795,-3998.3577
-2567.9482,5099.9565,-1675.063
-127.105095,93.65591,-714.1538
-2558.8816,967.39014,-530.2213
-2158.7979,-976.71313,-528.48584
-2289.1436,-1378.3597,-680.79504
-1303.3844,-2540.914,-415.4943
-1928.1624,-1164.7128,496.24304
-2428.086,278.9096,-389.23044
-2647.118,-585.98206,-1248.9336
-5547.9365,6718.7646,-1867.5776
-3289.4473,8459.423,-1727.0444
636.34784,1454.314,-969.01154
1331.5237,968.3231,-695.8758
1536.7273,-461.40817,-116.55973
1226.9373,288.90808,-104.68474
1987.3615,-698.91815,2.1098595
1573.711,92.21225,92.96845
1279.6428,-708.9586,347.60165
623.2299,485.00177,-191.3527
1449.6348,-706.8434,320.07782
22.35597,6110.964,-2384.8313
-5231.853,10506.413,-3559.219
-188.22684,980.8606,-875.0623
-1073.0183,889.73004,-810.8421
-1329.3494,-472.66702,-431.20676
-1408.6309,-615.69446,-615.5033
-1779.3805,-1524.228,-667.2986
-1714.4175,-1549.767,-641.7259
-1685.1093,-1108.2517,-216.95758
-2389.3457,96.66622,-336.20868
-2425.076,-280.59042,-639.749
-5454.281,7002.1387,-1921.0289
-2548.5264,7938.063,-1340.5483
780.29,1462.5955,-643.9267
850.4326,757.2178,-187.34877
974.8159,-114.899185,11.834998
1036.9802,111.17625,-57.862793
1143.0127,-507.9425,-131.817
1725.1454,-297.2131,5.2816944
1005.0958,-216.08832,199.35997
1104.989,-25.91347,40.258083
679.5124,54.595432,26.508364
1804.7601,2164.4443,-581.5581
-3619.0244,10706.146,-3456.8345
-3082.8315,4390.5513,-1204.6177
203.81006,28.930153,-523.56726
-2216.0112,914.3521,-487.63162
-1295.2052,-1136.2869,-242.74092
-1462.6873,-834.2662,-359.94037
-1210.9847,-1511.2998,-578.4903
-1299.8059,-720.6239,37.707783
-1425.7876,-571.38354,-320.2822
-1461.6427,51.127033,-352.12744
-2730.2559,2834.2297,-400.58383
-3407.5068,6883.144,-844.4707
-954.14905,4998.4497,-207.51381
994.20123,1447.7543,-542.49664
1376.7798,846.81805,-647.7363
1077.1785,44.100853,-278.19858
1576.2502,-12.719153,-508.3776
2092.6907,-402.73975,-158.22234
1134.6337,160.52756,44.81156
1266.3956,-182.57481,160.4169
490.04688,404.6676,-277.9227
2059.9534,-186.04335,370.93845
-3829.427,9685.299,-3126.582
-4864.45,6891.103,-1444.3593
1146.6973,-774.5456,-350.19604
-2096.476,1277.7386,-603.1199
-1109.5493,-1460.5128,7.4353256
-1785.5608,-724.1885,-780.50574
-1457.2958,-2352.9763,-773.9589
-2028.6322,-1264.2184,0.70578045
-2050.1267,-992.89526,-40.221752
-2528.6648,558.94165,-750.5554
-4322.3706,5670.015,-249.6172
-2592.7126,7785.253,-6.4726176
561.09515,1620.3392,102.97763
331.31558,1339.436,51.99354
964.4078,-362.20877,94.02985
1005.6975,298.96017,-32.74101
1583.4231,-650.1929,304.16367
1289.8649,440.93314,173.82727
1277.5425,-610.5557,274.30713
654.95557,841.62164,-204.09196
1301.8724,-974.14996,-125.072784
124.290504,5592.3955,-1323.0259
-5131.2695,9733.611,-2111.7007
-1363.4634,939.6229,-353.16763
-709.612,1058.5071,-322.2855
-1946.7592,138.4579,-151.34091
-827.87805,-354.3802,-103.59608
-1471.0363,-931.21423,-159.72496
-1068.8336,-1475.9913,-474.1904
-2124.6707,-1764.0187,-423.14008
-2350.0173,-1099.8644,-367.27765
-3160.1233,-472.5076,-1081.9858
-5692.5444,6771.417,-1230.44
-2853.0686,8344.125,-508.72418
902.4233,1193.523,-437.28024
1251.0615,1145.4937,-353.43948
1418.479,-396.2131,92.03709
1371.7356,374.93936,27.419085
1633.6823,-589.79266,445.9536
1211.0463,746.2879,448.57657
1055.9037,-334.32397,554.831
526.9914,766.6406,-7.9942265
1167.6349,-297.09293,58.404232
-322.7921,5647.5347,-288.3429
-4545.711,9678.15,-1473.7057
-1254.052,1220.1147,-154.96124
-736.3466,807.92145,-553.4741
-1471.1464,298.4305,-286.9531
-1303.5367,-600.41833,-69.222015
-1482.3401,-648.2854,-515.8177
-1143.5942,-1638.9414,-809.4759
-1668.4806,-957.31555,-461.50598
-1610.9061,-1074.6637,-410.75458
-1677.8727,298.14557,-337.09824
-3620.5955,2100.5571,-1446.1481
-4779.0615,8733.153,-2313.757
-760.0135,4511.0845,-31.944479
834.32916,837.33936,-452.0456
1099.1566,646.6198,-231.33739
1075.3639,50.574203,-120.723656
1654.0781,-601.46405,282.15762
2061.162,174.64247,60.501602
1795.6166,-218.123,662.9497
809.6871,514.4733,310.35187
1014.8719,-536.58673,642.50775
747.8539,5567.6895,-2205.775
-5391.3906,10901.555,-3378.2488
-1577.8066,1197.007,-810.2103
-1185.3605,1040.29,-761.9464
-1837.1906,-638.3025,-376.49374
-1088.4186,-558.75995,-373.16724
-1514.8865,-1389.0071,-456.92853
-1059.3445,-1656.3668,-587.81146
-1668.2106,-1418.6678,-180.23349
-1874.5306,-384.18237,-571.1634
-2168.4497,-839.8395,-838.9934
-5242.2397,4913.069,-2024.2717
-4095.2927,8600.498,-1717.7826
407.13336,2790.013,-672.438
1274.3583,1375.641,-430.7681
1894.0012,269.40106,127.94806
1402.7915,645.56573,-66.46201
2381.8606,153.5427,395.6095
1430.3127,829.0313,505.72708
1275.1396,256.9236,454.56168
131.92383,645.54443,-63.68672
1052.0707,282.0204,-272.75113
-1114.5461,6643.8945,-2154.5593
-3630.1543,7042.2197,-2399.614
-1118.5928,1241.1375,-953.53705
-681.8176,515.1049,-692.74493
-1229.8992,-214.96065,-315.97968
-953.1911,-299.2668,-193.45389
-1815.1143,-1080.949,-634.884
-1506.2982,-2433.0684,-1108.3381
-2212.2732,-1190.4287,-227.5514
-2086.4922,-345.64185,-216.35458
-3230.761,2173.0908,-1227.0067
-4001.9836,7684.095,-824.97217
-1212.7502,5170.0474,-175.00795
550.80597,1385.2261,-149.4285
745.46497,727.13574,-33.81442
1504.0969,-192.34819,135.1691
904.76794,150.75105,185.68765
1621.5723,-72.888916,379.54492
1182.9501,243.91875,358.9405
1483.8175,-153.19203,422.74884
415.16608,268.01233,82.14881
1465.3479,1138.1418,-311.53464
-3063.2825,9296.3125,-3370.953
-3555.3838,4745.6123,-1743.2115
-5.654727,478.05487,-528.96814
-1504.1487,795.1075,-267.90018
-1099.3723,-357.92862,-191.2921
-1397.183,-543.4649,-125.67164
-1457.2217,-1165.6416,-475.81015
-1240.1753,-2197.205,-34.271114
-1887.7103,-612.2946,127.52333
-1742.6794,-393.3675,-86.89721
-2387.721,3195.6055,-1736.2808
-2251.963,8487.0,-1426.9122
162.40733,3090.172,-116.99109
358.1099,872.7903,-500.95856
627.3922,308.6161,-289.7793
979.75543,-406.74942,-146.58014
693.4829,-283.53885,87.43505
1142.3561,-226.56688,294.18457
1091.7141,-37.17208,397.23907
1241.3595,-363.4956,475.40805
733.1512,152.92424,-36.27619
1783.5013,398.11523,289.8002
-1434.1726,7843.494,-3049.3657
-3473.2676,6537.3877,-1871.0883
206.3235,341.74905,-527.29736
-941.7661,847.08075,-816.7199
-1246.0941,-344.20267,-157.7603
-1325.8104,-684.12054,-269.19385
-1663.4937,-1647.3798,-570.11255
-1167.8286,-1627.6432,-843.62427
-2192.615,-722.4983,129.15561
-2087.1128,-212.59259,-460.71466
-4287.5264,3843.3884,-1576.301
-3985.701,8611.698,-868.5236
-297.95224,3436.9329,-250.7902
1175.9277,775.7867,-634.1639
943.14026,367.23575,-62.37798
1195.1799,-359.323,-88.285484
1124.0382,-500.79996,208.33382
1516.8229,-90.26576,139.0137
1136.1997,-290.46155,465.1029
1124.1464,220.74815,17.635132
777.611,-437.21393,-98.50728
1706.2601,3417.9482,-1379.3274
-3008.8525,10490.312,-2756.1243
-2151.1968,2541.8972,-822.03784
-167.73141,873.6785,-482.65347
-1679.8066,321.31924,-203.47412
-895.43567,-406.50427,-175.07794
-1418.0819,-541.7636,-201.89778
-1347.1155,-1106.3652,-341.0253
-1468.1072,-972.02484,-357.43674
-2041.0707,-525.7782,-434.8228
-2028.1354,-158.38211,-513.6335
-3237.44,2402.9521,-1492.1693
-3675.358,7542.4077,-1249.5284
-1119.1237,5667.6406,-426.0505
874.7188,1224.5033,-896.47125
1311.8885,843.5081,-353.36044
1420.7258,-268.80045,-217.74698
1291.906,427.27097,-64.39258
1476.0205,-282.61768,-122.651596
1258.1449,131.49815,2.768257
1245.241,-500.30652,-27.81628
604.20593,449.83844,-35.465065
1734.1566,463.54547,-691.4038
-1919.1646,9568.67,-3234.8274
-3890.3447,5923.7715,-1649.2686
137.40031,269.21442,-494.59656
-1749.4183,993.8714,-405.17377
-1103.0465,-432.16022,-24.790932
-1663.5615,-92.14591,-403.15408
-1794.6072,-1362.1204,-643.0956
-1644.9207,-1710.9304,-637.9935
-2020.6049,-890.14124,-173.38509
-1655.101,-19.525684,-612.8641
-2691.3604,1749.421,-558.1396
-4248.415,8340.0625,-301.90094
-1120.7173,4797.0825,160.80258
419.28488,459.599,13.292311
639.80316,540.27155,105.03164
894.0727,-317.39203,372.57962
737.17206,220.975,305.56857
1232.181,-304.8612,244.93881
1455.3801,-53.421196,68.92379
1225.585,-445.0906,209.47935
794.13055,411.42645,-72.36995
1790.8333,463.33865,-41.92313
-1599.7355,9606.869,-2452.78
-3329.6213,5986.3633,-1559.6256
126.143974,147.47295,-439.62463
-1937.8022,1131.0741,-588.6443
-1386.9258,-579.95544,-72.32951
-1483.2043,-497.21402,-280.31625
-1407.1302,-1504.5468,-545.4896
-1477.7461,-1599.0155,-375.73538
-2037.7422,-698.9311,-74.838844
-2072.9485,-426.22498,-795.87555
-3339.298,2568.3433,-1114.8041
-4236.669,7591.6465,-737.5448
-1286.5383,4870.7983,-496.4676
663.3988,1463.8105,-465.76074
1021.3744,889.8188,-212.31068
1065.8907,135.40767,-19.74173
1543.6482,444.8095,111.63426
1917.4167,117.74205,219.22546
1423.5157,328.15466,294.5666
1031.8256,-109.8097,193.9801
653.34906,500.80872,-57.112686
1212.0848,429.49954,-557.8488
-1928.6593,8755.631,-2724.2505
-4130.9517,5965.6606,-1878.6426
-320.78024,390.65042,-706.8279
-1807.7507,1195.5145,-444.84564
-949.8948,-538.4844,-67.38828
-1294.7529,-188.73634,-386.98413
-1364.0507,-1242.3177,-546.6171
-1523.3545,-1013.7332,-211.78772
-1505.763,-1095.4663,-49.58912
-2037.6606,-430.06427,-319.38156
-2036.9921,404.22507,-621.108
-4248.2266,5551.6333,-1647.9171
-2112.0442,7189.1104,-1149.2617
284.66187,2179.5767,-410.84915
723.5735,1004.467,-173.05984
799.04663,119.26308,47.754875
1420.8533,332.08408,-4.934678
1440.4095,-91.419174,108.47431
1905.2125,132.75218,59.04548
1290.5789,-238.80661,321.47174
956.7665,432.53613,10.712661
886.48846,-330.2306,-190.1641
781.87646,4656.84,-3802.5144
-4254.8325,9954.697,-5049.4937
-1216.3947,832.71173,-1958.4884
-1546.4086,363.4178,-791.0689
-1901.4054,178.32576,-145.6391
-1531.6654,-255.51286,-11.483999
-1277.9302,-1086.7655,-61.911068
-1119.8663,-1933.2983,-467.49033
-1240.9277,-1012.44904,-146.41391
-1602.9802,-256.36447,-479.28445
-1666.4877,823.9343,-729.6168
-3119.022,6322.695,-1874.4963
-1887.9806,5727.851,-996.59814
477.4,1861.2827,-519.7125
1059.2551,817.37885,-454.89612
1478.0348,90.42407,97.34905
1404.3641,-129.72758,91.78461
1132.081,-38.596287,218.219
1275.0668,-10.138279,183.79997
1206.688,-316.59366,243.84651
573.35345,86.60743,80.602165
1549.4176,1038.3174,-813.4936
-662.7885,8372.02,-3764.596
-3029.506,5734.8345,-2507.1433
-179.18945,343.7228,-915.9783
-1119.2559,346.69952,-848.9478
-1044.8186,-392.16226,-261.36157
-1418.737,-247.79826,-236.17738
-1462.6913,-1162.8634,-370.50943
-1535.125,-1269.7369,-589.75165
-1751.9747,-728.5286,-194.30826
-1912.5289,-263.1051,-342.0469
-2562.6582,1635.7754,-970.1502
-4244.3125,7067.1567,-350.1776
-1237.917,5154.187,-37.259518
383.1774,1326.5933,-119.0241
779.79285,890.4913,12.262677
671.2306,4.055707,136.93166
1026.5107,250.91647,102.325775
1147.1066,-167.50542,140.69148
1718.0494,480.9584,179.67723
1253.0107,-147.20651,422.75
1440.2625,734.39246,190.03304
1512.0942,-53.992573,368.99448
342.8429,7218.9,-1618.8312
-4353.674,9144.575,-1919.7809
-1707.6875,345.8446,-474.2336
-1461.2726,1404.7006,-571.4496
-1639.938,-253.39508,-255.16777
-1369.7705,-315.7637,-338.6364
-1471.9323,-1460.5146,-493.73245
-1004.26636,-1153.432,-494.54584
-999.7327,-633.7053,119.60825
-1396.2646,-404.35568,-40.70381
-1230.7131,385.93652,-20.941322
-2932.3562,4544.606,-170.31029
-2159.804,7225.086,30.475304
577.8007,2767.0955,240.48021
954.10034,951.24646,-245.4112
1034.8212,604.997,-105.2452
1196.0438,-44.00179,7.588392
1440.7186,-280.57355,345.00146
1706.8906,-109.5549,251.68782
1237.9321,-179.10019,388.85013
933.6965,194.16748,-63.074345
1139.6267,-7.5183806,74.22975
319.68417,5854.6504,-2628.5852
-3530.1482,7976.5396,-2375.0002
-299.09952,1085.1522,-610.0651
-623.5529,1327.1887,-831.2208
-1275.573,-139.17816,-201.81421
-1099.0885,-265.63275,-313.98938
-1331.4401,-736.15,-334.27377
-1712.2744,-848.38684,-624.4906
-1071.6296,-826.55725,-250.86728
-1297.8007,-212.29161,-159.64404
-677.2067,-468.18213,-92.80265
-2219.5654,1945.8048,-322.24738
-3721.057,6711.3604,-492.14636
-1165.2714,5340.4624,37.969692
950.0838,1063.667,4.9980674
538.7543,1166.2358,-211.55879
1344.6012,-227.56638,61.297764
1262.8214,317.2217,109.314026
2122.3333,-92.394196,203.68097
1061.6472,78.44961,115.97379
1186.1316,-101.45649,-97.93486
632.94293,95.06852,-129.6105
1486.6202,2215.2764,-1207.5533
-3205.8542,10239.506,-3522.7507
-2514.842,3368.5715,-1213.2981
-10.553586,797.0425,-821.1198
-1612.6969,506.31448,-225.78952
-1194.3756,-302.57312,-352.41013
-1460.2861,-732.59064,-226.4393
-1892.4849,-1075.266,-777.6741
-1512.7437,-1324.711,-168.71127
-1686.0059,-302.42932,-39.566402
-1568.4321,-707.21466,-133.90997
-3369.5466,1903.4238,-928.6314
-4958.071,7763.632,-775.2476
-1090.8104,4157.581,44.716965
446.65207,1464.6985,-145.85658
766.29663,1299.314,-484.7036
1126.9944,268.1088,278.103
1658.5631,444.50754,113.82924
1661.5878,-222.53293,100.96917
1384.563,145.8062,-133.38222
1080.3251,-223.4926,15.273471
507.1879,379.68427,-130.53993
927.8141,376.28946,-7.991057
-834.8597,6883.4414,-1875.4529
-3562.6675,6878.039,-1143.5148
-48.061314,1058.4404,-483.25848
-777.10785,1184.4427,-379.5125
-861.59485,65.3025,-358.2326
-1310.6482,-64.48873,-382.80765
-1713.6246,-542.4522,-622.5905
-1946.0751,-1300.6172,-375.9321
-1226.8916,-969.69446,-43.463524
-1592.4628,-220.94115,381.34943
-1418.9736,51.36906,-149.3045
-3325.0198,4698.854,57.662926
-2384.464,6314.421,445.13065
242.9391,1438.1783,388.2669
551.2807,1282.4979,-170.18594
686.21893,252.90228,-28.771572
1116.3105,242.74002,78.83103
1352.7551,-234.23859,432.58356
1460.7858,237.60733,172.90845
1100.6759,-458.5459,412.66324
888.21826,578.1566,209.45113
1029.4922,-551.46875,364.96954
630.59784,5264.9004,-1425.6279
-3496.2114,9474.724,-1681.3699
-1006.60925,1115.4407,-405.39728
-379.90317,1014.4213,-549.6105
-1188.1682,109.11137,-218.09181
-1023.43,-334.9767,-271.84833
-1410.6974,-649.6925,-368.3702
-1422.309,-774.63165,-278.78027
-1081.3739,-699.0805,-66.660614
-1375.9125,-258.64603,176.08353
-1037.6648,-754.00336,-161.79395
-2704.0852,1510.6173,-348.9559
-4541.712,7148.284,-81.65304
-1455.571,4153.2817,350.26938
863.3507,1297.7533,-534.4099
1332.9073,733.2074,-430.19
1411.3302,236.37552,112.66757
1627.2765,-15.927078,317.15857
1630.2445,-54.177303,7.6722474
1255.6644,-431.8,101.19317
940.7695,7.226694,-268.08475
897.22125,-138.08293,10.386842
781.09644,5066.4106,-2224.0457
-3313.4136,8231.778,-2744.2117
-693.71124,1736.8795,-831.0897
-336.67007,915.3462,-767.4076
-1305.5963,82.93991,-310.1796
-1034.6573,-353.69873,-255.8571
-1581.9624,-721.7781,-181.40884
-1493.2731,-866.5799,-510.21448
-1491.7771,-1189.0833,-235.74088
-1597.6799,-94.25129,-62.27604
-1400.8046,-171.36694,-254.92033
-2856.7693,2985.2776,-798.4196
-3222.9646,7312.446,-407.02902
-351.9148,3364.8357,240.24872
430.4627,851.4714,-12.051727
929.87787,788.17584,-274.23517
1078.429,-187.55307,-43.00135
1037.0143,-49.834194,48.02104
1498.6611,-174.60925,112.31693
1185.1101,-18.616398,87.097206
1003.42944,-146.7207,73.07691
567.5859,65.45876,33.236874
1627.3944,1636.0137,-1134.5706
-1624.5608,9127.939,-3172.8252
-2888.6748,4435.4136,-1710.927
130.23239,390.5624,-520.8714
-1697.4839,714.38184,-189.83443
-782.15155,-292.52548,-181.38548
-1238.1842,-633.5689,-351.15338
-1193.732,-1080.9521,-377.63455
-1433.0309,-1119.0347,-276.30652
-1220.2618,-24.764633,-119.33914
-1381.1277,-299.2545,-124.27255
-1129.6725,853.56067,-303.0242
-3148.9714,4934.236,-1016.4236
-1739.4692,6500.3003,-739.54944
609.92365,1851.014,-140.65953
911.3557,910.7518,-429.09256
1071.4965,132.15225,29.761074
1330.7057,-155.72859,89.234146
1308.0424,-193.23541,506.0586
1155.0911,25.415588,285.89337
946.0061,-257.96774,360.3007
728.67346,118.29823,-231.83922
1554.1593,200.80186,-66.15722
-252.47359,7560.132,-2597.3516
-3616.3604,7170.865,-2121.588
203.38576,630.4897,-490.0755
-1012.5812,1020.7939,-531.01794
-1040.0046,-189.83711,-61.484184
-1356.6653,-640.26587,-285.5091
-1284.9082,-1086.7092,-436.01553
-1614.2346,-880.4005,-480.24176
-1250.5029,-818.14716,-58.125977
-1700.1133,-219.17221,-179.97327
-1336.8829,-14.774484,-209.97684
-4095.1428,5197.147,-331.5967
-2800.2778,6777.3506,133.02396
416.81223,2105.9275,61.32538
744.1112,1050.4186,-13.704319
993.3752,144.2132,158.17053
1184.0508,131.81393,192.27777
969.201,-323.89334,354.31268
1288.3972,169.74252,166.28581
1191.3062,-480.32568,199.33345
981.9496,288.5363,-124.562065
1104.3143,-343.66324,32.542477
303.42755,6831.1274,-2208.4058
-4077.8958,8329.957,-2902.8857
-757.5307,849.32806,-1103.8131
-1389.8723,787.9597,-741.0976
-1176.3997,-502.48135,-286.8884
-1130.4216,-556.3855,-215.22363
-824.1933,-1083.6073,-192.94873
-1315.4393,-1024.6321,-458.442
-1593.5415,-725.75446,-259.9886
-2055.7334,14.769511,-216.1607
-1369.225,520.40784,-584.7986
-3410.8887,4378.4927,-952.4482
-2852.4126,6673.013,-914.56854
249.30548,2812.8638,-515.66943
839.9636,601.023,-207.98795
828.7358,315.89157,-160.31427
1438.046,-283.4482,43.43273
1287.8911,-19.691088,174.3182
1590.59,-42.67782,396.37674
1042.6521,-140.33311,255.7772
809.07306,125.87826,-117.09388
784.97284,-217.54637,-150.42279
680.0722,4932.6934,-2079.0881
-5661.4316,9318.413,-3481.4077
-1163.7579,1207.1216,-347.7032
-842.02997,1150.542,-849.3771
-1297.3284,44.71154,0.013538033
-1180.2202,-110.703316,-118.03729
-1103.7113,-1133.5997,-18.324995
-1363.7406,-1171.1527,-836.3561
-1208.3213,-1836.6066,-195.35188
-1845.444,-397.8028,-408.4351
-1267.7067,-1725.1084,-606.6344
-3427.4695,1562.9929,-1931.0863
-5576.0566,8549.212,-2093.9363
-2004.2499,5287.138,-508.10043
1416.0985,1308.6194,-830.22705
1055.7611,381.72568,-401.65588
1197.8527,-121.081696,233.76988
985.2397,47.44368,94.77931
1667.9639,-355.7759,365.87894
996.93085,52.1182,183.2532
1258.7108,-284.79544,430.58234
216.89272,63.738827,-256.3272
1834.3054,768.88336,153.99626
-2460.8687,8294.637,-3324.285
-3528.47,5620.8857,-2029.2874
859.3369,927.3349,-511.09836
-1450.7751,546.1831,-910.88446
-1323.6117,-551.71674,26.124306
-1278.8428,-928.5619,-378.4021
-1154.3951,-1433.9249,-577.0588
-1201.768,-2177.8516,-527.1643
-1920.1882,-1131.8514,-275.96915
-2541.5996,-889.2121,-795.26117
-4563.711,3594.9263,-1744.6
-4895.073,8961.188,-958.6247
-890.0746,3827.6165,-226.8225
1471.992,1236.9408,-929.81946
1352.0531,486.85498,-192.42372
1631.7893,-242.88608,-71.32761
1336.2811,47.625645,252.41908
1453.0587,-4.686398,337.09628
770.52545,157.42294,481.61606
1007.4108,-60.96941,51.675697
314.83923,45.157433,208.35097
994.4591,2386.4658,-1466.382
-3192.7163,9461.642,-3508.182
-3320.4949,4296.6914,-1133.2072
330.08286,481.62704,-584.71375
-1262.8507,786.6056,-319.0823
-1005.573,-336.83383,-208.39435
-1596.0746,-970.95276,-358.8398
-1437.373,-1465.241,-882.6168
-1294.8008,-2285.0466,-553.61035
-1960.8275,-671.83276,-237.49162
-1970.8215,-716.28436,-789.84863
-4350.325,5389.3916,-1655.4502
-3813.4946,8766.832,-983.6502
453.36182,2576.4285,-288.3635
1440.5786,743.1921,-563.6197
927.2345,-79.242615,127.07993
1087.9625,-650.9948,97.88607
952.7583,-834.9874,285.5335
1201.924,-617.2335,458.51898
1095.107,-753.0026,381.8935
974.6302,-155.73776,-253.98726
761.8815,-524.2397,369.55334
1472.5089,3885.153,-1082.2301
-3825.3425,10482.357,-3758.5571
-2130.108,3025.4478,-689.7045
165.93608,616.22046,-742.088
-1821.8994,213.75096,-469.05316
-823.23816,-997.5979,-219.62993
-1229.5013,-1010.6568,-454.61276
-1248.0859,-1866.8003,-1057.7389
-1428.5498,-1558.8231,-310.8854
-1930.0312,-626.7528,-450.19806
-1981.8788,225.08374,-800.35175
-4204.757,5858.6025,-1209.4531
-2576.211,7568.3867,-374.50854
492.79187,2017.2017,77.42572
771.9498,1355.0898,-66.00431
834.1082,77.7619,38.939674
1005.05225,-164.91685,194.5872
1258.2554,-179.9759,143.24239
1535.4293,-14.838391,218.12042
1241.4738,-332.19696,134.91011
1173.271,172.4644,54.831112
795.0661,-119.0278,-102.47999
1333.2004,3013.6516,-557.89746
-3754.9202,10099.821,-1652.7175
-2416.0813,3176.2827,-427.0901
-372.71274,1058.0781,-91.57154
-1764.5586,547.6832,-542.80023
-1035.2609,-869.2378,-589.92773
-1436.2625,-839.77893,-856.984
-1287.061,-1255.7032,-857.2572
-1494.843,-1183.5422,-158.93066
-1665.537,-461.3704,-263.67584
-2088.4285,-231.81384,-410.11414
-4873.122,5161.873,-532.3662
-2967.6018,8611.952,-360.4811
759.2738,1720.3875,57.188564
652.8038,1222.8202,-43.597862
1143.1335,-54.232067,56.70744
1135.7334,115.80855,-272.87405
1257.5265,-384.64954,95.13427
1681.997,385.2756,151.49425
1996.2328,-292.93054,323.50406
1776.0463,614.7377,-20.829287
1357.9949,-582.5181,-207.31664
637.4442,6586.6104,-869.9957
-4107.89,11077.596,-1699.9268
-1967.363,1284.4407,-597.47235
-1286.4603,1347.6697,-334.06116
-1650.4924,-249.33998,-340.9198
-1216.774,-435.31305,-460.1986
-1269.9303,-999.03265,-377.9564
-1217.9308,-1102.4888,-483.46826
-1244.704,-1135.7659,-253.45285
-1939.3065,-156.06508,-75.00273
-1746.3687,-562.7844,-511.03214
-3805.5676,3387.5403,-898.8671
-3982.9136,7517.3037,-623.7424
-569.74445,3953.0667,-290.944
1086.214,948.8121,-585.64734
762.0511,666.24786,-82.63069
665.52185,-9.515364,-51.417194
858.0529,177.20703,-329.2129
1382.4341,-490.18768,-353.8498
1384.4463,-180.14816,-194.6786
1305.2756,-27.439297,-317.8897
657.50385,1.9598277,-157.6073
1729.5643,1139.8851,-863.2557
-2566.7227,9972.402,-2733.7468
-2828.083,4133.349,-808.2911
1100.9874,487.38956,-443.23956
-1662.7449,822.41077,-193.94438
-1222.5122,-471.00888,-101.854454
-1712.2755,-709.55005,-36.666084
-1456.5814,-1364.0068,-208.40408
-1618.4437,-1049.814,33.82866
-1760.0792,-790.89795,-31.339191
-1817.781,-551.0397,-546.98126
-2804.3525,1951.3944,-1919.276
-3703.9656,7676.419,-3810.686
-424.84595,5480.1494,-1180.6272
-270.98727,1101.456,-1040.707
1441.3821,776.4686,-1373.2538
1585.6924,-599.09406,-852.99194
1538.6609,-260.14383,-313.6339
1501.848,100.125786,198.86356
967.20917,-173.03432,66.300606
977.9913,-18.300499,-172.9552
