# PAMAP2 dataset (wrist-mounted sensor)

acc_x[mg],acc_y[mg],acc_z[mg]
-469.33273,975.5409,151.47986
-249.42554,1322.4111,-22.638231
-234.44894,1060.983,52.620064
-64.63896,878.3198,49.900265
-83.67483,934.7825,34.08037
8.878691,1175.8986,-39.9189
86.31276,1273.5054,-39.05522
96.65574,1248.8821,-50.449604
58.68064,1188.3838,-93.47706
38.397427,1131.4352,-34.173183
62.59836,956.9793,32.866013
0.40198198,871.33167,63.354996
-97.70194,746.14514,77.285164
-260.27737,728.31305,182.52336
-369.16333,532.6567,239.85652
-478.1354,399.74686,176.21565
-673.8588,482.76123,277.42316
-914.4337,543.4887,314.41867
-1107.0605,472.26053,356.4453
-1340.5231,428.50092,394.63947
-1543.5249,493.21924,391.8453
-1451.2966,593.8445,366.02325
-1168.2711,695.42395,329.44128
-846.0692,757.98926,345.2353
-704.6515,653.2266,297.93863
-616.54596,627.9415,285.17908
-663.60626,745.70905,268.41476
-669.092,831.65216,263.83792
-689.2024,853.78076,216.79094
-670.67175,874.8186,195.98567
-701.68823,963.0499,145.19014
-767.8523,1048.5101,108.44436
-880.23737,1330.1279,16.4403
-1080.8064,1553.4364,23.833876
-1312.9836,1776.2343,-50.860157
-1636.4283,2063.3167,-152.14694
-1863.808,2092.153,-211.6152
-1656.443,1723.5118,-195.57896
-1438.561,1498.171,-176.73799
-1276.4512,1149.4896,-210.00827
-836.0175,352.26965,-185.56352
-595.447,-12.785633,-153.0903
-614.18335,-72.66649,-14.936044
-546.6017,-306.3874,142.2816
-558.0245,-425.27252,73.73838
-707.40216,-257.04205,43.85406
-830.36127,-188.75896,236.70865
-990.7297,-115.85601,148.50075
-1471.9911,256.24963,-102.87142
-2957.029,1521.1544,306.1022
-3630.9368,3733.4065,818.6383
-1922.9731,3159.0203,320.81674
-564.44073,1789.8264,191.1049
190.92012,1404.0109,127.29057
643.93823,817.49036,-6.369727
956.88306,540.2427,-126.012245
913.8313,598.5366,-182.72893
670.76,874.8693,-135.8914
440.947,1201.2053,-158.17107
84.41033,1661.0878,-248.79224
-666.67426,2786.3699,-366.28653
-1191.069,3444.2632,-316.01605
-1356.0916,3068.1414,-91.17325
-1693.6942,2583.5806,11.081393
-1497.18,1212.9199,-139.93059
-1165.5125,339.97742,-194.83539
-955.53534,-235.3887,-214.96165
-913.76385,-359.2148,-139.22691
-828.8673,-576.983,-91.21346
-964.49585,-492.37415,-105.61262
-1140.3665,-359.5192,-126.99827
-1279.2208,-95.601944,-43.527473
-1643.9115,333.23474,49.485313
-3003.3638,1908.6522,347.58972
-2903.8103,3915.0918,510.511
-1314.641,2798.8936,378.84113
-442.71368,1730.3544,304.75836
287.61768,1397.0682,261.04535
838.27844,872.7699,139.01874
1011.1954,621.66034,50.626877
894.57837,704.87714,-3.652925
658.92053,968.69476,13.917198
357.1021,970.2775,-47.074654
90.30115,1379.2454,-97.35747
-378.35892,2716.0679,-186.31883
-913.8485,3866.7368,-223.7
-1279.6533,3810.035,-193.49576
-1390.9852,2680.9136,-178.58679
-1169.5284,972.8243,-171.0296
-950.3469,384.60834,-167.04436
-929.2001,-239.85945,-229.07863
-836.6218,-513.15015,-239.39403
-834.6894,-697.07605,-240.4949
-1042.1896,-277.67532,-147.98114
-1088.7703,-263.47772,-55.126602
-1339.2289,62.074425,31.201027
-1821.7402,206.32921,-1.7531203
-3729.5742,3508.4092,522.2778
-2714.234,5443.669,406.48035
-596.50964,2313.0923,99.83477
312.89334,1496.2961,75.59345
1101.0638,844.9751,63.621727
1143.5876,468.81793,-9.710404
993.84674,498.50446,-68.503494
740.5156,668.0167,12.868555
645.82007,567.1109,20.716843
441.13022,833.8352,-46.28444
276.93787,1320.6222,-132.70415
43.51328,3055.4187,-247.1881
-641.52954,4552.9175,-326.5838
-1190.3394,3777.6782,-166.20193
-1151.517,2192.7183,21.66252
-1059.3262,791.2955,40.77328
-827.8293,151.52884,33.2954
-791.43536,-300.42163,-120.096176
-763.9398,-328.82336,-132.05803
-922.32635,-567.643,-194.79146
-1040.4948,-363.5057,-202.11075
-1185.624,-255.32526,-87.49248
-1325.0217,209.75186,102.2778
-1836.5405,460.31177,-53.496414
-3606.135,4035.3916,605.7097
-2285.8613,5190.4014,571.0166
-514.065,2353.201,79.481895
358.85663,1693.4191,105.57265
925.84235,759.57715,-37.51478
998.3739,488.21277,-33.011154
972.6193,382.43146,-107.72401
821.7125,554.21246,-67.28298
752.2146,599.789,-11.481311
468.5038,853.0329,-34.10544
405.71326,1644.1794,-139.91637
-144.25533,3736.1494,-290.98297
-713.28186,4359.49,-378.12903
-1106.7894,3331.4153,-180.00066
-1099.6785,1749.7097,-83.32966
-1082.733,562.14703,-132.61357
-883.5587,37.473537,-155.688
-882.82446,-358.0207,-141.35365
-768.8519,-310.75558,-164.99765
-936.42694,-409.65735,-115.695786
-906.30634,-364.1078,-90.21701
-1089.7404,-281.42313,14.241057
-1098.037,122.672104,47.08116
-2132.5942,592.4663,41.70208
-3945.062,5152.3564,491.9059
-1791.7833,5148.431,250.09296
-272.03882,1829.5228,47.493996
544.0747,1441.172,28.346773
965.09503,339.7915,-16.70078
970.37195,288.03183,-54.445908
769.22327,253.38446,-36.91165
647.35406,465.85025,30.079184
620.3482,289.4686,16.989416
445.3555,761.5297,-12.212152
402.59036,1218.7666,6.8064036
168.30096,3159.3767,-203.89122
-646.6296,4453.9414,-324.7116
-1063.8113,3842.3252,-111.69226
-1065.1467,2198.0513,-28.37215
-994.0439,852.6074,-0.07548166
-943.7512,101.54673,-17.165426
-893.159,-197.22792,-101.03509
-813.64484,-535.09564,-155.64131
-834.84973,-526.17456,-138.98933
-947.02747,-353.57605,-48.38434
-997.8719,-207.04976,66.377594
-1287.837,-114.13966,5.9676795
-1905.5747,356.1653,-257.9584
-3722.5056,3879.595,352.95044
-2531.1064,5193.563,301.25113
-622.95197,2533.8503,6.5921254
285.2759,1752.9586,34.882652
895.9676,725.6509,-33.95144
1124.2771,346.78784,-60.011745
933.2753,248.94409,-95.24737
759.1923,680.86163,8.254207
661.1748,490.28616,-9.770564
493.73483,803.1684,-63.61455
313.19873,1117.417,-132.83513
49.190853,2821.9182,-211.21143
-624.0637,4009.7002,-379.48096
-1007.05835,4023.8145,-198.08623
-1291.26,2771.2395,-29.96008
-1123.0872,1092.8942,-6.010784
-948.9533,126.01871,5.284465
-892.2374,-136.94893,-36.953217
-928.1762,-432.0817,-23.036724
-815.7747,-408.1672,-93.813614
-951.0054,-411.24774,-114.93083
-820.37604,-150.01245,5.6325736
-1075.8165,-132.41628,55.594444
-1030.4702,170.16927,-77.746284
-2637.4993,1789.4167,139.55786
-3250.923,5365.919,400.2521
-1212.1431,3791.4187,64.27611
-125.42663,1789.4984,99.99286
542.93414,1086.5846,19.394424
851.69775,362.1477,-5.039863
947.9441,299.41727,-85.503334
748.08044,526.5758,-16.50581
753.1018,481.87695,19.002596
603.5618,629.8278,64.366066
527.08954,907.0913,-125.80891
301.6873,1919.6127,-158.71884
-169.52504,3919.8306,-248.3658
-767.00934,4228.792,-330.34537
-1325.7784,3462.058,-129.69376
-1353.7457,1911.6307,-107.00019
-1091.4109,531.9274,-111.89637
-898.3051,-0.5127018,-156.78078
-745.9737,-411.8141,-103.63176
-759.00946,-357.3099,-193.93379
-721.90466,-581.23676,-275.9917
-840.5026,-214.96494,-124.84217
-1002.7362,-205.86592,93.96344
-1137.2372,106.647865,42.030308
-1768.7054,204.43636,-66.400246
-4026.426,3747.8213,468.00717
-2524.8333,5666.396,312.03616
-775.2084,2121.9626,29.853758
142.64177,1665.4949,2.751053
765.23566,712.831,-228.43935
969.5856,357.1131,-334.89877
962.34216,391.0126,-293.62537
992.3731,693.2895,-201.53427
848.934,389.02908,-190.70296
678.40173,768.41754,-201.20628
440.80917,1049.4208,-251.91963
236.66441,2841.4153,-346.4784
-888.0609,4640.4517,-509.50192
-1341.6406,3866.2146,-236.94418
-1291.3767,2472.508,-66.26369
-1208.9708,1287.0481,-44.799034
-1050.3878,347.77884,-87.37354
-960.82513,-136.9735,-175.10205
-876.3374,-425.58258,-156.40741
-746.63086,-416.67535,-110.32114
-824.54004,-452.37256,-122.89057
-744.3464,-226.65982,-63.711758
-1138.581,-164.21477,-47.242786
-1105.2567,43.656242,-92.06193
-2828.7378,1467.2921,318.48877
-3652.8032,5725.559,541.4769
-1385.883,3645.6963,239.69484
-172.98936,1781.7555,103.02736
739.53674,1289.6558,67.331696
968.9812,472.70724,27.922329
1007.2933,356.16882,-1.5551083
713.4821,603.19714,29.600752
661.6233,644.0104,121.15696
487.80655,519.5253,116.62546
376.66846,871.2832,2.820209
323.3433,1203.5679,-35.06054
40.756073,3254.051,-107.7706
-832.8673,4580.869,-289.96442
-1248.1785,3615.273,-143.56822
-1357.1641,2175.625,-62.426956
-1117.0288,911.63416,-63.329277
-1107.4933,266.52496,-106.54065
-882.23303,-323.97906,-139.08577
-819.63464,-472.14197,-149.66718
-786.183,-603.28357,-125.562195
-1009.39905,-502.3019,-58.131855
-965.73413,-254.81693,67.90272
-1184.5763,17.35525,-12.312553
-1248.9547,30.958359,-192.32225
-3817.8547,2557.6511,231.33798
-3444.808,6064.66,251.18088
-1045.5887,3026.2825,19.57975
-80.188736,1756.1086,156.46968
682.97656,822.9196,18.632877
1031.2288,311.05307,-59.812748
940.4273,355.81253,-9.354792
796.25006,613.58154,111.89595
716.3091,524.7538,57.768917
531.52814,705.6563,44.672436
342.46628,926.1814,-36.23182
182.47832,2098.5,-95.43333
-408.8642,3758.0674,-241.06895
-1116.8058,4153.3804,-234.55957
-1377.8417,3030.9546,-110.994865
-1233.9774,1509.3676,-44.433594
-980.53845,418.6979,-43.813953
-862.29486,-3.2843704,-96.24247
-897.3275,-399.64404,-135.50032
-777.7982,-431.63437,-147.90485
-800.0161,-584.0947,-149.59003
-868.3453,-258.10342,-39.160667
-1011.1909,-227.90746,61.836563
-1094.2097,106.7193,-183.24069
-1963.7131,355.24414,-111.50826
-4011.8657,4647.431,562.8212
-2170.2754,5058.991,246.33893
-525.06946,1956.0604,68.73313
342.86423,1502.0518,97.04554
745.1121,424.32974,-9.021184
917.5606,263.05612,-71.4276
809.9773,236.16173,-51.224396
736.67535,603.3423,9.632454
646.74115,501.41257,25.933638
524.7723,746.6416,-33.79344
386.77502,1155.6089,-91.294525
133.64005,2928.4915,-182.41182
-706.38885,4146.812,-410.9105
-1237.2532,3905.4695,-264.7713
-1316.8912,2482.0283,-185.58382
-1050.1195,1136.3148,-160.13783
-1057.3531,249.48843,-129.31612
-1071.9293,-195.89198,-237.31422
-1082.593,-573.8085,-258.18973
-828.03516,-506.30484,-192.10318
-923.08325,-464.97037,-142.61961
-806.3992,-191.96132,-41.74999
-1169.338,-124.631996,128.73589
-1062.938,134.1846,-89.93068
-2729.0918,1332.335,185.97034
-3911.7007,5107.7456,432.35287
-1793.7466,4116.046,73.20021
-309.69073,1767.6752,-4.097075
402.56818,1126.4275,-52.603203
831.7143,435.29675,-84.27603
991.68677,359.55988,-137.96524
802.03143,454.7793,-103.657234
702.7844,530.9883,-61.33207
490.13815,722.30774,10.010652
316.61102,949.4181,-72.53044
122.84627,1702.5009,-133.887
-594.29565,3933.9983,-219.43565
-1423.8228,4391.675,-258.97443
-1626.7281,2798.2036,-67.70192
-1357.434,1345.316,60.107197
-1054.389,408.05075,73.55112
-971.4075,-48.333893,60.230328
-858.2224,-428.07953,-64.16133
-809.0107,-527.48883,-127.474075
-796.0724,-524.4546,-131.45177
-839.96375,-251.97589,-51.435345
-910.0138,-147.9053,1.6156874
-1088.284,84.25228,-30.693577
-1551.9286,222.73378,-61.71672
-3742.509,3211.2651,504.82083
-2731.8667,5192.9507,450.82965
-856.9738,2443.4014,126.24772
13.373408,1604.5359,112.05353
621.13715,717.02356,44.685863
969.0903,394.37485,-38.611557
875.6017,232.02055,-66.57145
713.59296,520.94855,47.037052
616.53217,595.8531,33.229156
500.8133,916.56934,-33.75655
306.11823,998.54297,-173.88898
96.106155,2411.9524,-168.6028
-543.2848,3839.6213,-274.962
-1220.2155,3990.126,-244.61313
-1484.3625,2793.1238,-125.31412
-1138.5189,1444.804,-8.307485
-1009.54736,497.70044,-19.572012
-859.39764,4.753156,-74.41844
-895.06714,-383.11987,-111.02037
-818.2578,-484.7256,-106.872375
-920.7026,-586.3726,-122.18692
-828.87866,-316.28735,-94.99065
-1106.9253,-217.98332,-4.5759344
-1115.9408,72.04815,-95.82753
-2297.3186,726.77997,20.911703
-3874.9297,4868.0215,415.278
-1997.6559,4628.7656,213.63904
-407.5833,1981.9127,23.73353
459.916,1395.9738,-56.01517
774.37555,491.44885,-106.29608
869.6832,384.0651,-126.041595
741.297,361.56537,-42.205906
665.5586,518.5049,-29.259926
591.5823,498.07867,24.347578
457.03253,708.26483,-40.17449
412.64377,1149.3021,-83.39036
-23.760853,3121.412,-219.02806
-1032.797,4291.3364,-422.4687
-1241.2396,3539.1152,-212.03072
-1228.5425,2342.6194,-118.84986
-1057.5918,944.653,-87.51439
-1006.2276,182.93283,-122.65138
-916.5032,-337.27432,-164.78384
-915.80725,-522.9087,-185.65147
-900.2379,-702.6732,-224.47139
-867.55206,-508.59888,-133.48152
-944.8715,-355.00003,-27.764656
-1087.4886,-37.20309,-17.920229
-1782.0116,266.8131,-122.58951
-4102.817,4038.4521,528.7566
-2652.3503,5037.5835,479.36273
-804.9655,1992.1399,159.69118
64.542854,1529.4799,132.00104
669.5601,543.5065,-55.271843
877.20056,534.3177,-49.876102
745.1982,500.31763,-86.321075
797.74036,602.31683,-31.296116
716.21204,440.4337,-26.419558
606.227,847.74976,-41.627895
413.7777,779.7069,-145.05193
310.78128,2119.2883,-64.13848
-471.7898,3939.3967,-242.46274
-1350.1158,4220.6616,-140.60701
-1640.0155,2777.8508,51.975506
-1366.0353,1332.9479,87.198875
-1083.6329,325.36407,58.679043
-809.8227,-102.89957,-95.383766
-873.7531,-482.2475,-225.65042
-757.2374,-445.32315,-212.35002
-818.0469,-650.20624,-197.2343
-846.2025,-381.90353,-145.70871
-1148.786,-268.6186,-27.284218
-1211.8364,148.81622,-76.18677
-2648.7698,328.65414,84.12382
-4385.0693,4474.692,408.7426
-2541.1414,4517.396,200.6095
-745.71606,1893.6006,19.917093
279.0665,1433.4899,-61.27526
800.25476,716.9969,-54.183315
1040.4539,618.9462,-39.427982
903.4198,427.97772,-18.599306
728.6434,542.18713,-1.7791702
575.4732,435.02676,51.183395
392.1299,838.06134,2.9947555
277.28793,1296.5586,-22.859045
-135.16588,2958.3906,-167.2257
-1305.0736,4613.672,-317.36676
-1688.2137,3693.6277,-142.61554
-1466.6244,1992.8092,-30.929926
-1125.6664,779.479,-22.92201
-965.4121,104.25849,-40.28376
-879.17285,-174.00607,-183.63622
-790.21387,-498.24442,-218.26721
-716.7572,-746.3496,-234.37576
-813.763,-500.37213,-183.12721
-871.4807,-200.14847,-17.02081
-1112.0374,-85.67007,-69.262085
-1474.9114,-85.28769,-177.40308
-3758.597,2622.0698,395.49197
-3351.8647,5566.028,352.09302
-1306.3655,2868.3086,118.342255
-88.925125,1630.7437,15.290734
513.20306,907.4589,-178.42815
808.5847,855.659,-189.28288
999.22046,595.281,-149.96948
984.253,304.4691,-160.94203
800.5477,31.870615,-140.20058
658.5787,448.9544,-36.100197
395.4879,612.78735,-0.20979582
502.22275,1795.7128,-213.55757
-522.3558,4264.7114,-464.81555
-1287.3524,4367.249,-407.4211
-1248.94,2555.6313,-207.00269
-1133.7078,1405.4012,-229.20251
-929.86163,456.5976,-209.04218
-740.9764,-82.010765,-295.29987
-670.826,-600.2662,-308.7877
-777.8284,-440.78455,-186.76326
-936.0567,-357.03033,49.7315
-778.19324,-52.017773,13.633037
-1027.7769,-345.4523,23.623066
-1138.8389,260.22778,-109.9719
-1910.5632,168.36943,75.59086
-4037.6328,3648.5574,183.08902
-2647.3223,4970.6465,103.50122
-1050.9727,1880.4327,66.63055
16.551085,1376.1547,-66.8957
478.10626,603.8179,18.136488
803.0201,574.0469,-53.963837
852.19507,359.75168,2.6928039
737.04456,634.9413,55.88773
681.9347,559.9052,66.22882
579.34955,838.9988,31.67585
334.59286,1042.8468,-32.919556
142.86765,2319.1194,-141.8848
-523.0606,3910.7104,-307.3558
-1319.7349,4287.832,-229.48383
-1608.5371,2944.1255,-107.12156
-1279.4142,1345.8652,-129.2325
-1188.1885,341.8582,-79.8729
-1080.4187,-104.76457,-129.90665
-1023.6139,-505.80035,-161.79916
-816.0955,-665.8647,-163.32518
-939.5471,-646.1009,-28.741375
-882.26086,-261.99554,61.02767
-1130.4252,-230.93918,136.29443
-1192.1917,-51.10116,-144.55193
-2474.1023,768.95984,92.49164
-3965.228,3787.2068,653.9156
-2615.3909,3925.8633,352.6728
-1266.349,2100.4114,131.2024
-171.80164,1611.5629,-26.061502
452.61642,917.7837,-70.99474
838.2495,843.6189,-94.98692
864.3166,716.87756,-141.07332
658.11444,883.0702,-67.02633
505.75537,895.2944,23.001963
327.9585,1157.7087,-39.519768
5.2061977,1572.9379,-42.419437
-736.25214,2899.9185,-61.574764
-1488.5668,2969.5388,-2.751866
-1602.689,2834.561,110.349144
-1738.7014,2265.098,102.7605
-1415.3348,1052.0023,-26.055742
-1178.6093,108.65011,-154.407
-967.6317,-325.86996,-81.36991
-904.2167,-450.8095,-166.35556
-781.96295,-506.07013,-208.4338
-901.5473,-562.72003,-176.22478
-1024.1193,-280.27673,-162.10628
-1172.019,-247.60863,-80.06086
-1392.5,215.45529,-80.45074
-2836.488,1496.4773,164.4657
-3298.4128,3818.9736,381.59674
-1731.4005,3081.0833,248.27762
-743.9857,1849.0789,206.46257
85.606064,1439.8075,99.02305
544.92566,843.2327,150.5985
837.56036,661.00226,50.3551
803.2401,666.6051,18.630602
639.0573,727.76843,116.92952
424.0531,716.7816,130.45087
204.53212,1048.0802,31.413626
5.915589,1501.5809,-73.51124
-328.8823,3008.9297,-83.98545
-1226.3823,3945.0125,-186.71988
-1792.8329,3498.939,-201.54533
-1729.9912,2087.0603,-167.26926
-1266.0618,911.2631,-187.2783
-1193.1694,140.95105,-202.27347
-1022.0533,-318.8157,-241.02928
-892.0424,-430.4989,-121.94732
-747.176,-595.0382,-125.22158
-899.8678,-454.2867,-87.31288
-848.94104,-325.28696,-1.0493108
-1114.495,-62.929924,78.499054
-1217.1105,26.390661,-88.544426
-3525.8794,2131.5044,439.56738
-3577.4473,5153.506,772.7929
-1426.985,2820.753,276.18304
-362.88138,1723.8883,84.52871
593.3515,1108.537,-1.2517298
827.18756,685.82947,-48.658188
907.95215,567.9381,-40.543526
683.3601,527.57404,81.17255
581.1469,541.645,71.34541
490.35138,758.94196,102.98804
334.62378,854.69116,20.5166
143.78987,1646.3054,23.992144
-296.67572,3289.8193,-133.35907
-1143.8473,4012.57,-170.0925
-1492.7982,3235.2976,-87.82243
-1448.6681,1812.6002,-93.931145
-1162.2429,746.1557,-77.25342
-875.171,193.72987,-113.94255
-706.20123,-197.90535,-162.37881
-720.1688,-320.53226,-132.14334
-806.068,-537.8856,-114.60902
-944.1296,-348.59238,-40.586296
-936.0766,-322.57318,73.886185
-1121.4103,-94.64712,-4.8565574
-1423.9236,73.7609,-113.4404
-3546.5361,3142.9966,491.8019
-2848.0962,5302.0073,453.43924
-1083.5305,2538.7727,38.564625
-14.939156,1800.4921,53.27898
660.04395,1045.3527,-45.4607
910.5402,599.09686,-93.807976
918.91516,361.61542,-35.73887
771.7794,495.78278,11.120872
691.30206,443.10858,-4.7829175
542.34906,798.5136,60.237434
312.52002,983.8251,10.536524
188.17413,1972.8058,-25.8917
-691.71985,3918.7385,97.15511
-1503.4873,4176.137,96.3443
-1531.9056,2728.0989,86.20026
-1329.9739,1471.9209,25.494719
-960.24475,514.61743,-82.09032
-858.1914,55.759632,-218.98695
-688.38116,-471.19016,-305.7869
-715.91113,-488.32645,-254.75069
-825.2948,-704.1549,-245.53798
-897.9608,-380.85678,-207.21732
-1042.2246,-388.51328,-13.361159
-1243.5162,81.058105,22.601927
-2017.9476,307.02994,-13.002552
-4173.832,3984.8137,567.6869
-2459.9363,5260.2837,463.49762
-718.91815,2202.4124,123.87401
85.53697,1465.7716,60.68153
614.11005,592.08215,-59.86911
919.25824,441.76877,-65.55532
857.7852,462.21112,-71.82997
801.9982,607.6694,34.12411
617.2437,561.5343,16.122791
456.78653,946.2374,-32.471043
256.10995,1201.6029,-4.018188
39.68268,2572.0012,-3.4986386
-780.2432,4155.956,-124.34459
-1368.4553,3825.9846,-7.4225655
-1439.6898,2423.837,46.349686
-1107.1786,1086.9451,18.381948
-1157.7076,387.2721,-31.113337
-940.49036,-130.09857,-83.053825
-826.19073,-502.8759,-157.55818
-641.4022,-637.5381,-152.14175
-787.9203,-434.0353,-86.19029
-761.23224,-197.31898,89.45582
-1105.7767,62.15896,83.64792
-1095.0796,-40.838673,-38.736526
-3009.266,1618.5336,201.25987
-3643.9827,5197.8096,687.69867
-1557.5892,3321.584,377.2158
-245.21683,1805.2747,81.94837
627.7965,1145.936,17.844921
996.5093,557.96747,-1.8831933
991.38684,453.38828,-24.056622
822.05646,468.84308,-88.09523
734.0789,471.74576,-107.01783
612.0217,568.8099,-36.67556
450.6535,758.7352,-57.29472
388.81604,1220.8972,-109.91026
-27.25313,3305.563,-103.70574
-1260.5804,4437.337,-216.21298
-1561.0939,3188.6538,-9.089578
-1462.3248,2010.9891,100.35676
-1169.3451,893.1133,73.15849
-936.33984,146.09421,3.0489838
-790.33453,-285.48462,-65.70117
-790.72217,-274.7965,-113.54748
-827.2612,-464.33182,-106.91317
-930.8158,-426.82306,-111.89969
-934.56244,-292.94336,-34.863148
-1064.5762,6.5042005,-18.14602
-1398.091,61.68753,-155.86511
-3489.5115,2842.384,330.324
-2701.5388,5428.87,545.55615
-889.6556,2670.1052,178.26642
81.07976,1542.4604,43.758186
748.3838,660.55005,-2.233978
932.21155,480.3409,25.464718
867.5505,416.337,-19.235498
780.82434,485.13626,24.502916
639.2403,360.55325,29.524101
534.28986,721.96075,40.576996
291.82654,832.97156,-36.746555
232.02629,2229.1392,-87.86116
-353.68622,3752.2834,-303.47296
-1083.6704,4086.088,-165.25186
-1628.4203,2993.3433,-55.897945
-1335.5605,1435.8989,56.95154
-1104.9639,612.6921,55.10903
-928.1519,140.37283,28.07137
-832.23975,-302.92413,-68.41781
-552.00885,-433.89847,-147.00035
-624.9807,-601.995,-225.42346
-756.29266,-234.2183,-74.91293
-983.4411,-283.86945,92.60542
-1103.1688,82.14367,-75.89294
-2033.4813,-48.15466,-24.188362
-4135.583,4442.499,821.9076
-2291.3796,5016.9346,551.7384
-639.08563,2065.7976,103.5734
624.0498,1755.576,-16.108644
1141.0759,665.7552,-2.9398987
1244.9054,476.97125,12.116781
1049.9691,279.57663,-106.307396
745.3529,550.50793,-49.184273
547.7848,450.6346,-4.919438
334.06174,1063.0319,-31.402987
150.77357,1584.5674,-71.64135
-447.65112,3481.9622,-141.14607
-1435.6763,4227.461,-177.13907
-1738.0765,3208.4885,-67.96237
-1584.6437,1810.67,-9.830159
-1190.5573,949.55133,26.02057
-976.1875,277.81387,-41.399853
-854.24365,-213.7356,-150.51775
-932.81104,-591.47925,-180.71043
-803.6974,-651.3275,-168.27441
-928.5462,-488.11548,-100.21994
-794.3179,-216.47803,-61.08925
-1206.4154,-29.360178,23.154581
-1238.8225,146.0508,-131.81274
-2745.9148,1782.9027,165.10983
-3429.3032,5096.8135,435.91833
-1638.1046,3577.4375,106.87066
-250.45035,2086.0356,40.19893
508.25256,1132.3365,0.0749912
793.42523,587.9608,-35.575115
871.1341,420.6127,-46.95671
847.86194,488.77396,-1.2171386
732.1226,464.91516,6.8053975
573.2742,675.6112,32.19933
364.73727,794.5098,-37.09669
234.34326,1598.3785,-31.8879
-272.9257,3666.2544,40.195427
-1152.1895,4722.781,123.061
-1516.5894,2992.6614,120.618866
-1208.9568,1433.991,92.17635
-940.57556,800.2294,108.281395
-845.23627,192.18198,-93.98454
-712.8623,-409.02417,-357.29846
-696.2597,-532.75635,-448.38205
-634.477,-630.3667,-449.7527
-698.786,-292.13947,-250.0751
-869.7256,-258.74957,-32.553673
-981.61664,-39.102432,37.289173
-1614.2145,289.6754,-6.670874
-3645.8193,3630.6824,388.73184
-2457.748,5353.3657,575.1453
-783.3145,2616.0623,314.1066
208.35846,1506.4651,123.43461
724.4775,696.36346,-24.955692
924.65,316.3165,-134.6287
824.3791,331.00195,-235.49606
818.6689,545.3697,-209.49376
794.3293,473.0728,-192.64069
697.19025,761.6617,-220.07288
439.14633,1250.594,-208.04082
152.56944,2520.3577,-230.95494
-711.1783,3833.618,-344.9634
-1388.9255,3819.8547,-155.68796
-1409.9435,2542.9177,-32.642067
-1220.5682,1280.5479,35.89463
-1056.3309,405.43054,-68.836266
-885.5363,-190.93938,-167.1586
-954.80414,-363.67883,-185.84706
-829.7025,-444.03046,-130.58308
-914.35425,-441.70752,-125.53095
-904.92267,-417.7173,-132.24817
-1227.7958,-148.01805,-65.19222
-1386.3522,79.3169,-63.339428
-3344.124,2645.1401,268.8199
-2857.605,5503.3823,342.1049
-854.97656,2854.9038,186.13681
64.214874,1711.1318,4.9800167
735.676,922.47784,-29.366415
879.9545,519.1534,-21.495398
896.6999,508.59027,-92.56162
745.2814,617.3154,-47.833153
702.54224,377.48428,-14.93968
584.6019,643.0011,5.0598335
415.19455,838.25244,-98.31541
313.73734,1565.8378,-91.49162
-247.7727,3680.6692,-313.365
-1363.3165,4348.4062,-432.04355
-1485.7402,2863.5557,-286.9099
-1399.5536,1933.6324,-131.3086
-1124.6625,735.5148,-93.95997
-987.15295,41.77413,-123.43377
-817.5792,-529.5429,-113.69676
-847.4027,-420.31982,-56.30869
-803.16125,-539.81366,4.8307257
-791.49316,-276.50983,16.311726
-752.2453,-422.72107,32.992085
-1065.2938,-8.559699,54.057358
-1599.5146,60.57174,-139.90538
-4063.6177,3745.629,444.97314
-2559.799,5554.017,346.74255
-673.10925,2125.978,72.225105
44.45724,1491.5061,-26.957674
641.2133,453.85883,-144.1647
874.8117,298.93134,-117.84184
882.24896,344.60132,-93.45112
817.99994,548.95636,-79.97654
789.888,370.51868,-110.11346
663.94965,638.70435,-61.890247
441.59775,927.4859,-102.710236
286.65546,2002.5596,-65.30484
-315.24063,3787.1763,-183.98288
-1227.7943,4272.9683,-90.33822
-1507.5228,2799.5393,18.834036
-1253.5712,1466.09,68.742485
-1127.9337,451.48306,26.042713
-925.7198,-77.978775,-47.48003
-809.38727,-416.34235,-96.35136
-660.01587,-304.5335,-51.200592
-767.0075,-470.7127,-28.817764
-733.8633,-213.28667,-6.2005053
-947.5021,-288.94574,21.11369
-1036.5903,114.344635,-112.55927
-2154.6897,704.66907,235.24506
-3531.5688,4474.7803,471.29504
-1706.6138,4277.5576,221.56725
-462.67056,1853.4717,150.19684
392.93103,1425.5073,-20.810314
705.0467,506.17654,3.9373534
891.6132,580.7177,-140.48102
721.5481,442.72278,-151.03311
741.76715,481.6006,-143.8939
647.2222,451.0411,-76.011215
654.10583,720.9485,-137.4272
448.2631,876.36066,-96.2242
269.92343,2289.5825,-163.38216
-814.5402,4398.3184,-225.65344
-1571.0197,3924.05,-39.586506
-1436.3771,2040.1161,128.47433
-1006.05646,1252.0667,203.84076
-859.2419,388.41068,72.86931
-633.88824,-10.235122,-27.041878
-784.8645,-330.0488,-166.2431
-733.9783,-433.20624,-223.51355
-957.9345,-630.5613,-256.9599
-832.39026,-438.80884,-149.96138
-1226.1719,-252.26909,13.869434
-1097.103,131.33316,-91.82384
-2825.9749,1225.2262,257.14777
-3611.7615,5696.3516,428.75626
-1274.6006,3770.7795,232.96768
-210.54724,1538.4663,59.8929
597.79736,987.2589,-26.828083
745.2559,367.9536,30.57882
910.41455,310.36932,-51.75625
755.2998,340.88373,2.358313
718.6996,423.3768,26.433704
574.3571,487.3728,66.059586
474.81747,714.6705,-37.256184
350.6668,1354.9019,-97.17082
-138.18758,3615.681,-253.82964
-1353.0348,4492.578,-278.64847
-1526.6283,3084.7422,-175.4433
-1503.5115,1830.3206,-66.112946
-1191.7268,802.8025,-22.802
-1099.1566,116.97369,-94.944336
-960.1841,-435.4682,-182.31041
-853.09375,-510.14902,-131.64565
-778.5608,-674.3661,-88.83987
-791.4881,-439.9065,-46.06054
-889.86865,-389.37186,37.376263
-1178.6415,-3.168167,37.335236
-1612.0331,206.59752,6.0563345
-3822.7966,2913.6772,447.87057
-2963.869,5079.943,377.99197
-1107.8707,2644.8496,126.86136
-119.94366,1589.6318,-72.13376
559.31165,725.7318,-134.0629
852.85895,608.84973,-148.19208
876.3708,551.989,-206.57625
870.21356,518.4573,-195.26186
675.4369,495.248,-88.64244
517.865,891.1629,-65.31103
258.56793,1224.8219,-129.06853
80.992645,2647.0134,-95.3617
-623.0791,3890.0298,-125.892494
-1267.6826,3984.494,-129.6131
-1378.8733,2551.405,-95.92373
-1100.4672,1106.1111,-40.173527
-978.03314,280.49057,-117.0458
-806.66394,-261.92725,-186.30884
-821.72205,-557.2062,-189.56999
-675.4438,-568.4135,-165.50249
-854.66815,-404.70752,-163.97629
-786.9301,-198.26802,-101.723976
-1138.1952,-69.11555,62.764526
-1239.8375,-7.7485657,-87.88188
-3051.3965,1850.7837,86.29359
-3477.9065,5283.4204,373.97815
-1382.2964,3545.6777,92.623856
-313.29776,1796.9215,7.344811
395.96884,1136.1252,-98.36352
642.36176,505.73688,-25.004293
860.2306,330.37607,-29.414558
803.19,322.82825,-29.191483
743.1564,341.1104,-47.13999
652.4352,323.6634,-11.573664
393.07037,722.1437,-57.013706
294.08344,1217.0079,-137.61069
-297.0132,3414.5974,-503.56625
-1105.887,4130.132,-654.6092
-1260.7645,3401.4246,-420.76212
-1331.7466,2179.7327,-106.137276
-1039.3187,881.1296,99.623566
-885.3096,134.69621,84.430824
-797.17365,-407.59937,-5.294095
-874.32697,-480.021,-102.59853
-880.1901,-443.37378,27.203531
-984.1792,-366.90927,43.90723
-863.3395,-208.42032,-57.49071
-1112.8213,-147.08694,0.15086429
-1309.8636,88.808914,-90.010216
-2858.534,1849.729,30.528238
-3376.9094,5005.2793,349.3167
-1502.397,3581.4956,196.76546
-350.02896,1771.6456,4.9425273
275.69223,1122.621,-51.147884
560.33984,624.9361,-89.36745
686.85205,627.21063,-153.03484
799.7047,429.7832,-148.07951
855.3257,411.51004,-107.542564
675.2556,588.0777,-42.076435
548.33203,737.91583,-136.09642
337.92203,1380.7489,-143.74908
75.53725,3046.7593,-208.27226
-881.2217,4412.95,-368.9874
-1549.3179,3709.4438,-253.21053
-1431.3782,1834.2374,-85.27489
-1055.9349,896.5826,-50.370174
-915.44336,272.11157,-129.98701
-830.5919,-233.66774,-171.2549
-847.5052,-504.64484,-159.02861
-782.0341,-630.60126,-114.4052
-860.7063,-436.0337,-118.01872
-891.30707,-340.07242,-11.930029
-1097.068,-62.62933,85.371864
-1360.3131,120.53272,37.710766
-3427.118,2834.713,257.49432
-2977.322,5511.5,428.77502
-879.813,2766.5725,139.75838
-80.26153,1772.1603,1.3634425
502.9092,815.4628,-96.08367
707.4479,470.58102,-91.79516
790.6274,429.10477,-107.54445
827.3313,535.5414,-86.50359
739.5186,410.93063,-71.86896
596.90717,590.1385,9.464811
448.2736,671.6356,-90.37475
384.94522,1516.2924,-106.542496
-215.73277,3862.9,-264.067
-874.38995,4585.5293,-403.43503
-1187.5243,3398.8662,-175.88051
-1269.9386,1831.0253,-99.95099
-1198.2449,516.5508,-110.09925
-1047.3256,46.511295,-193.2011
-917.01984,-459.26328,-220.00931
-864.14746,-476.9302,-189.18658
-855.36945,-499.38083,-95.095634
-1023.6538,-181.43488,-117.21953
-1070.3805,-253.77422,-3.7930005
-1276.7544,82.883484,-61.252514
-1883.4971,261.28696,35.466614
-3892.5916,3797.059,484.06583
-2678.2693,5297.8047,308.36475
-859.7782,2383.767,93.25519
83.40073,1709.8503,-50.94479
653.4607,741.32654,-104.899475
885.7489,607.0774,-156.57115
902.379,408.28296,-235.23318
851.6864,517.4363,-168.58177
730.71857,511.00226,-78.130844
553.75977,908.3399,-85.27413
368.0032,973.4595,-144.05128
204.91302,2088.425,-85.903625
-364.00748,3763.5251,-250.64882
-1242.319,4272.1553,-208.77281
-1413.7687,2681.6204,-36.605324
-1204.1067,1343.727,-12.287452
-1099.6223,383.50394,77.172104
-1007.3719,68.91322,-28.52538
-1015.83044,-270.55014,-221.84012
-919.48517,-378.941,-232.32355
-934.3941,-534.605,-219.06549
-925.1745,-58.17521,-279.3848
-988.6945,-112.071365,-57.17517
-1084.9202,242.4013,-56.57601
-1652.0453,324.3321,118.26962
-3674.4624,3815.9604,480.78555
-2383.266,5149.202,356.3892
-795.45355,2243.6187,144.19083
166.57452,1620.422,7.973593
697.17883,635.0159,-56.052605
912.2127,440.5399,-102.362465
946.2614,270.80902,-115.86962
851.213,444.3639,-150.8196
685.7502,311.76538,-87.56674
556.0607,626.59106,-84.19917
379.44373,872.28107,-196.0321
264.43085,2161.7778,-160.26205
-877.36914,4457.363,-310.87433
-1814.7532,4098.9365,-256.4456
-1681.5334,2328.1243,-53.18317
-1397.0127,1613.7589,40.10084
-1154.5802,667.2812,-53.562508
-1015.0641,0.15248503,-164.3393
-897.50476,-511.78644,-229.50087
-883.5201,-485.87985,-208.9757
-844.1795,-649.30786,-163.59358
-766.1099,-456.53046,-75.82846
-908.54376,-532.05,68.67922
-1022.3316,-321.77856,134.21165
-2471.6934,747.4096,167.02142
-3842.1392,4264.994,757.5454
-2599.9028,4473.428,527.00415
-904.0861,2316.1167,92.75978
120.16831,1366.3696,19.668064
618.47626,720.98175,-60.016556
837.6,604.0343,-67.77195
845.9583,521.69,-93.493546
771.4601,519.8835,-42.784836
649.6196,512.6415,42.27671
456.6758,800.73987,23.179272
256.68826,1077.0072,-18.13301
80.19498,2232.3801,-82.5873
-1130.5735,4172.5737,-234.48384
-1988.5125,4017.4856,-176.6224
-1825.6371,2254.734,-127.11046
-1381.486,1187.8865,-53.356674
-1273.7941,356.02203,-72.02682
-1022.7842,-201.83022,-158.34422
-860.1373,-612.92285,-220.98007
-669.3073,-665.6023,-174.32143
-793.71704,-637.50555,-106.576866
-919.6053,-320.9271,5.018122
-1133.3849,-214.96764,55.29081
-1236.9213,120.77528,-55.43397
-2952.1133,645.8886,164.21658
-4410.497,4716.122,729.94434
-2283.0977,4131.1577,370.651
-582.5636,1586.1797,30.526579
410.30377,1189.9978,-49.496117
906.04596,493.15375,-72.24439
949.3572,565.2344,-59.231304
864.53644,360.79892,-14.300272
722.89056,501.9366,20.98086
559.548,636.4688,62.269264
340.7381,942.67773,24.672682
235.80078,1017.2446,-83.04746
-44.229588,2846.1304,-117.21555
-1097.3392,4454.696,-364.74677
-1785.9667,4177.885,-158.86678
-1706.366,2383.3403,-62.654697
-1163.4492,755.4062,-42.32917
-946.30237,109.09186,2.820555
-849.722,-100.89985,-72.301
-869.8747,-518.3793,-194.38045
-691.605,-714.58923,-275.15768
-898.07776,-623.5439,-239.64908
-804.3008,-189.94849,-93.01791
-1093.9521,-40.153027,10.821117
-1093.9369,40.018913,-93.57294
-2693.549,1108.8274,248.39603
-3889.8499,4530.026,871.43787
-2099.668,3953.832,489.64243
-625.2086,1943.4117,242.11484
214.63322,1132.6918,76.17925
707.71515,560.8484,22.462994
885.76355,548.9225,-23.133608
812.27856,636.00214,-35.122288
763.9398,669.2816,-5.7723193
661.14185,503.26498,9.405176
509.9333,953.2288,-47.660355
352.09265,1186.3674,-166.2053
66.23844,2589.9795,-251.56822
-911.1039,4413.6626,-492.28522
-1637.768,3819.4749,-328.28427
-1621.884,2392.2808,-185.39096
-1296.5271,1197.8451,-123.45299
-1223.9897,421.5955,-112.32233
-1075.6907,-216.03903,-175.62137
-1008.47363,-577.13525,-257.95844
-824.7911,-626.4563,-229.44449
-895.0487,-574.3693,-117.484436
-835.10986,-434.02362,36.213303
-1086.6179,-219.71306,121.94846
-1197.8228,176.59128,-1.5607738
-3119.0369,1579.1051,497.39224
-3726.7676,4879.9526,763.04663
-1540.677,3500.0737,307.41425
-366.4699,1609.711,192.04718
366.3342,1066.4344,70.65586
627.3714,481.1642,74.54682
785.2005,516.7416,-29.059547
675.9854,492.82053,27.701498
642.0392,531.4929,29.985468
507.50198,583.8909,64.544426
463.76736,785.0594,-20.178982
327.0745,933.33356,-69.08131
120.26403,2623.808,-216.24564
-1176.7495,4336.0273,-509.36115
-1810.4755,3570.2463,-356.00412
-1426.0427,2100.0996,-241.68845
-1172.26,1373.8988,-170.94576
-1095.6342,558.0841,-155.20908
-1012.13745,-103.70588,-299.98157
-998.416,-692.2691,-322.54178
-858.3174,-702.53314,-227.745
-920.3685,-728.3739,-68.372406
-826.431,-355.0279,65.59694
-1108.0941,-203.92876,270.8444
-1076.7322,159.2984,148.1501
-2724.8486,940.4582,413.61987
-4003.2769,4742.5723,974.0858
-1913.5789,3900.5195,427.75986
-588.45557,1651.0305,201.8408
205.163,1293.323,32.833473
540.48126,519.967,-87.47477
876.1839,388.3314,-138.49924
943.62585,381.20764,-62.12646
854.2381,537.2954,-59.19274
641.9174,585.97675,-62.375458
547.37006,812.1024,-125.531685
283.1718,1130.1777,-114.42375
44.85905,2658.6697,-226.72139
-1098.4861,4156.9614,-469.84323
-1866.2474,3696.1904,-286.56046
-1588.9008,2196.6763,-154.79483
-1339.2711,1223.861,-133.56003
-1231.8729,320.47955,-102.95218
-1020.4227,-311.88986,-74.837296
-950.9824,-539.4748,-79.58072
-778.21173,-557.68585,-34.32596
-843.01013,-642.94507,-14.872654
-731.6673,-434.70172,27.675306
-1149.063,-241.33557,127.76258
-1179.753,116.23808,-30.094625
-2799.871,1139.3475,295.98132
-3970.7234,4808.1724,910.83936
-1777.1377,3530.4324,288.16464
-538.96893,1690.8944,215.08139
295.90814,1316.0045,102.55272
710.58923,448.33713,63.269615
877.012,430.52466,-23.155653
719.0954,421.30402,32.432896
680.20715,548.06506,54.502285
498.91312,479.36935,96.31991
412.4839,725.55505,13.8908825
261.00327,965.4645,-39.302944
-23.993107,2580.7249,-128.40697
-1246.7872,4455.425,-295.36792
-1589.4064,3338.5984,-168.10518
-1467.8022,1932.6823,-53.160564
-1212.9647,1079.2139,-15.43654
-1148.4937,236.76834,-24.380495
-946.6508,-144.14293,-51.21937
-1017.999,-365.20187,-60.56596
-865.6624,-371.71075,-37.49206
-868.96576,-507.06772,-2.334637
-751.4978,-345.506,50.46185
-1066.4008,-271.82196,133.91534
-1023.23804,125.22574,-11.44829
-2649.423,1251.8037,406.76727
-3711.6685,4669.425,591.0914
-1654.5424,3553.1182,278.72864
-427.0423,1668.63,148.25954
377.78558,1290.2809,33.974575
711.8386,544.54474,24.858873
846.6285,374.87088,-49.621376
744.0354,323.9474,5.0714445
667.0368,450.7307,35.971653
532.0688,437.58362,137.26663
434.51443,653.1998,38.19725
327.66605,1008.8786,-117.36405
-239.19667,3152.0437,-227.82448
-1654.4114,4497.299,-324.3065
-2053.5308,3279.6396,-140.11816
-1715.5852,2061.104,-56.8714
-1418.3406,1023.50354,-7.7305884
-1199.1646,157.01947,-24.68553
-1074.0848,-392.24417,-91.64097
-1011.3886,-524.2246,-13.828204
-942.00226,-631.52637,45.11703
-912.4538,-613.48676,76.263695
-854.90936,-486.06528,65.57984
-1080.5302,-104.913925,147.70372
-1314.1252,95.71887,-28.814207
-3289.9607,2324.7273,512.4976
-3154.342,4768.7563,756.11194
-1364.8264,2654.1304,204.97409
-376.0308,1724.8424,63.575623
415.23706,1025.8236,-2.92726
708.3423,525.1787,3.918293
845.51263,323.36728,-62.314957
753.07794,379.43173,-27.218018
677.5966,464.93402,8.819954
513.6688,636.2814,70.54878
435.92422,736.45013,-133.2103
251.58717,1356.9315,-165.19893
-309.5969,3343.1426,-334.34247
-1503.8497,4160.9243,-352.70844
-1737.658,3004.6267,-130.65878
-1431.4125,1849.7703,10.661828
-1253.4044,883.2847,46.93623
-1130.406,143.60863,36.454597
-1013.51575,-365.32642,-11.435358
-847.9752,-516.0162,-45.80826
-790.8606,-552.9661,-45.23146
-839.76874,-514.68066,11.723476
-774.5358,-322.63467,86.17027
-1049.8789,-137.38454,136.46898
-1125.5754,75.16998,-179.59853
-2999.2495,1939.8788,409.27985
-3499.34,4887.648,675.52
-1510.6898,3071.7722,105.75174
-378.3183,1672.91,91.19823
375.33347,1121.1498,-72.33487
719.73193,509.33344,-65.460686
825.3741,278.4685,-155.19795
674.596,320.4843,-80.57866
629.80896,532.52795,-55.876617
560.6662,628.9524,3.1244402
437.57593,843.8289,-99.69136
222.61713,1480.4221,-79.060165
-613.3416,3176.086,-253.5266
-1906.5312,3747.4617,-259.16992
-1834.2091,2745.5007,-95.19199
-1631.2661,1802.5958,-28.764664
-1215.9607,888.9769,-8.476583
-945.64996,170.34981,-59.459503
-733.54877,-329.59412,-122.16291
-709.15546,-482.51962,-131.09097
-650.5694,-469.41046,-60.419083
-804.63745,-441.9088,-1.3314992
-702.64874,-361.20468,44.642704
-1059.5038,-222.86087,126.67745
-1014.9305,22.688238,-88.590515
-2723.6743,1481.5469,303.18103
-3507.852,4433.795,865.43427
-1666.2896,3033.4224,348.13596
-566.0298,1436.4012,144.29889
185.47835,1103.143,83.09382
480.96503,676.26227,109.02231
797.0116,493.65292,32.290592
708.3089,497.03186,76.24897
725.40405,533.12915,91.74118
614.431,449.44214,91.19776
531.0358,685.57745,0.9719144
254.16895,1207.8358,-42.31698
-160.77802,2761.7776,-210.6003
-1565.8436,4062.427,-359.2464
-1899.0364,3187.5845,-171.19325
-1551.1575,1975.5587,-54.789272
-1265.5844,1164.6583,-27.277855
-1064.9349,366.0344,-34.638435
-950.54333,-157.55168,-59.356483
-935.97235,-498.864,-122.62253
-894.932,-461.88013,-121.11004
-914.207,-578.3765,-86.267075
-739.3554,-431.0921,-12.873398
-946.2828,-374.88992,158.25946
-928.7852,-10.244593,83.06211
-2385.4978,717.10156,353.57068
-3939.6982,4534.897,985.891
-1920.5875,3988.7112,370.47952
-600.48846,1757.9739,169.56691
222.58614,1355.8291,25.091692
593.58496,467.69424,-25.87212
886.4205,370.49902,-74.82805
835.18414,277.73538,-35.737095
757.7642,426.02264,-62.6209
553.75757,414.95084,2.1286283
474.2259,705.249,-59.818047
333.6976,1088.5394,-114.4861
-0.4449922,2793.4717,-247.24156
-1227.8988,4076.2983,-347.0964
-1679.894,3217.0786,-218.6052
-1627.4518,2120.7332,-142.36781
-1299.2501,1249.0911,-66.03724
-1104.7343,441.73843,-77.50596
-892.155,-74.14915,-129.13705
-837.3318,-496.4626,-121.87607
-655.5628,-527.69586,-54.708183
-787.0872,-534.9683,-11.590451
-662.71893,-410.03485,50.44992
-1027.3264,-252.66934,84.24154
-948.3422,3.099087,10.048397
-2846.9238,1240.0963,404.9368
-3593.7861,4913.947,664.3121
-1464.6268,3461.7825,293.22977
-298.3889,1714.6504,151.16518
431.00723,1163.6187,22.15536
661.13995,458.1705,36.223095
898.85223,299.07294,-65.13685
826.861,299.70358,-12.871536
749.5224,425.8136,-37.467728
620.812,397.9239,1.9879615
477.4971,560.79004,-131.1513
318.19644,1360.3093,-141.84924
-354.1462,3356.0325,-392.00705
-1622.0939,4017.9453,-504.3812
-1608.2362,2721.982,-247.7972
-1456.856,1788.1008,-156.54562
-1159.5444,933.9268,-59.857914
-1003.67664,219.78801,-82.10947
-854.28125,-253.03746,-81.603226
-832.23816,-455.5152,-35.337486
-799.03046,-534.6474,21.102379
-755.51056,-489.0587,16.821507
-823.80133,-417.92603,28.48863
-974.14594,-21.824137,153.55113
-1437.995,317.63348,131.64334
-3313.787,2824.2585,611.4506
-2435.4634,4515.7036,591.40234
-891.94684,2339.5227,192.1174
-56.812416,1484.5476,106.90809
471.514,784.8201,78.85514
767.25037,481.91675,60.64958
779.72034,216.20872,3.0438967
702.8778,402.77524,60.83525
593.51715,435.4663,54.067127
570.2368,669.34863,3.9652145
392.4882,873.3908,-97.704956
287.70447,1621.6377,-216.01207
-459.85422,3481.0315,-436.0161
-1675.2395,4118.066,-397.3738
-1813.9646,2757.403,-209.93259
-1478.3367,1683.7344,-68.85204
-1243.6683,738.73914,11.645516
-1024.9268,195.53558,10.038209
-967.08716,-450.06824,-34.908535
-899.93555,-492.44852,-46.743954
-916.14703,-677.4712,9.965282
-793.56476,-472.56,-15.577924
-959.917,-371.95016,123.3331
-883.8502,47.363346,126.80664
-1605.5497,378.93634,198.27591
-3470.1072,3686.3232,628.75195
-2159.8638,4612.3066,467.14734
-630.02765,1964.8976,184.45404
133.38934,1436.1929,76.03191
531.2479,635.3201,16.160822
746.6143,428.59515,-59.782238
698.9743,227.27573,-92.66172
667.16156,396.38458,-14.358293
572.43677,348.99973,6.3554754
505.69894,585.5992,18.42599
272.46344,793.6273,-57.466797
157.10141,1655.1011,-78.58802
-777.6351,3557.1482,-286.10345
-1782.4366,3848.901,-278.28827
-1805.0742,2582.8904,-155.98842
-1498.5022,1649.5376,-91.62699
-1053.54,685.96796,-1.1780491
-870.8463,136.34785,20.715107
-622.59424,-330.52954,-12.872247
-613.5957,-465.84952,-40.85406
-675.356,-592.07874,-2.7682102
-815.7976,-405.34763,32.912144
-738.48444,-355.46555,102.809
-986.4623,-120.286736,81.68592
-1071.5458,85.27893,6.5983067
-3041.9067,1868.2759,564.30206
-3253.9124,4737.5386,613.28973
-1275.0956,2768.0361,162.75293
-315.97342,1496.0553,147.66844
306.1263,904.4223,66.693756
664.0697,378.1532,31.429085
849.6011,219.92137,-36.36201
748.0896,281.13605,80.06318
682.37695,364.5297,48.56256
561.7117,468.5651,99.26684
394.8197,755.87274,-50.20265
213.08391,1613.3047,-139.91232
-579.1708,3408.8481,-383.22272
-1521.3826,3699.8804,-384.88815
-1630.424,2644.0713,-170.03313
-1379.8439,1712.2737,-67.9924
-1105.7703,757.7514,-16.899618
-888.89496,184.91275,4.2346067
-871.6466,-282.20456,-26.11626
-851.1579,-395.2577,-48.966343
-905.789,-519.8062,-7.124654
-870.3326,-466.55017,-24.653173
-945.09503,-538.04114,40.88148
-1078.8579,-106.168045,5.977442
-1724.0842,339.6086,59.04938
-3611.3826,3693.8054,512.95215
-2242.438,4440.942,381.09583
-668.03467,1794.9725,87.921295
206.90216,1391.7913,-11.962703
598.06177,645.2851,79.508995
859.36414,437.34653,50.144753
798.47266,171.4078,53.793335
690.8319,425.29562,93.16142
509.2431,461.1173,158.04355
332.68945,867.9543,121.20456
155.7952,1134.5247,-15.687774
-235.35912,2770.4915,-76.447235
-1362.2572,3769.5295,-158.02211
-1647.8687,2852.767,-162.97243
-1496.1608,1788.0563,-70.52105
-1144.1757,1002.053,9.046893
-917.5241,309.46774,25.383623
-800.7793,-40.44708,-40.78053
-759.03845,-420.55817,-32.082798
-768.18396,-467.64926,-13.275843
-883.7091,-606.4656,10.403227
-714.16455,-364.50598,-11.012198
-1068.6151,-287.00226,110.5342
-1063.8595,62.74883,-5.139544
-2480.3958,963.91785,340.9875
-3701.554,4513.949,845.2934
-1754.3678,3690.0945,355.65305
-556.1575,1618.7712,148.35751
199.6562,1221.1965,59.146004
575.3397,431.7049,62.964985
837.1817,340.45938,-12.141153
795.7314,301.25983,33.806885
672.61633,443.8216,84.61207
497.84988,522.81323,105.1053
387.33563,657.6177,-19.395859
218.23466,1328.744,-65.08219
-326.04517,3184.257,-194.62968
-1367.8494,3839.0054,-249.755
-1478.4226,2843.1155,-138.6619
-1290.7324,1863.528,-49.463943
-1112.3564,926.2444,-32.387203
-1072.5931,222.18442,-73.856064
-961.4625,-300.53018,-95.143585
-904.24725,-413.74997,-57.229336
-812.8897,-462.57928,-19.44421
-868.50604,-460.96487,-9.225263
-838.91156,-380.20288,73.1345
-1060.6129,-104.68538,128.5445
-1313.2809,73.72739,33.201855
-3351.5334,2724.7073,609.9664
-2839.9907,4981.165,638.95184
-953.4537,2597.2605,186.2918
-58.93928,1572.4447,131.08731
481.0966,825.8597,52.6452
792.16223,421.09238,33.194584
835.46124,171.63358,-70.11532
704.73267,366.60526,-21.535263
649.22125,381.18228,-38.07556
514.3284,609.35895,26.23658
300.51752,897.5271,-51.256264
110.44944,2034.2108,-208.85507
-971.25757,3796.5618,-433.7938
-1741.3843,3683.342,-280.80383
-1598.5269,2671.4956,-111.92093
-1365.1509,1445.6583,-104.01706
-1019.17377,387.52145,-96.37407
-940.5675,-43.252777,-16.758835
-993.6014,-332.88333,73.83163
-984.5848,-390.17316,198.00056
-976.45355,-645.0105,191.32135
-836.1383,-571.2351,111.64406
-1077.7743,-439.31204,145.69296
-1207.3975,-164.66412,45.2597
-2398.7153,1050.3112,-159.8909
-3404.5244,4806.9727,65.40211
-1839.9469,3821.4524,113.48199
-579.1275,1759.3856,-52.797237
138.91586,1455.1047,-134.16624
555.2343,666.8502,-47.769794
776.85583,462.73544,-19.78568
694.5981,273.2467,-13.523063
638.6151,446.9986,-15.316096
582.69025,581.73956,50.201546
471.63306,810.3591,-63.445404
372.6188,1113.6812,-127.67185
-158.45978,2924.865,-393.88495
-1299.5072,4017.6677,-537.4108
-1732.8174,3456.7957,-377.89822
-1510.6263,2035.1238,-239.47577
-1231.005,860.6975,-129.78569
-1278.5271,57.80492,-61.065533
-1119.3113,-447.3884,-22.897427
-945.488,-704.7416,-71.473724
-794.2044,-646.7403,-56.97219
-824.45215,-510.12115,17.935339
-829.2423,-241.07304,109.74375
-1041.3014,-155.9676,105.3431
-1266.3448,193.62769,-171.32356
-3155.3557,2352.593,370.67783
-3097.2837,4700.6787,604.94617
-1218.6199,2868.8745,207.42708
-283.8358,1472.5361,150.62833
244.0745,900.95325,71.846214
541.6028,432.21515,77.4809
683.9381,340.82968,-2.5060272
703.9095,408.3532,37.535107
651.2107,477.28552,54.037888
568.60315,554.2993,114.803375
370.1861,806.3485,5.191674
139.14633,1692.1967,-86.115135
-733.32056,3342.3691,-282.3825
-1960.726,3834.9534,-356.009
-1773.543,2470.9973,-223.10698
-1410.7445,1450.2296,-67.71022
-1191.1315,633.18677,58.171387
-1006.3956,-65.784195,13.70694
-728.6434,-622.1074,52.20175
-640.7444,-739.147,125.8806
-681.5833,-834.3545,164.53836
-653.64154,-462.12,33.65689
-949.369,-405.4256,-54.497753
-1199.4037,-28.88543,-318.6245
-2483.1824,1247.8646,279.76755
-3425.6897,3812.9844,728.39734
-1685.4523,3134.184,237.66652
-745.8843,1626.9049,174.80925
-21.039034,1103.5938,131.61275
295.98782,499.20688,105.35332
565.72296,436.57245,19.020197
623.2732,343.13632,120.94427
696.7945,422.4894,97.13206
576.10535,597.2288,181.3684
504.82205,672.6493,79.506134
353.94946,855.1598,-10.392743
101.61248,2633.7534,-151.96599
-1319.8518,4253.9243,-358.64203
-1564.9208,3146.1404,-267.78488
-1432.0745,1915.8818,-121.00317
-1193.2228,1082.0463,-27.79682
-1172.8364,353.1119,0.057774533
-1007.4844,-298.93942,-72.68404
-855.03674,-539.336,-76.333954
-688.45935,-628.6965,-37.277737
-744.08813,-485.5166,-17.80079
-728.4232,-369.2556,-14.240322
-998.3008,-156.86946,-4.2512226
-1138.538,45.731182,-155.2741
-3119.9976,2168.576,320.80472
-3189.8071,4782.3164,548.55084
-1219.7897,2703.5657,243.52255
-290.53522,1502.1691,138.18465
355.33035,841.7943,56.966568
601.8664,408.87015,69.980354
674.7839,461.3906,23.602995
676.83356,371.3897,94.720894
629.9402,330.23077,99.772865
560.7138,448.9477,159.76585
356.9654,594.66724,37.472656
428.34958,1091.1566,-55.69403
-483.1389,3611.8384,-267.14264
-2077.8462,4468.8467,-364.0644
-1651.2529,2466.0012,-243.31758
-1383.8146,1634.9778,-160.13315
-1030.1315,736.24164,-43.658943
-861.51404,168.16133,-33.30851
-653.3082,-354.69534,-46.91582
-667.86346,-639.5429,-5.3871922
-656.7688,-839.5446,-24.783377
-835.79785,-488.83856,-35.42135
-875.79285,-261.81577,28.720015
-1100.5588,-29.837517,116.19261
-1418.822,239.15488,-104.2461
-3286.3306,2733.6235,407.90137
-2834.4326,4621.0957,561.9184
-1057.943,2497.7253,132.30286
-237.80217,1489.5662,22.68547
346.0797,778.804,-83.39675
667.5037,380.84613,-83.47112
772.4951,232.00955,-150.8764
741.51996,383.75693,-99.13583
653.47705,499.35156,-64.45075
520.1379,638.4128,38.542767
301.4338,832.84485,-70.18188
120.493576,1791.1678,-151.17819
-906.444,3605.3015,-244.17886
-1811.6543,3739.011,-60.53096
-1712.6788,2516.4846,19.468756
-1563.8575,1533.8516,101.33846
-1300.0618,629.17474,38.510323
-1193.7126,-44.604137,-55.552692
-902.1982,-499.6783,-185.75476
-726.59174,-438.47452,-198.8903
-712.9736,-542.80994,-146.1479
-724.55115,-374.88635,-84.03138
-791.28284,-321.40204,32.919228
-902.8031,-1.776548,-13.665891
-1425.9106,376.0,-13.283062
-3261.479,3378.3901,500.74686
-2357.2734,4485.4897,415.66574
-821.60077,2136.9036,147.62434
12.875949,1443.5598,114.192055
342.9724,750.80994,137.06989
681.6253,451.4319,53.06758
747.6553,237.65892,-15.706996
692.12683,456.79117,-4.5495653
585.113,515.69183,76.099525
559.60535,660.20703,62.349586
494.54,943.09045,-37.399227
-56.918156,2763.7595,-80.31811
-2003.8792,4298.767,-341.90207
-2035.3652,2733.4678,-170.08093
-1502.7908,1777.1033,-84.50939
-1183.5731,1280.1963,-108.368614
-962.5196,369.73352,-164.85593
-749.64166,-26.629559,-167.76305
-774.8606,-354.43378,-154.84714
-663.6714,-672.4055,-192.32408
-728.635,-739.3771,-261.8835
-863.50244,-364.56015,-74.27383
-991.4459,-242.22641,125.477684
-1171.4806,96.41289,128.71811
-2872.1301,2327.291,608.4327
-2563.63,4668.0947,684.32214
-1062.2515,2657.0881,346.22028
-163.3164,1435.8008,155.10039
388.01004,901.40814,70.68948
658.6397,617.2474,89.86854
741.25494,351.90637,24.926746
686.7071,400.6139,-1.316015
527.6725,423.3182,55.554398
477.05597,526.47656,52.59569
260.54022,845.9805,81.868126
-18.326878,2231.5615,-69.39353
-1087.7488,3890.6777,-206.98701
-1735.8927,3572.528,-92.853645
-1566.3284,2512.1492,-127.121506
-1339.7174,1285.7181,-13.569451
-1084.9423,364.20462,-9.654098
-887.2056,-1.3891165,-53.619137
-782.34576,-335.199,-78.72901
-765.8966,-541.391,-156.38503
-733.60706,-611.7457,-145.52995
-759.7768,-331.15546,-95.76293
-1048.5924,-243.17119,94.32038
-936.6518,-62.371143,-5.524674
-2220.3923,840.8123,189.75931
-3503.0864,4616.383,688.31146
-1616.5642,4004.0938,314.90085
-403.3618,1833.8961,140.3347
324.2241,1332.2341,-2.40312
620.5776,544.07446,-29.450758
884.58673,328.34457,-85.50944
726.398,273.9007,-95.8705
665.85583,468.74008,-68.17221
533.3441,482.6138,48.12025
445.4418,719.23755,-20.718472
318.48077,1177.7781,-78.09037
-225.04971,3215.374,-219.74937
-1381.4663,4104.0186,-263.66888
-1667.2205,3088.5151,-151.31378
-1491.8313,1890.0636,-100.03791
-1158.7063,720.9102,-41.693092
-997.0693,40.9486,-37.673466
-734.62616,-348.73486,-32.305107
-739.3804,-501.20154,-5.014207
-724.6718,-546.3254,62.55235
-842.0414,-375.90158,80.9218
-835.6605,-364.04688,58.332546
-1140.3973,-50.118313,-74.71046
-1544.949,325.56714,-52.25155
-3569.0896,2891.245,570.10846
-2617.8289,4667.5737,407.03183
-950.9587,2104.872,132.80803
-60.83138,1413.4364,17.818182
416.6879,742.03,11.37711
657.5886,465.88278,21.565895
692.4636,253.86377,-7.649338
675.465,364.06955,93.58843
556.4705,417.16702,146.00537
490.19266,654.64966,196.00903
174.8114,953.3424,130.3205
39.72002,2208.8694,10.10904
-637.61707,3644.6516,-107.46842
-1340.5908,3785.7456,-124.26447
-1375.9823,2449.7273,-112.30698
-1019.3449,1418.9237,-42.845203
-914.1862,633.94116,1.384333
-919.4815,65.75768,-69.26847
-881.47534,-363.32248,-81.26362
-767.7526,-475.7565,-68.60671
-869.25555,-654.93744,-92.26731
-833.2405,-424.16116,-73.70806
-1066.5293,-308.30295,0.5859701
-911.4324,167.32729,-30.099169
-2275.3018,813.7853,165.88196
-3462.365,5019.296,427.41977
-1514.5354,4057.4932,292.73605
-526.19,1603.6393,200.20561
305.95477,1167.174,34.743515
570.5469,418.33438,10.949478
792.68066,405.16986,4.495328
655.1708,355.5504,29.469696
589.5188,517.41974,110.3385
394.79248,475.86255,242.77371
364.42233,754.60474,157.23521
264.41925,1240.8319,-39.693386
-27.332474,3041.5845,-102.32789
-947.022,4077.2239,-241.04861
-1313.359,3276.3232,-266.55524
-1244.1134,1896.6372,-283.91623
-1039.4995,912.6885,-260.0478
-1074.0443,252.39265,-186.26108
-872.36316,-227.45563,-202.92108
-923.8726,-544.9938,-107.41265
-833.40594,-673.70953,-38.94353
-925.13464,-404.55817,22.232204
-831.9373,-385.2445,126.889015
-1101.7886,-53.06283,105.315315
-1363.6633,145.44156,-3.7922745
-3714.9712,3235.5708,310.82318
-2835.759,5407.5386,281.7609
-807.6793,2285.5808,145.28703
60.926,1477.8342,-40.68495
543.9178,671.63416,-99.66126
673.82135,400.6695,-86.933136
642.72797,331.93457,-62.487926
624.4039,496.8298,-71.19232
586.76135,372.96973,-55.076435
581.1521,486.8359,-18.327614
375.37372,679.823,-35.12716
346.8798,1706.163,-111.16291
-418.2595,3578.5461,-367.34628
-1573.6221,4115.115,-467.50903
-1563.0292,2530.761,-180.47562
-1267.746,1514.9194,-52.257042
-1108.1172,548.46313,-18.752775
-822.9112,-93.65008,-56.5765
-748.71796,-528.35736,-120.65793
-718.2866,-545.7076,-73.67122
-828.0658,-636.9183,-41.079586
-780.6696,-312.25665,-56.24261
-1038.3075,-222.46794,-70.08129
-987.97516,136.96126,-118.97235
-2600.3274,1171.0299,215.42421
-3324.4504,4824.5796,303.26434
-1376.1934,3531.7856,105.83347
-461.0838,1569.1619,76.47826
297.58173,1118.0955,-80.04268
598.9858,478.7266,-82.88796
734.1573,565.2799,-79.89747
725.30005,494.00613,-36.15554
718.173,489.43243,-3.1410346
564.81805,511.94952,58.894936
445.86102,664.03,-20.7436
398.17145,957.1501,-91.17337
97.89612,2937.663,-222.84958
-1183.7195,4347.361,-510.04395
-1575.318,3281.5264,-357.71686
-1367.5757,1998.7148,-169.0198
-1289.0596,1003.557,-115.55427
-1120.6539,295.59836,-62.19643
-1040.938,-395.3068,-197.16872
-1005.6541,-681.41626,-230.99014
-816.9721,-707.9447,-136.46736
-852.58905,-470.59622,-68.2749
-907.14264,-325.30316,24.338182
-1004.3035,-82.05953,12.53815
-1644.5839,429.9052,22.9846
-3270.7505,3142.1917,367.4356
-2332.7744,4294.211,369.40802
-1077.039,2305.492,137.30153
-92.97002,1581.1985,28.387674
322.45145,927.25116,28.877844
636.78503,720.9676,13.829062
783.61066,489.09302,1.9566628
761.641,523.9867,2.2790003
633.24207,611.6437,70.99773
372.46948,954.4188,58.656387
132.15935,1581.4766,-44.059864
-437.1342,2746.6042,-164.52908
-1242.412,3179.4634,-95.25238
-1879.673,3071.0654,-45.070827
-1963.9852,1620.729,-192.41891
-1275.7037,489.88245,40.30879
-1091.9998,68.8849,184.29756
-859.86597,-328.00443,260.15265
-759.5775,-668.4197,190.36719
-710.32697,-903.00134,60.149666
-924.6127,-459.08517,-53.57534
-1011.83356,-152.7801,-71.25036
-1106.4182,10.526573,-30.85175
-2116.1401,1028.6677,71.76412
-3017.1816,2668.9287,219.5049
-1898.4025,3092.3772,203.3768
-1089.9971,2096.2825,102.8798
-447.8362,1741.0665,66.28431
76.73635,1024.8278,30.800606
486.2501,682.16644,78.23403
648.3803,675.22815,67.991234
784.1786,665.9192,136.3045
536.32153,593.1668,180.79607
482.41922,621.1788,202.47015
232.52068,819.8265,126.354416
229.36082,1577.1683,122.08058
-1026.5531,3569.1846,-94.113
-1932.3307,3705.4094,-180.68372
-1870.3464,2297.093,-124.330315
-1622.3973,1664.6173,-90.89556
-1260.4167,683.8774,-107.33384
-1046.8818,142.35384,-159.40628
-883.28217,-314.1587,-190.96107
-760.2286,-333.23718,-150.59709
-778.3371,-523.57916,-133.9927
-646.6817,-366.7341,-149.11157
-912.8807,-570.3123,5.977064
-940.5748,-179.7898,-15.631058
-1557.0483,127.10959,15.911047
-3485.4548,3097.2297,347.06213
-2663.487,4658.5713,309.2229
-957.83765,2475.893,-7.9938755
187.05618,1649.768,-82.73872
600.6817,747.49915,-61.384083
824.0885,474.89874,-0.5242184
809.0754,161.15433,-12.079346
667.9908,311.84067,-13.81614
474.14975,462.90973,137.88138
328.3422,730.8811,159.38857
102.923256,1355.4515,89.36704
-210.23668,2729.6404,20.761957
-1328.6824,4105.297,-223.55832
-1772.8458,3702.7131,-499.56143
-1564.0134,2085.6614,-421.8638
-1188.7324,1000.31055,-289.42502
-940.6432,32.766235,-184.88373
-736.1152,-598.05524,-78.83985
-726.36835,-828.208,-43.02887
-778.1259,-665.89325,-34.10464
-1013.0969,-380.4689,-107.062904
-1048.8583,-291.14325,-195.4863
-1391.1608,-101.90072,-149.98254
-1686.4348,445.6822,-200.94783
-3130.8906,2722.0552,162.04814
-2732.401,4279.6475,416.7093
