# PAMAP2 dataset (wrist-mounted sensor)

acc_x[mg],acc_y[mg],acc_z[mg]
-1472.1974,-4006.905,810.46515
-60.67,-2296.3044,640.96246
414.45248,-1343.0471,360.60257
716.7023,-616.04205,292.66345
743.3045,-388.93924,438.161
1061.7532,-374.5572,346.60056
1012.74475,-434.31485,303.69858
834.5767,-448.74792,316.43573
452.33807,-1013.5338,355.29483
302.89868,-1634.0996,39.583874
357.38446,-3507.462,163.49142
-1729.6283,-4634.296,279.31445
-1162.728,-2374.9922,27.345623
-664.37836,-1088.7089,78.99559
-686.81903,-185.2062,-41.339565
-697.0531,218.14186,-201.09666
-740.4656,662.8916,-298.43646
-684.79565,572.6731,-413.27625
-893.9014,603.0755,-417.5237
-1150.4865,430.10956,-612.14044
-1546.3153,311.59897,-449.11664
-2225.266,-1171.1107,58.710934
-3590.645,-3584.0254,917.2072
-2532.8352,-4708.668,918.8126
-443.34567,-2776.1577,689.4651
384.25888,-1382.9976,545.4853
713.9612,-755.3437,396.58044
826.9214,-338.02847,418.31006
872.2235,-64.90445,296.49146
940.3605,-310.5691,354.09024
823.72595,-396.59467,418.92587
728.5349,-863.9063,513.8443
430.91473,-1551.9928,228.92867
622.0075,-3006.4656,255.00017
-1039.5774,-5634.4155,175.7434
-2157.5103,-4427.864,-174.82317
-1427.5642,-1529.0802,-159.65187
-1147.2091,-350.9023,-226.87798
-941.2274,213.08333,-165.1972
-985.2986,704.976,-100.066826
-726.73303,1062.0684,-309.5831
-724.52264,834.51495,-495.90363
-894.5046,501.2572,-352.10452
-1389.0519,277.9059,-329.59528
-1810.9092,-19.809967,-236.51547
-3063.1416,-2550.3313,527.6604
-3273.2336,-4342.7285,1251.3665
-1431.8928,-3889.5989,863.9896
-79.927734,-2203.5352,730.2642
426.47922,-1422.178,513.57605
797.2218,-586.3371,487.83163
837.78314,-350.9633,435.46085
1067.5956,-169.14893,393.9587
971.2662,-457.2276,427.3105
1038.0918,-374.97153,427.86935
623.98193,-1152.3217,207.40417
495.14957,-2133.0469,-20.743608
-314.43484,-4991.5195,-130.30602
-1941.4326,-5688.4365,-336.4621
-1430.0236,-2633.5725,-172.94553
-946.0837,-635.1977,-90.79387
-1213.822,-82.242096,259.34866
-1488.768,688.4033,153.53358
-963.4868,1513.7039,-444.68753
-905.679,1089.0627,-564.5092
-1142.9031,517.77795,-241.74782
-1368.7896,192.90837,-344.68784
-1768.1517,168.80371,-472.60736
-2736.7173,-1486.6538,162.67653
-4317.5015,-4355.9546,971.16113
-2477.5962,-4602.682,1102.401
-426.83768,-2367.6694,802.5345
400.73666,-1361.8419,580.8997
851.13,-844.6758,408.76428
836.658,-491.81903,521.1175
826.8024,-344.88544,616.4464
1013.51733,-582.5451,532.3493
827.23804,-573.60645,503.09772
727.64185,-780.089,471.90405
416.15576,-1509.2103,31.215857
543.5432,-2731.1035,-234.52693
-1027.8871,-6134.234,-596.15063
-2320.2705,-5480.329,-746.04486
-1578.8762,-2011.056,-378.99115
-1305.145,-449.53323,-257.61597
-1371.1309,294.60126,-134.28781
-1447.1277,1003.8999,-146.16846
-1128.8931,1121.9338,18.695644
-997.50287,903.5714,-49.1423
-933.0534,406.1802,92.82482
-1232.3198,322.61624,-439.85306
-1740.8431,-12.995567,-334.20956
-3109.6821,-1763.5182,-111.4376
-4522.07,-5049.9585,329.07092
-2508.763,-4820.7363,819.08496
-315.01227,-2506.6853,540.7886
605.80676,-1664.4574,590.8233
1149.9515,-920.8678,579.6472
1032.9849,-568.1915,562.1677
947.18195,-466.78128,460.24512
986.3306,-625.9894,518.9959
952.7376,-522.4607,509.38467
878.7403,-953.5267,451.8412
443.00824,-1566.8536,56.815395
167.81009,-4001.9124,-189.31906
-1952.2719,-6570.5747,-548.3034
-2383.6624,-3702.9417,-457.25372
-1367.1769,-844.9985,-235.4905
-1069.4044,-71.69945,-133.7291
-1098.5931,401.18155,-161.99762
-909.4031,1016.2651,-187.37256
-821.15564,933.0399,-353.8414
-931.5483,614.7654,-249.81874
-1110.4985,300.20514,-137.27711
-1290.1989,243.97443,-351.38037
-1707.469,-200.68246,-175.0095
-2701.3809,-1977.7565,427.01407
-3564.3418,-4197.6187,833.05383
-2135.8625,-4219.9707,726.1073
-371.60278,-2228.4905,592.1887
250.33109,-1503.8711,536.4998
719.7283,-857.21985,687.0499
848.5102,-480.859,711.47736
1007.33936,-20.063301,593.7892
969.3021,-265.82138,574.70245
933.70013,-355.71414,557.2951
675.7198,-1039.7197,431.06668
479.445,-1459.3351,-91.02412
349.54498,-3827.7007,-408.50797
-1376.5145,-6342.6943,-727.1703
-1889.6343,-4180.3345,-705.4037
-1448.2045,-1669.2386,-306.50244
-1295.2542,-220.85655,-82.457924
-1366.9417,246.97891,104.50913
-1452.037,1020.67194,162.0812
-895.1282,1204.1534,-253.67001
-809.87195,888.08594,-298.01648
-1047.72,372.1664,-47.5143
-1338.046,225.16862,-163.80762
-1697.445,-150.62505,-358.31842
-2670.3223,-2189.019,349.94083
-3613.1106,-4375.6284,940.78827
-2160.4573,-4313.561,687.39856
-327.44098,-2347.9905,717.99664
352.6157,-1583.2053,555.4947
953.8398,-899.86304,499.0083
1042.6885,-570.3813,626.4656
1097.9683,-286.0384,806.8868
1033.8666,-432.31366,630.7571
916.8765,-499.1853,534.59186
764.6087,-983.3873,352.67273
472.55576,-1838.3728,-33.318817
86.22437,-3879.3147,-463.42648
-1732.2377,-6222.5513,-755.4284
-2209.949,-4239.1304,-579.09155
-1547.9343,-1239.3892,-337.48364
-1356.9038,-193.49149,-30.119846
-1416.1511,317.40295,152.95229
-1195.1204,1094.3541,-142.12625
-803.7443,1270.3917,-326.32574
-1025.0486,793.03723,-107.921555
-1062.5802,311.61542,-141.14125
-1307.3472,245.60919,-439.79166
-1579.8553,51.775444,-290.50748
-2793.9146,-1952.985,177.40009
-3943.8228,-4559.895,883.3353
-2013.8248,-4489.267,723.0824
-151.50284,-2145.669,760.8128
383.411,-1230.5145,673.5962
901.6693,-469.51465,537.62506
838.92975,-496.12842,638.1896
901.3143,-331.98553,631.35236
865.8404,-508.54626,595.07684
1060.5023,-596.8758,548.7844
727.9019,-1214.8152,378.0908
446.12976,-2308.2998,-199.03946
-627.9647,-5285.397,-571.85266
-2129.0027,-5778.443,-961.03564
-2196.766,-2949.5322,-744.2888
-1396.1027,-632.9611,-406.125
-1040.0621,61.11156,-264.8883
-1034.5284,792.5168,-172.72174
-893.7793,1272.8801,-9.431297
-951.6705,823.6895,-239.71304
-819.40137,635.8781,-264.87787
-980.69965,340.58218,-380.51282
-1288.9689,83.97416,-375.60632
-1663.1727,155.88216,-199.55084
-3460.7195,-2125.69,137.67108
-4165.586,-4593.5874,857.21545
-2163.301,-4057.733,711.473
-367.62173,-1893.6444,660.7502
372.48877,-1095.6589,477.88766
673.33704,-725.43024,368.67456
738.2113,-433.04965,379.98663
867.36755,-337.23248,496.58075
915.3513,-609.6701,611.8882
801.67523,-471.3408,672.7882
539.31433,-758.6685,665.0842
419.48654,-1288.7487,49.97014
36.301567,-3858.2644,39.285347
-1448.8416,-6384.6772,-491.5513
-1972.4589,-4111.733,-567.1159
-1537.9095,-1117.851,-285.66446
-1186.4049,-236.04219,-221.30644
-1065.6384,368.45892,83.73516
-882.4324,885.8191,-60.801052
-772.85815,862.1644,-139.37616
-734.1053,575.52826,-179.85222
-679.64056,464.26166,-48.6632
-1075.1216,86.911865,-298.8339
-1203.8198,528.6212,-425.83237
-2266.0728,-562.3779,-16.054081
-3547.9648,-3049.5586,414.05905
-3350.1506,-4542.1753,860.9398
-1210.4884,-3607.2026,624.77045
-133.58734,-1927.935,550.47833
488.1707,-1227.8468,438.19128
882.21844,-644.1265,491.03586
1026.1664,-446.3585,580.89417
1144.9534,-368.08554,636.4477
1289.0156,-531.2501,560.7526
949.56067,-925.25183,444.37534
431.06345,-1690.4183,9.898719
-210.62688,-3968.914,-501.1865
-1963.2244,-6693.9263,-733.10925
-2512.366,-4448.1963,-607.3046
-1971.46,-1490.584,-312.28943
-1649.1384,-123.87845,-167.20139
-1414.7338,640.3703,-117.17844
-868.2633,1588.4683,-304.85944
-812.623,1138.5497,-333.52527
-940.9619,713.7773,-201.21321
-910.82117,504.01407,-275.48917
-1330.1844,203.86563,-463.3128
-1555.3649,112.06669,-428.45963
-2808.4224,-1345.3468,74.55174
-4432.8813,-3665.661,761.6328
-3111.7622,-4614.7925,873.9065
-1007.6992,-2915.6968,645.3535
-62.18751,-1362.2842,462.01987
735.9665,-848.78845,347.86453
852.0254,-728.95,546.6867
1095.588,-606.07404,607.5404
1110.0433,-481.01733,689.9574
901.6475,-587.46875,589.84955
554.6846,-939.0589,341.76514
387.58475,-1652.6827,-271.86816
-361.51807,-4416.635,-679.2445
-1995.284,-6232.9053,-1022.48627
-1994.6597,-3622.0203,-876.265
-1524.9482,-1157.413,-661.74133
-1337.1422,120.82838,-288.78217
-1321.4044,469.9872,-28.822405
-1035.856,1297.1449,-237.7062
-793.24225,1114.7776,-549.3713
-1134.5692,801.27155,-229.85402
-1193.0001,347.809,-196.00217
-1518.785,395.58044,-463.0067
-2132.0798,-203.51692,-422.76886
-4225.398,-3055.2021,500.31277
-4304.928,-5744.1104,399.69098
-1161.0054,-3706.3464,502.27493
160.24644,-1471.8595,433.60828
839.0855,-894.3872,333.64822
1066.1672,-368.99362,441.86575
1019.00366,-399.3427,428.01352
1051.3381,-506.5888,595.4576
857.2823,-661.0306,530.31714
881.35425,-617.40125,552.76636
400.0007,-1023.4522,202.35883
468.6754,-2721.1936,-183.28972
-1354.1665,-5972.711,-339.5833
-2491.856,-5410.9995,-674.0252
-1773.429,-1987.4823,-435.9498
-1396.6929,-294.84894,-317.5235
-1029.4928,201.77673,-115.55971
-1080.2247,735.12805,-30.050615
-769.0356,1180.4268,-182.11946
-852.7121,802.07086,-311.51862
-912.9675,600.0383,-222.84564
-1178.7179,262.72894,-349.28406
-1315.8743,260.61984,-394.96533
-1831.561,-106.36839,-296.94373
-3774.1655,-2790.3596,410.13165
-4183.538,-4956.753,967.21
-1582.0824,-3295.0764,557.5292
-135.27779,-1549.1736,427.2564
471.88705,-1071.6395,348.1535
784.87604,-641.4153,476.5296
876.5055,-402.22665,456.8434
888.29224,-472.96167,579.06274
893.545,-545.96014,570.7855
912.33746,-488.03473,612.3009
670.1985,-774.2429,318.43542
485.71405,-2464.3086,-91.64093
-717.9885,-5797.6675,-507.1644
-2287.5073,-6183.761,-1003.79987
-2069.8389,-2768.6243,-639.026
-1412.4396,-499.80627,-435.96866
-1277.0479,326.67935,-98.13794
-1409.287,1225.5242,12.799267
-954.3693,1436.9342,-163.5891
-901.891,705.4919,-325.518
-788.5947,494.57297,-213.75572
-1055.7706,280.93066,-234.69699
-1347.4072,238.28236,-266.18542
-2097.3542,-13.172595,-283.2573
-4543.327,-2630.7424,-248.61993
-4656.8315,-4689.071,312.18716
-1908.9202,-4239.445,134.88022
-126.37269,-2055.8687,285.92554
716.8379,-1378.4785,278.92343
1012.77905,-1262.0187,459.08945
988.0317,-734.72595,612.81384
1011.1342,-421.79468,650.2421
1063.2542,-356.72495,561.8233
1036.5917,-617.1237,521.1814
681.50116,-1068.4625,193.35367
211.39249,-2466.4758,-310.56866
-742.801,-5755.571,-953.68115
-1739.3005,-5261.6885,-1050.9406
-1396.6132,-2275.0188,-626.0847
-1097.9979,-551.5807,-199.45546
-965.349,23.41467,0.38145465
-1048.5967,554.11835,104.08254
-896.9791,839.0606,30.023947
-765.8623,682.5746,-145.46161
-637.51526,728.1157,-110.42585
-887.5784,208.85143,-112.219345
-1131.2646,233.78307,-256.02957
-1460.8312,99.47915,-313.12103
-2921.6235,-1381.3264,-106.683334
-4766.751,-4045.8696,195.52612
-3215.6028,-4981.796,303.94675
-704.3881,-2826.3472,402.89932
241.15378,-1794.6776,456.3457
1010.6562,-1152.9772,667.2074
1138.9508,-609.85394,678.1371
1157.7424,-261.01962,629.0476
1081.8427,-278.81882,587.7656
1002.77203,-408.906,519.15356
805.8099,-1109.1449,328.3218
436.75012,-1640.0989,-100.994995
-21.621239,-3308.7915,-494.05917
-1466.4526,-5374.22,-276.5682
-2387.1167,-4436.7305,215.52528
-1830.4567,-1983.2894,113.22323
-1468.1482,-650.73486,-83.85041
-1498.3625,-24.668016,-54.066532
-1512.9375,535.26227,-105.47356
-1100.5325,1093.3402,-606.9746
-962.22833,1215.3312,-682.32007
-1162.6152,701.6688,-195.12827
-1247.2644,284.84747,-125.08232
-1256.7042,356.46863,-426.6919
-1913.9156,-505.52667,51.504715
-4116.9517,-3045.9932,1913.648
-3607.7568,-4593.651,1716.8901
-1075.25,-2419.698,1241.5986
-145.36995,-1253.9514,985.4328
499.01605,-693.7187,523.0084
677.89136,-295.54056,607.4577
911.9144,-59.936848,517.55145
1027.1454,-6.5246444,650.251
1215.7949,-413.1202,668.8784
967.038,-781.47217,810.8742
512.9111,-1700.221,251.42499
63.893272,-3389.57,-184.55063
-1537.6931,-5843.105,-504.99957
-2198.7454,-4327.447,-721.0216
-1742.4302,-1534.7649,-528.5244
-1042.5715,-48.213596,-230.29166
-953.47174,253.66795,-190.96686
-1001.93036,495.66458,-162.93448
-842.2398,901.3305,-256.37796
-793.30597,871.3545,-351.80426
-815.58307,491.78854,-297.27634
-922.1174,250.54787,-297.86826
-1110.5498,314.69904,-493.82388
-2346.0115,-458.77127,-307.0728
-4499.4243,-3886.0347,383.0167
-3343.5176,-5080.2085,686.5031
-665.03217,-2595.5393,709.0576
255.77026,-1613.0201,637.60724
913.8094,-964.7137,708.34247
1028.9237,-507.60614,699.73694
956.5979,-27.814602,549.86774
881.3612,-301.56927,551.2454
847.04315,-391.59637,503.5289
761.8993,-954.73566,379.25497
501.58026,-1707.9883,0.2991159
82.8229,-3446.0046,-336.4546
-1350.2633,-5759.112,-599.44476
-2031.1499,-4440.571,-314.92966
-1456.1869,-1901.4392,-185.52986
-1025.7574,-312.93402,-88.66837
-1001.68567,44.827995,-1.0772052
-1346.4738,624.7384,-42.35675
-982.99286,1278.9893,-510.36942
-984.6626,1275.3771,-551.7748
-1211.1636,646.7496,-410.0209
-1568.6343,279.41934,-471.42703
-1984.4242,-172.34595,-525.7554
-3686.0994,-2584.0283,202.3473
-3990.643,-5306.893,813.9389
-1503.844,-4213.7085,808.011
-149.05304,-2028.0087,811.9335
704.15076,-1280.3539,622.96484
1173.6667,-695.8664,652.2101
999.578,-472.5562,545.65106
941.05585,-289.0316,697.8775
929.87427,-657.2247,583.07965
894.4245,-522.5321,607.8786
536.6316,-1440.9264,252.6818
253.1513,-2451.892,-82.73686
-1002.7057,-5030.543,-276.9898
-2373.6892,-5623.853,-420.09665
-2127.1206,-2744.0403,-334.26874
-1426.6464,-679.056,-279.03473
-1046.0939,-90.349106,-99.94684
-944.3568,220.95651,-51.44248
-746.7354,859.0635,-202.50836
-870.2598,1069.3337,-374.99753
-839.52673,830.8329,-292.56107
-975.37054,386.1695,-353.01443
-1200.5862,341.2997,-514.33453
-1710.0682,54.219116,-434.25827
-3753.1094,-2928.7537,397.98425
-3942.4443,-5680.6523,1175.3715
-1189.0455,-3119.9841,1102.0446
63.33064,-1649.4484,876.91614
773.14056,-1086.4924,767.27905
991.13116,-551.33484,695.86566
965.4409,-161.759,614.8498
856.3987,-225.91618,525.0378
943.7358,-477.60623,483.37378
804.0473,-703.31995,445.48938
492.9394,-1495.4752,165.43814
-167.88605,-3637.5771,18.65274
-1717.8251,-5624.6743,-182.326
-2117.8867,-3912.2957,-210.676
-1400.5103,-1058.299,-165.23677
-758.7125,-69.934,-81.54523
-783.8383,93.30595,-102.30696
-927.21265,719.49396,-79.617325
-958.64465,1003.22174,-244.26328
-811.2783,899.3637,-413.16382
-852.40955,547.7531,-409.36313
-1277.3065,290.31427,-421.87927
-1670.0227,80.283226,-376.5125
-2892.362,-1428.7931,-134.86133
-4230.2495,-4005.2815,598.59186
-2609.9392,-4273.6343,754.84656
-561.5418,-2018.7424,584.95294
343.94513,-1335.6843,485.26935
831.48865,-916.62427,404.95035
796.5527,-794.82153,503.11234
924.45404,-486.31744,691.4947
957.58234,-646.60315,632.70166
716.829,-719.7564,522.9933
217.66748,-932.38745,346.66348
-41.896847,-1650.4277,-73.138725
-533.1705,-3893.1208,144.763
-2603.8162,-5573.5635,153.16954
-1727.7704,-2695.5032,-119.49289
-769.222,-803.6851,-39.09304
-791.69666,-263.38266,45.205467
-967.4281,98.39122,108.214264
-883.27466,912.06793,-195.98944
-820.9419,983.6643,-407.1181
-751.932,709.076,-319.14398
-765.6887,404.62714,-71.29847
-1034.5391,372.0859,-444.41022
-1621.4027,48.080303,-269.91486
-3541.2566,-2658.486,650.08386
-3654.9849,-4646.0493,1082.8323
-1502.7197,-3174.3008,770.5856
-56.708794,-1544.8798,273.0311
619.25995,-1099.2893,103.067375
893.46436,-801.7865,240.78615
771.3205,-449.69864,346.37576
842.18805,-62.288982,328.14743
885.28455,-382.32538,365.472
1012.00226,-347.6972,549.4888
563.18384,-1095.3558,486.40344
467.0559,-2548.9058,121.24436
-552.6508,-4649.28,111.54099
-1549.0276,-5282.1987,59.437843
-1536.8202,-3066.9504,173.0596
-1172.416,-1083.4801,100.99804
-1210.639,-90.66095,206.41931
-1391.8623,304.25174,165.68848
-997.0596,972.5497,-131.14418
-632.15674,1041.5571,-354.55328
-848.8492,782.79333,-208.56201
-908.00824,194.90355,-237.84888
-1406.0869,295.75058,-454.67673
-1720.8981,-113.31791,-413.6554
-3305.5571,-2826.2769,158.29688
-3823.0928,-6194.8745,695.7306
-1043.8925,-4188.075,774.2457
34.60656,-1720.3284,422.3009
804.25836,-889.4768,182.45695
915.1295,-545.7804,114.82194
779.06573,-506.73288,240.72754
739.5026,-287.348,160.8863
809.58875,-388.39536,248.77531
745.47064,-471.2317,403.22412
662.0607,-789.8843,505.4394
587.2008,-1145.1411,265.1542
278.51373,-3802.6965,520.2235
-1369.2872,-6125.123,686.6942
-1788.468,-3536.8562,692.57587
-1262.3282,-841.2937,518.86847
-915.36743,-318.10254,37.731174
-956.0382,131.3521,-170.6956
-854.31006,787.813,-345.16223
-873.71173,924.7521,-421.7211
-854.87415,710.2506,-420.1691
-852.8234,303.63547,-275.85544
-1102.2202,377.13034,-330.01562
-1515.1488,216.32124,-517.3109
-3046.0486,-1854.6456,443.5824
-3974.6797,-4779.4326,1215.3015
-1814.3774,-4241.059,876.7482
-237.7987,-2132.3184,658.8642
335.889,-1397.846,345.9229
794.0038,-636.4848,277.59158
920.38055,-558.8658,192.81433
854.50366,-569.2815,417.67294
923.13165,-597.30005,472.3719
891.2699,-376.81555,435.25314
703.615,-958.0529,278.7702
204.05714,-1711.2094,43.599575
94.73786,-4066.3037,-306.51688
-1501.4404,-6058.9424,-593.81445
-1792.719,-3510.2554,-345.29822
-1226.2102,-1122.3606,-92.012115
-1153.0283,-93.78733,-109.43935
-1151.5885,534.2499,-75.45207
-1067.7095,1191.2705,-160.05212
-845.64374,1105.2949,-263.50787
-808.6409,724.69525,-200.70221
-871.9049,268.8081,-227.67285
-1515.3336,275.90237,-323.06836
-2052.563,-559.8744,-128.46136
-3496.7283,-3239.9702,524.1958
-3220.3071,-4895.4424,1036.5741
-1007.6153,-3698.9832,699.49316
-1.9554461,-1676.0355,466.49396
691.9898,-1034.7261,224.46909
868.50256,-567.0129,321.5945
797.4482,-383.64627,325.6496
794.7232,-233.23747,434.7053
828.07025,-469.46872,471.82288
791.57874,-348.6834,549.706
756.6211,-882.84644,397.95386
495.38184,-1997.9329,163.71793
67.28483,-4254.6396,-62.978268
-1463.2833,-5698.987,-397.7929
-1746.2017,-3235.5137,-281.98987
-1182.1848,-837.15546,-217.11565
-957.16534,4.289169,-201.4798
-982.23004,440.6486,-68.84424
-934.5409,928.9379,56.435085
-756.9445,1027.3466,-324.39474
-805.48236,908.03424,-371.41672
-992.8563,414.2183,-397.1805
-1347.1554,241.21938,-377.30783
-2254.1743,-380.08655,-453.4027
-4307.5835,-3515.9395,224.07982
-3504.5479,-5115.3438,1031.6364
-1068.0038,-3190.355,779.20636
24.774416,-1555.8495,736.1365
677.1225,-988.1253,430.75912
1145.2736,-566.216,502.83936
1047.8934,-346.34283,430.04758
1030.0564,-335.5803,480.5858
824.7416,-518.11896,401.08603
737.8725,-523.88086,468.40607
256.37088,-1177.3865,96.50811
272.5912,-2506.254,106.68008
-857.5012,-5577.12,-81.659424
-2051.5266,-5237.675,-293.95642
-1356.772,-1803.4677,-57.652416
-1003.0351,-549.0365,73.654236
-1113.6283,155.37825,217.08534
-1057.086,1332.4918,54.568203
-757.57294,1495.4078,-312.36215
-817.065,771.8436,-197.85516
-702.51245,431.1438,-214.22107
-994.8402,170.13185,-378.4602
-1526.1251,230.72763,-692.7723
-3010.5852,-1518.7816,-363.77087
-4452.467,-4190.6016,10.630417
-2650.353,-5135.554,171.64435
-549.6156,-2358.3076,281.02875
353.73715,-1009.3193,83.21966
1017.09,-1078.918,69.087166
970.5085,-846.5025,225.19978
747.4318,-478.95145,377.55164
837.4169,-520.7774,346.12512
823.1104,-445.88593,426.0233
667.9632,-631.41986,463.62534
297.94955,-1233.9728,149.10498
252.55804,-2680.9932,-47.87922
-1096.8048,-5528.273,-108.15788
-2010.3292,-5152.7354,-225.70583
-1545.0247,-1842.1763,-26.026726
-1157.4531,-390.56213,-95.25489
-990.25323,195.91562,-16.656992
-942.0992,586.3625,-28.205343
-680.5028,1069.57,-88.16362
-773.4502,770.06006,-351.6233
-719.79224,712.6169,-339.01334
-953.18256,182.26752,-561.8213
-1390.4705,337.33203,-476.46683
-2053.326,-547.7436,-370.7207
-3912.4392,-3653.9104,473.74335
-3436.5818,-5122.5967,1157.6517
-836.50397,-3182.6592,829.30536
148.56499,-1466.8676,770.7609
679.1847,-908.5351,529.99457
845.79626,-465.42725,594.6329
960.3696,-271.1897,426.54562
944.5921,-138.78995,480.943
771.7388,-415.65137,467.05707
571.0288,-529.86383,529.14105
291.9693,-1069.9955,235.39967
72.86427,-2653.7214,202.63942
-689.04034,-5676.5127,256.7864
-1785.5436,-5224.0034,43.559418
-1549.8024,-1948.1582,-2.6614642
-1016.0524,-285.3391,12.415708
-1016.1897,160.51747,-48.45788
-998.54114,948.1689,34.90612
-661.4211,1183.5123,-253.75348
-645.93463,895.4079,-449.53882
-595.675,524.76794,-327.62418
-961.79767,126.56988,-326.9072
-1287.2224,228.03621,-470.89835
-2320.8542,-615.7902,-468.82327
-4209.874,-3691.8806,498.67032
-3572.8086,-5017.961,723.7922
-1056.6421,-2830.0032,676.16583
73.57822,-1530.4762,547.63226
891.4629,-1012.28876,546.41
1075.9937,-592.3618,697.49915
1052.8667,-217.31578,553.10864
937.24097,-208.41243,463.6197
800.001,-524.1389,512.10175
616.3528,-739.07434,476.39075
445.55417,-1630.5211,35.204197
-106.618225,-3621.9402,-139.16147
-1363.3668,-5830.155,-499.11548
-1967.2003,-4391.24,-449.40982
-1584.0342,-1442.4021,-217.25122
-1010.23315,-13.543753,-109.62182
-963.7336,321.55594,-2.4249694
-926.9122,1261.2861,-122.31999
-813.48126,1193.6406,-352.44174
-949.6733,891.8589,-364.7043
-893.9031,427.02875,-364.8108
-1321.7917,107.14809,-606.7937
-1697.6877,160.15317,-720.353
-3351.5137,-1237.1444,-697.86884
-5384.8657,-4962.9775,8.207774
-3023.4045,-4772.8896,657.1751
-420.8144,-1829.9863,804.10834
541.1087,-1706.5906,776.6538
1394.0616,-791.61066,744.38
1465.8502,-589.689,802.5176
1127.3599,-376.36176,575.08234
776.81104,-830.5178,597.1859
665.2427,-800.3352,662.3487
391.55157,-1430.3395,376.45676
190.15872,-2082.9841,-73.585335
-748.24786,-4752.331,-524.46936
-2207.4243,-6514.903,-559.7949
-2004.3104,-3268.8484,-211.72325
-1114.8416,-951.67633,-56.89902
-1079.4657,-183.59023,23.843384
-1353.9036,136.98688,83.99613
-1240.1808,1107.5662,-328.35284
-1125.279,1177.8846,-434.6899
-1022.4668,850.0897,-280.18234
-1103.749,274.87906,-239.35423
-1339.7924,336.20743,-457.05066
-1687.6726,22.66803,-421.3894
-2970.3416,-1591.5378,20.802458
-4779.187,-5045.802,907.71466
-2861.8428,-4827.493,1297.5863
-360.76123,-2064.946,869.8403
354.87973,-1412.241,883.0765
875.36395,-843.0267,770.2856
950.9867,-376.88367,736.76886
883.5326,-436.16016,691.6713
833.9284,-481.36392,931.8595
1064.6803,-497.69467,687.6914
1048.029,-1538.5927,568.1295
280.46634,-2532.1726,138.45644
-533.9206,-5363.9155,-477.6061
-2096.169,-6252.5894,-656.1052
-2196.202,-2773.6736,-541.99243
-1488.9167,-563.9222,-356.15463
-1206.5295,211.37112,-334.95212
-1222.5813,844.01495,-69.59984
-1035.8849,1229.6687,55.233067
-717.75934,987.5685,-263.5981
-1029.9487,623.84875,116.57222
-1161.0549,-247.57784,86.338974
-1251.5875,326.1593,-113.191284
-1633.4039,-442.45673,-357.9554
-2893.9043,-2218.465,-880.0082
-4460.4653,-4526.8613,-580.6759
-2510.2412,-4115.325,18.901659
-401.18817,-1759.1548,505.93906
593.8225,-1197.8783,546.6438
1133.122,-594.24725,376.9536
1191.5216,-466.42676,428.6692
1098.228,-511.03027,410.98557
1165.2584,-664.8509,252.41476
898.6321,-738.3728,364.0229
623.8879,-830.2046,285.1794
325.63535,-1847.0546,-130.08716
-27.816353,-3894.5261,-712.901
-2375.115,-5774.6577,-689.1465
-2127.9304,-3068.4854,-232.8493
-960.897,-1146.6741,-417.81708
-648.47974,78.14896,-380.72934
-619.08624,546.97345,-395.9216
-810.3271,854.9346,-288.1611
-866.088,968.1131,-535.09143
-781.9106,909.1384,-658.8326
-952.1676,737.1843,-538.6193
-1533.8878,321.32114,-257.89618
-1979.6367,79.81785,-637.2204
-4177.9336,-1811.2426,123.59379
-5085.3364,-4450.179,437.92828
-2118.0374,-3847.082,261.92917
-326.47165,-2102.179,370.82666
357.5003,-1277.0621,227.68576
778.88135,-584.45734,230.52106
825.4318,-574.31506,169.57726
743.4132,-596.18854,254.45937
729.98016,-609.56995,333.3834
655.3422,-559.35974,451.5822
760.0161,-832.90753,365.5969
231.59027,-1651.6787,81.142944
223.33127,-3156.0356,-462.15656
-797.46985,-6021.0396,-838.25226
-1975.8225,-4391.375,-687.742
-1225.4288,-1094.2445,-242.53137
-1044.6449,-353.18454,-132.33083
-1049.5127,486.1496,-101.8055
-1100.2332,1092.2491,-152.86382
-786.1866,959.23956,-265.31168
-792.1965,560.64935,-232.19305
-895.1854,420.59732,-221.55055
-1298.8865,187.77751,-452.21594
-1581.9265,271.40842,-554.33124
-3061.4294,-2026.325,20.567162
-3833.2534,-4947.9595,670.13635
-1846.5569,-3929.5815,813.9392
-183.49232,-2093.433,619.51544
477.3956,-1480.5981,576.44025
889.9474,-791.6231,406.28915
809.1175,-653.241,581.61035
923.49854,-437.45343,767.6966
973.9668,-508.81155,561.5283
864.38855,-271.15353,389.24518
557.30536,-969.4799,356.52646
403.80862,-1899.7701,-281.7068
306.1591,-4541.82,-687.2179
-1454.8885,-6130.6284,-919.15594
-1625.5287,-2982.2214,-712.77576
-1194.5723,-1124.171,-365.55942
-1333.7047,-20.647799,-184.35545
-1372.8315,576.3981,81.16469
-1052.0225,1025.6077,-4.4278617
-741.397,837.5148,-114.57317
-888.0716,722.9656,-62.366985
-960.9037,400.6628,-206.24214
-1443.4792,256.88394,-336.36816
-1983.014,-659.5536,-294.717
-3772.079,-3259.6204,461.29916
-3432.6199,-4639.1924,828.16565
-1246.6415,-3082.9834,505.8369
-17.432737,-1864.8613,455.9071
643.2794,-1265.3281,318.7823
938.73114,-766.6988,439.3051
870.9649,-522.7656,425.12598
951.90924,-430.41205,454.7352
974.1958,-531.1528,446.75693
962.99243,-514.3558,555.9873
662.10956,-1143.4219,273.29352
369.5094,-2578.8916,-182.45592
-394.55554,-5338.545,-706.0101
-1817.3235,-5493.408,-1004.4114
-1880.1816,-2248.8518,-538.6723
-1139.3301,-363.85846,-151.13257
-1125.5778,189.8677,13.904314
-1103.4795,951.5826,168.71848
-707.2857,1083.5332,-81.34115
-711.986,730.32574,-224.71568
-775.93195,415.71268,-139.69304
-997.3404,109.913315,-235.42348
-1373.9153,130.54546,-636.56067
-1906.4572,-625.4032,-124.48872
-3490.722,-2795.9314,487.84607
-3427.7832,-4104.228,808.34314
-1354.2357,-3101.1387,630.5495
-98.69163,-1904.6866,553.91754
348.1197,-1367.3729,674.507
814.67786,-741.4172,818.8092
862.3875,-357.629,595.9481
754.0043,-294.32034,399.98996
448.91922,-582.3803,402.22574
786.9693,-642.9881,181.87878
505.65738,-1286.6315,86.78189
131.90683,-2690.2148,-167.3222
-1091.2444,-4870.2896,-283.32974
-1444.8632,-4243.896,-80.818954
-969.30646,-1859.8038,37.778923
-467.26453,-586.5997,311.13007
-1438.2855,-186.22429,308.81592
-1533.2979,754.11444,-8.738834
-751.93866,860.1855,-158.33485
-898.7712,725.10583,-232.2166
-941.03735,293.6335,-251.4325
-925.91705,-5.76215,-14.709631
-1126.0676,-60.002396,27.19284
-2325.1526,-1293.0812,47.945953
-3309.4727,-3627.7952,413.09695
-3080.4807,-4374.5747,16.014734
-1353.3083,-2192.9548,-88.528854
-24.198784,-1120.6407,-157.35754
478.70435,-1184.9044,209.99423
764.09705,-1071.2294,489.70734
919.1994,-768.59766,416.15134
1553.7297,-761.21484,683.3989
1057.2567,-976.4929,871.0548
142.12866,-1619.2655,431.52728
-509.2109,-1892.7823,171.0121
-350.0695,-1331.7854,-90.37474
-1054.8752,-3473.1956,-502.5397
-2705.3967,-5071.924,-584.795
-1877.7621,-2718.782,-662.2033
-1357.9984,-1149.8243,-200.05592
-1351.313,-180.28546,-80.92516
-1541.6975,1103.9205,-329.48453
-945.93665,2052.984,-564.08856
-808.0381,1601.7086,-340.834
-1002.82965,771.9754,-157.54323
-1193.27,117.59597,-297.446
-1946.706,-355.4051,-591.28424
-2838.1213,-1846.7314,-217.7388
-3924.5366,-2954.0952,-214.06262
-3165.203,-3491.008,-320.58685
-1145.1074,-2033.1942,420.0525
-106.95688,-1237.574,446.44672
533.2027,-1114.4465,694.44214
777.41925,-787.3645,753.0361
942.7097,-460.43967,727.80493
1005.32684,-481.00793,477.16327
736.23956,-465.24353,496.6245
572.5538,-861.34125,299.13406
91.45785,-1455.7373,-7.118385
-166.33037,-2684.7192,-373.5556
-1332.2656,-5043.5386,-852.6634
-2329.1013,-4874.6587,-813.92126
-1657.9716,-1984.1035,-384.46408
-1298.1693,-756.9475,-135.04205
-1319.87,-21.674393,-97.41854
-1163.6852,496.6507,-36.498314
-880.3618,903.642,-119.44614
-962.38934,758.6921,-44.39585
-829.34064,653.1899,-139.65709
-985.07904,230.0441,-289.569
-1095.9268,268.54898,-409.92606
-1470.0676,-329.30203,-139.20615
-2643.0793,-1899.0844,-16.049139
-3874.034,-4187.8306,431.4284
-2123.391,-4007.412,667.558
-257.2372,-2085.1953,601.70844
398.56406,-1330.7206,696.5608
777.25635,-767.1843,811.76825
896.9066,-522.9405,831.97144
897.76306,-335.77475,719.7058
926.61414,-600.57886,701.84283
681.61676,-705.12054,628.22644
303.521,-1150.9384,298.85043
-5.1359973,-2803.3596,-437.12015
-1163.4761,-5508.854,-944.6649
-2194.4087,-5213.286,-1371.294
-1966.1571,-1884.4757,-940.7654
-1257.581,6.2695665,-473.1029
-909.44226,587.8401,-200.28218
-856.4375,1016.8141,-17.651451
-590.94086,1198.5634,-43.000515
-634.0228,921.62317,-381.66458
-690.9642,593.46893,-433.31216
-1266.6305,-132.7823,-334.77917
-1409.9055,219.02882,-211.22856
-2583.8337,-699.69104,-217.1217
-4267.833,-3207.3347,336.07785
-3367.116,-4178.2256,651.924
-1196.8783,-2712.4912,269.69412
-22.398056,-1312.2513,378.6718
460.93826,-1305.6234,278.9144
687.1751,-877.3524,434.29724
752.21857,-550.12006,517.82336
920.8604,-510.04102,563.19226
990.42676,-706.9084,790.5185
1110.707,-719.2915,726.42365
706.25446,-1328.4218,259.32715
144.36021,-2049.081,-201.9027
-742.3551,-5297.1147,-932.35175
-2433.8325,-6410.815,-1154.6959
-1948.1387,-2673.9573,-577.3289
-1097.4644,-774.5248,41.691864
-1188.9458,-226.92926,101.49979
-1434.7556,541.66266,26.140144
-1001.3936,1231.5997,-321.32516
-850.1856,1038.0693,-417.8041
-843.5899,594.58496,-286.9505
-1045.973,75.02009,-333.20413
-1330.6184,368.17706,-443.40045
-1668.4092,-1.4409233,-213.26596
-2750.9585,-1463.4502,-254.43668
-4470.9556,-4302.2793,315.28445
-2542.847,-5177.3765,515.99426
-303.28735,-2613.3977,515.7535
365.40884,-1488.7736,569.9425
927.3074,-756.31946,619.0086
968.59503,-627.7806,593.4313
935.9484,-291.81094,509.48642
907.3944,-618.5107,536.23413
968.33887,-657.2166,610.8863
697.6219,-1437.3319,385.14697
407.5848,-2301.5427,-407.04767
-635.2274,-5350.152,-1070.6373
-2201.5564,-6273.9336,-1193.7277
-2166.652,-3101.9255,-832.1601
-1570.1461,-758.49756,-495.20493
-1190.1967,303.58218,-264.63525
-1212.0874,582.5659,39.66464
-958.2276,1197.9985,-32.00415
-819.2766,1085.7295,-409.10507
-946.3404,895.66455,-319.33957
-1373.4517,213.4629,-359.30286
-1652.5421,113.174995,-460.25037
-2222.9,-397.61987,-351.1079
-3868.7808,-2859.0178,462.77618
-3983.088,-4897.007,1043.9722
-1492.5646,-3796.2905,815.18933
-100.797646,-2000.7227,727.93884
463.76657,-1439.2703,613.92883
686.14905,-647.05096,567.786
752.3865,-444.7139,437.69037
892.81195,-236.28171,481.52777
1025.53,-520.52094,600.562
970.0929,-491.37494,675.8671
633.7886,-1179.0125,520.89276
433.41107,-1893.6749,123.98089
-69.53298,-4715.483,-142.29901
-1554.2692,-6352.6343,-544.0033
-1727.099,-3380.466,-464.3636
-1303.022,-1160.2861,-283.59146
-1116.6381,-108.569534,-337.40814
-1229.0126,179.12033,-40.549076
-1059.9822,778.024,34.32695
-965.84955,768.62463,-186.86147
-1042.7278,572.3719,-187.4334
-1151.9082,467.79037,-256.96832
-1325.407,282.71832,-409.9169
-1760.1482,97.10623,-344.09775
-3062.8506,-2011.5947,260.7209
-4161.61,-4439.816,881.9028
-2097.6968,-4688.9185,798.2829
-59.408104,-2603.3313,791.5901
609.8386,-1582.6234,698.3472
1005.11694,-753.6104,721.5872
889.89685,-484.07498,603.1045
1068.3036,-155.96127,487.83667
910.2961,-351.97452,527.6615
894.41956,-447.04373,545.27454
487.7937,-1188.4695,487.99762
226.0671,-1956.47,18.030157
-264.20175,-4542.0107,-299.78165
-1806.2483,-6089.988,-507.14365
-1784.293,-3360.516,-451.89423
-1255.5004,-1044.1271,-294.0848
-1001.96075,48.43977,-209.62688
-1198.5488,312.52966,13.413664
-1048.5531,1045.9491,-92.35839
-802.17914,1095.5377,-450.54514
-922.48285,873.7443,-297.59967
-1122.2759,277.7874,-369.81848
-1546.3583,251.12091,-409.7822
-1789.7034,-485.19116,-278.05807
-3258.6235,-2598.5027,568.7186
-3880.3274,-4644.873,1267.6823
-1621.7656,-3743.6145,932.47375
-15.4397135,-2016.3314,599.59204
700.85516,-1362.7213,453.27054
1206.8845,-712.5828,485.0643
1115.5157,-394.73828,538.5483
1110.0846,-344.46594,447.80692
924.6626,-661.98083,457.2782
1152.1755,-721.46643,398.90698
693.3615,-1523.5786,131.0709
229.391,-3521.4512,-497.96423
-1384.816,-6019.935,-869.52905
-2319.3347,-5052.0244,-724.9038
-1830.6345,-2136.5005,-507.53885
-1477.3942,-524.3675,-381.7483
-1293.2668,74.11956,-238.54198
-1339.1747,477.12018,69.662575
-855.63293,1032.3334,-94.7723
-788.2997,883.66394,-150.49689
-846.40607,647.6558,-72.99803
-998.2266,292.73584,-209.02325
-1335.3276,397.4485,-411.9066
-2029.1921,-517.0966,54.582417
-2955.1409,-2834.797,153.7347
-3432.4487,-4756.5635,583.58673
-1427.709,-3958.5427,422.45105
-21.109238,-2056.0513,373.37872
575.77167,-1280.1409,323.75174
1074.2627,-577.22217,426.34378
1131.0557,-428.32098,472.8225
968.1296,-418.6171,481.96207
1065.228,-603.7974,660.33167
1084.2573,-889.9982,652.9951
713.5184,-1811.6859,237.32785
97.32175,-3786.243,-388.76578
-1688.0172,-6321.9927,-688.28723
-2371.6243,-4181.0522,-720.81946
-1742.2129,-1266.8464,-441.93784
-1105.5791,-61.038105,-330.25043
-914.35254,263.0362,-248.22365
-890.3824,868.55066,-111.367905
-805.8098,1048.3987,-194.99326
-893.01874,882.4165,-332.4641
-1030.7737,453.78867,-379.83063
-1345.3619,304.7191,-605.54083
-1638.0967,219.56012,-359.1425
-3255.1816,-1314.0345,-252.5257
-4886.02,-4779.2974,670.6022
-2675.2964,-4423.8057,861.69104
-426.51068,-2075.2559,526.23773
339.9733,-1370.6265,425.10187
856.754,-871.1938,322.61206
897.649,-617.15875,429.80145
890.18494,-394.9441,448.65652
876.25385,-573.36774,480.4117
928.4385,-664.8138,596.53156
753.09436,-866.95776,520.9863
485.6696,-2174.826,-188.25621
-397.2991,-4518.282,-615.0479
-2314.29,-5912.564,-962.0725
-2190.9988,-3289.7283,-955.84174
-1560.064,-785.56915,-415.14035
-1178.7753,175.89589,-240.08717
-1199.8707,412.5004,-176.96768
-987.44965,1124.6624,-199.78285
-681.29834,1027.3165,-387.06424
-762.2394,763.19073,-216.9681
-943.62067,223.15436,-113.16665
-1279.8329,376.32443,-549.2908
-1916.1451,-131.97581,-313.31552
-3422.296,-2362.4976,-301.06503
-3961.7883,-5609.256,-234.66573
-1401.2533,-3909.7866,152.30568
158.698,-1750.6578,240.04305
794.04065,-1363.2401,406.99966
1058.0299,-646.5105,515.9025
865.7212,-360.9432,503.5747
843.3453,-153.38744,469.26718
795.7044,-572.13104,554.51587
972.36975,-602.54083,528.7644
676.6536,-1309.7655,328.43716
572.0484,-2001.7355,-275.77634
-555.72345,-5424.787,-613.7202
-1939.1876,-6328.4243,-857.2308
-1640.6469,-3033.755,-715.5195
-1443.677,-1327.5488,-455.929
-1414.996,-97.065056,-450.3591
-1550.5087,235.66986,3.9352896
-1113.9528,1010.9286,-104.70525
-868.5274,1113.1902,-242.13875
-826.4595,858.2492,-210.27426
-1110.1357,271.0846,-183.50098
-1415.8096,320.12933,-438.31464
-1879.3967,140.8405,-484.1245
-3527.483,-1997.9508,5.340435
-4994.516,-5752.376,583.3109
-2156.843,-4470.806,791.2689
-88.050415,-1968.7168,610.6999
721.8341,-1373.341,610.2159
1286.356,-560.677,641.29224
1072.8821,-471.0493,590.0361
893.2036,-232.7936,589.9695
778.356,-759.2037,685.1865
977.7169,-669.7895,593.52
745.9258,-1485.3254,386.3838
166.72893,-2419.5461,-40.21032
-625.88086,-4973.922,-570.51953
-2013.9515,-5801.132,-531.16205
-2167.1453,-2854.4736,-400.46323
-1505.3188,-742.925,-253.73907
-1176.6359,-80.12444,-226.34605
-1041.3025,460.18103,-210.8001
-969.335,999.6012,-119.48648
-916.9431,1019.0066,-190.53645
-972.56824,830.6256,-224.84584
-1291.759,258.7464,-367.0199
-1484.9789,271.6608,-472.43927
-2044.1357,-398.25488,-204.76901
-3606.873,-2513.5771,124.505196
-3918.2793,-4785.2915,471.3877
-1550.1615,-3978.079,482.86298
-127.84692,-1890.0034,581.0866
509.38043,-1220.7036,549.4671
831.28534,-744.1302,508.09378
936.53424,-706.5474,522.45355
1072.261,-502.7154,488.85202
1087.5789,-556.1762,460.30783
874.9434,-649.34625,559.5358
408.878,-1716.5554,-17.33841
8.55103,-3172.52,-544.1476
-1094.8214,-6112.5776,-692.87634
-2189.7913,-4805.1514,-779.53503
-1726.8934,-1409.8854,-360.01285
-1094.1667,-117.99289,-154.52974
-1098.961,295.16544,-112.70001
-1100.771,1115.7754,-15.91883
-876.5935,1215.3069,-269.97153
-897.33484,970.7815,-385.32947
-1052.34,404.28894,-351.5199
-1290.6042,107.87928,-658.4978
-1797.208,202.86304,-416.01636
-3698.784,-2236.2773,-168.334
-4547.824,-4996.953,533.3988
-2282.5254,-3898.6768,727.2179
-346.258,-2035.7794,500.44397
410.48306,-1582.3527,421.57242
908.15393,-1025.0493,322.01474
761.54803,-640.0464,423.23508
813.4552,-432.19626,286.3661
954.70544,-739.12024,367.16977
1123.7958,-706.16095,393.30124
860.89655,-953.7588,470.57315
442.48,-1472.5653,-161.07086
85.328896,-2990.713,-591.76404
-1562.0715,-6104.42,-975.9883
-2343.1963,-4502.8687,-870.4867
-1551.4716,-1625.1401,-282.29053
-1113.2356,-551.43475,-90.80503
-1196.1229,96.345985,10.042356
-1409.2594,959.60034,46.139294
-1012.4961,1260.2102,-148.14091
-808.404,985.7325,-122.544304
-867.244,528.7058,-122.017586
-1374.5471,304.37683,-199.38136
-1789.8065,-200.34485,-306.06247
-2727.2463,-2224.6184,212.0
-3495.4138,-4052.4075,877.1105
-2072.467,-3441.9233,817.0027
-252.98616,-1923.5089,615.86316
165.55634,-1768.9745,664.3789
608.8263,-1049.2662,764.08636
792.41187,-561.567,856.3527
1120.5797,-432.95117,810.5113
821.71454,-383.00052,650.25085
855.56116,-486.45514,640.37726
352.38077,-1132.6166,382.98297
134.57732,-2803.2532,-32.003044
-1830.4906,-5288.2153,-347.58865
-2833.4084,-4778.6416,-652.5594
-1879.1475,-1915.161,-343.97604
-1436.3442,-525.3434,-157.41228
-1290.7542,296.3402,111.89668
-1125.4546,1225.356,28.074589
-584.29584,1591.9513,-131.30023
-711.89294,1108.5323,-361.52728
-716.00006,778.9949,-434.26062
-1398.9884,299.19955,-516.4807
-1592.5756,234.7609,-459.07428
-2697.735,-893.7704,-478.85748
-4899.245,-3573.08,211.45195
-3382.828,-3889.87,560.9374
-976.18085,-1938.1722,439.39764
149.53177,-1118.0122,624.954
855.6255,-931.1728,646.7776
901.0485,-686.83276,719.36176
810.57227,-703.4091,690.0269
728.4465,-880.1251,771.5984
718.18097,-872.31134,705.6933
533.9443,-1209.4459,412.47903
108.62735,-2070.3176,-168.7089
-534.93256,-3213.238,-1145.13
-2333.4922,-5326.5176,-1575.1296
-2733.6265,-4200.423,-1328.2845
-2154.7234,-1725.1847,-772.96204
-1627.8241,-417.00018,-282.50894
-1614.9595,146.67215,-173.70375
-1314.6947,882.70886,-126.70582
-957.1515,1253.3839,-140.94652
-764.6663,1258.4176,-138.37247
-742.10596,557.12036,-159.97795
-1036.5786,311.56497,-259.63547
-1225.063,310.50125,-267.59927
-2432.139,-1189.4064,-63.28604
-4180.4644,-4794.481,221.3297
-2540.674,-4660.54,387.48688
-366.4098,-2243.077,327.33145
418.86832,-1471.3661,390.7914
984.89105,-795.71735,418.1728
1172.3,-472.11185,496.80786
1074.7457,-320.7542,467.846
1092.7715,-353.16785,582.7122
1136.3724,-544.4367,580.05743
757.7173,-1309.1144,402.48642
312.46283,-1781.3033,-213.4217
-406.5885,-4533.653,-579.8559
-2214.4749,-6079.4033,-651.8635
-2350.1328,-3346.431,-545.20166
-1558.6467,-957.63525,-164.39224
-1144.1943,-165.65038,-140.53812
-1154.333,384.91302,-121.78896
-963.2637,1152.5789,-222.22583
-939.7281,1284.945,-441.8733
-802.10236,954.4242,-440.52563
-993.8822,407.0729,-313.0961
-1246.8959,206.17879,-349.8533
-1923.8248,-347.66327,-205.09818
-3215.4678,-2756.1492,287.1776
-3374.3853,-3955.0513,757.18915
-1735.1448,-3310.872,391.85568
-373.4829,-1929.4708,391.39554
192.98634,-1295.6548,373.98682
429.09964,-740.29865,537.36346
662.2576,-632.3822,521.8617
760.3641,-457.64767,579.18823
775.77124,-408.91202,678.2172
819.42926,-726.1922,624.63873
525.51636,-1011.7819,275.22717
235.63358,-2212.0679,-412.6824
-1328.7626,-4796.195,-1161.6953
-2313.8035,-4274.9146,-846.1213
-2048.2026,-1783.2671,-698.24194
-1723.3761,-341.55994,-376.15213
-1330.9454,243.86386,-102.52436
-737.48737,737.78674,24.586624
-467.6568,930.3282,-32.282814
-531.9454,810.75354,-34.463707
-671.46783,511.9425,-50.675972
-882.1465,155.44696,-119.65072
-1128.2764,270.0739,-614.35223
-2230.957,-499.1013,-526.8466
-4057.1516,-3043.3809,-149.4692
-3623.2988,-4462.581,-93.99229
-1295.533,-2722.8284,421.91187
-139.27644,-1142.5515,429.6436
671.9513,-819.2417,674.7483
994.51465,-735.89496,680.81177
1072.3303,-703.4675,645.24255
955.98816,-714.4836,600.1291
872.6656,-750.9018,525.0828
695.3239,-1158.7245,240.37326
322.92255,-1905.403,-248.6473
-422.64337,-3016.294,-842.9599
-1939.6595,-5257.7236,-1195.9526
-2463.1965,-4484.9463,-916.61505
-1935.8887,-1770.8195,-569.5196
-1562.7234,-376.1488,-259.97293
-1478.4498,231.19841,-257.62265
-1184.3839,1088.308,-310.76526
-983.2777,1545.8177,-299.8447
-1033.2014,1082.6451,-270.49448
-1179.2737,413.30365,-265.69165
-1410.9211,239.36551,-362.04492
-2068.1873,-492.33615,-229.51938
-3246.6755,-2666.5923,370.79153
-3421.945,-4221.247,770.95496
-1894.7013,-3221.9333,520.6028
-409.95673,-1768.6517,373.21252
411.1828,-1283.0986,443.28485
887.23834,-910.4155,634.65564
975.8822,-679.3931,565.65857
1139.7644,-377.551,579.9362
1023.8247,-358.73505,566.8183
923.2494,-369.4056,571.90155
647.4289,-1488.3324,294.8293
168.1344,-2366.855,-236.93756
-593.9811,-3792.7053,-918.7523
-1934.7697,-5189.293,-1070.7665
-2678.9934,-4231.593,-808.6036
-1949.6167,-1593.4248,-499.68625
-1382.8534,-210.98898,-167.45871
-1354.3684,353.36026,-220.76158
-1134.6635,1207.9432,-392.01196
-922.9428,1622.1814,-399.33405
-1035.9138,1205.6415,-221.93517
-1022.5144,288.44687,-181.99678
-1256.7103,186.43689,-427.49695
-1835.3209,-290.7098,-301.2819
-3211.418,-2536.5251,40.724075
-3408.5754,-4270.8945,178.8426
-1896.2363,-3406.6975,194.53986
-386.3971,-1843.009,262.0685
225.48285,-1276.3558,421.3389
627.61176,-766.882,517.93695
717.81323,-593.50165,603.9968
906.9684,-382.54932,681.7843
949.5958,-382.92987,730.07806
956.0087,-689.7395,750.8384
563.6142,-1265.3503,432.02844
342.63882,-1935.7568,-305.69833
-929.98956,-4659.053,-980.7718
-2606.3076,-5608.772,-1372.8362
-2277.5999,-2551.637,-925.8894
-1425.8761,-712.7099,-331.80356
-1073.5864,-117.98474,-175.45242
-1026.876,517.4484,-81.43561
-830.69147,1195.3888,-79.59256
-746.8754,1281.4064,-297.57126
-739.3639,915.37836,-364.77316
-1029.9745,311.68445,-480.9373
-1363.162,251.78867,-451.2679
-2084.009,-554.7557,-319.0984
-3618.5215,-2945.7783,155.3037
-3328.8328,-4184.0146,490.45193
-1309.1346,-3033.3958,355.0408
-236.26395,-1702.1958,489.2391
158.45206,-1117.4291,551.3141
518.5803,-620.7835,742.2934
825.9646,-408.41714,765.02155
926.6304,-100.02474,732.4696
639.6061,-260.82065,612.1732
571.3653,-636.7767,572.72284
277.5437,-1197.6106,133.08247
222.02925,-2414.8215,-808.83484
-1118.138,-4385.195,-2105.3132
-2529.545,-3702.1409,-1939.8306
-1605.3252,-1743.6395,-991.01135
-1208.474,-1008.6747,-445.16946
-1210.4612,-202.68129,-88.71749
-926.4689,473.3562,-3.2311137
-839.43555,990.80316,75.13182
-855.66547,907.32135,202.47485
-869.59674,617.3639,22.558956
-983.5998,494.9711,-75.19716
-1147.9403,380.39456,-212.20796
-1282.5055,-471.87793,-796.684
-2938.9924,-2508.5005,-747.06177
-3459.6243,-4552.371,-268.53375
-1327.3595,-3102.4438,75.54337
-36.28533,-1420.8259,534.90955
734.25745,-1219.8093,690.0084
1031.2274,-794.62213,972.8517
1141.5275,-500.17166,978.33905
962.2363,-239.9404,933.2713
762.4766,-545.64264,797.71893
432.26294,-849.817,643.11786
176.30922,-2041.3405,30.733854
-426.81528,-3796.1675,-1109.2133
-2090.179,-5232.121,-1585.5676
-2281.3901,-3390.9492,-1128.9797
-1580.549,-1182.0598,-504.18872
-1300.6328,-276.29172,-246.1706
-1176.7255,666.7985,-230.48936
-847.2808,1409.7322,-211.8541
-645.7623,1467.636,-335.29947
-870.1153,1016.56696,-260.86987
-1231.0696,370.5393,-224.63947
-1544.2434,223.44762,-449.73422
-1967.45,-384.07272,-470.79187
-3549.191,-2290.07,-82.78408
-4070.132,-4395.816,20.757156
-2020.3154,-3179.957,344.02426
-415.51822,-1538.72,419.8694
319.27997,-1238.3154,482.24677
756.3721,-933.67163,506.98813
892.34735,-577.8307,670.887
945.25867,-495.00925,645.6703
944.1242,-647.0499,751.623
995.584,-593.5328,651.89276
755.0989,-1437.5532,60.086575
91.90276,-3147.5479,-831.4704
-1374.4266,-5462.647,-1636.3867
-2636.0342,-4891.194,-1414.1066
-2281.3218,-2057.3015,-776.87164
-1383.289,-296.16937,-232.89049
-1149.7389,317.2416,-207.33676
-1033.9648,1016.0563,-131.44441
-749.79584,1460.9346,-303.8802
-844.70264,1335.9666,-464.30646
-937.4941,645.0018,-404.50403
-1497.0424,129.32655,-432.65607
-1666.3922,188.96257,-663.8208
-3299.8396,-866.1268,-591.47095
-5032.166,-3930.0288,461.21915
-3036.9368,-4283.7593,399.27002
-800.1597,-2259.9514,374.22473
129.10706,-1358.3533,467.71713
678.6436,-856.2296,542.07336
923.74713,-706.5388,731.68005
1106.0111,-513.54517,703.7655
1007.162,-749.99316,734.717
706.92957,-907.4779,642.7315
326.48575,-1094.7875,301.8874
-20.20892,-1975.3851,-417.71976
-1248.7185,-4465.6353,-1341.7452
-3125.4788,-5446.829,-1888.7561
-2599.398,-2268.4587,-1187.7085
-1533.8148,-513.1942,-298.74582
-1173.0602,170.68906,-81.85178
-947.9137,1002.4279,-44.678566
-673.9227,1776.5037,-172.9469
-579.79425,1450.7904,-452.7711
-647.4279,842.6603,-478.29297
-933.12866,223.58307,-543.15845
-1472.7899,164.45062,-466.91003
-2324.2732,-102.73199,-768.1396
-4889.16,-2629.744,-1003.5738
-4333.898,-4694.205,-220.03915
-1492.7598,-2762.6262,3.456064
-90.45554,-1553.6566,361.79276
423.18094,-1227.6534,556.07654
620.67694,-877.9223,638.2867
702.0134,-646.63055,579.8447
817.0994,-712.7005,712.45245
890.2881,-673.81665,791.0966
658.659,-1021.27655,830.4323
120.34524,-1453.6647,303.7295
-166.1432,-2623.1934,-372.8154
-1487.4495,-5668.83,-760.78516
-2654.807,-5548.5903,-1121.5109
-2253.7842,-2102.2534,-698.53235
-1447.8079,-259.89664,-345.02463
-1212.4634,103.98219,-238.95387
-996.85474,663.24164,-85.18945
-911.3115,1197.8022,-190.71039
-840.8372,955.3631,-293.97443
-862.713,617.9721,-323.71005
-1043.2819,167.14238,-570.9522
-1289.1736,264.7691,-518.4768
-1455.0544,98.56471,-503.56512
-3167.7375,-1599.2932,-680.37756
-5084.5093,-4429.115,-143.01004
-3004.9702,-4635.6216,391.42264
-568.7111,-2203.7166,748.9463
309.82007,-1283.1974,663.96387
879.93665,-696.6926,640.7557
922.76373,-666.14,656.9073
1066.2649,-460.8687,565.24884
971.9033,-836.8418,616.81433
940.4236,-737.79663,603.9819
464.6981,-1374.8226,159.55997
227.31442,-2275.7107,-476.61246
-1058.2443,-5688.6465,-1082.8877
-2473.731,-5882.2266,-1215.7543
-2231.012,-2438.7964,-650.3495
-1529.7804,-565.89087,-243.47327
-1352.2974,218.0306,-136.80194
-1302.8298,1035.1277,34.75246
-798.7404,1450.2782,-235.82243
-777.5278,1048.7145,-453.13745
-831.1169,718.35114,-416.09787
-1257.0433,184.79028,-414.14282
-1490.2217,76.83811,-443.41022
-2240.805,-268.3817,-502.5272
-4706.7505,-3058.5308,-208.9912
-3806.9705,-4504.921,65.413086
-1307.6149,-3233.016,-63.241714
-134.11655,-1714.0428,103.12075
511.59964,-998.95404,299.99307
702.45337,-888.40204,543.2612
973.8755,-773.95795,360.9787
1068.2811,-659.61316,441.13098
874.25244,-578.8637,445.5753
990.031,-485.83478,290.87802
563.52924,-1564.7472,-6.086311
217.72049,-2825.5173,-828.89764
-1392.2815,-5714.253,-1482.3726
-2704.5237,-5446.3237,-1245.7361
-2064.299,-2087.7708,-765.6451
-1470.0903,-250.14938,-264.59204
-1330.8054,259.3127,6.853147
-1302.2213,818.8562,-59.768623
-873.4515,1474.8187,-329.87134
-915.55414,1160.7285,-370.03525
-1056.0214,497.85587,-317.12207
-1327.1318,102.9744,-333.62973
-1567.9755,214.80531,-534.3726
-2261.8616,-301.62296,-537.8015
-4664.4,-3638.6785,159.07576
-4161.1953,-6202.3296,815.47473
-841.55786,-2873.9229,769.1828
277.20874,-1422.6042,682.5188
917.1805,-777.0991,668.69135
989.96246,-333.408,614.0806
1012.6184,-146.48296,582.8969
1020.6678,-468.27646,558.90454
968.7015,-837.44366,678.76373
522.4329,-1308.8381,677.4466
198.08344,-1672.8259,134.94458
-235.45499,-3705.3281,-339.82578
-1472.6102,-5821.537,-503.69528
-2132.603,-4016.026,-611.996
-1525.6772,-1283.6396,-396.07205
-1057.4407,-105.74312,-238.50731
-1105.7332,275.98508,-199.678
-1091.0764,1009.82666,-143.14932
-845.90735,1342.5259,-391.8746
-866.9104,994.0247,-472.6425
-1148.8062,390.20267,-360.40936
-1533.4788,168.93256,-436.78418
-1841.0526,-277.36456,-265.10056
-3729.6436,-2840.5432,490.9398
-3990.0002,-4935.4414,735.6665
-1352.966,-3749.3142,419.17432
20.535137,-1981.3737,367.6788
552.1149,-1098.3204,341.55994
888.21783,-140.09058,279.65964
806.79724,-251.11136,302.12592
942.5024,-378.85272,352.25867
964.0763,-565.7404,325.712
1155.6763,-500.59662,479.7598
1011.4794,-1361.8396,91.87698
686.31494,-2314.6416,-422.50064
-184.63914,-5149.364,-944.49524
-2176.4812,-6332.407,-1060.5443
-1910.1151,-2499.7825,-512.7621
-1373.4185,-465.08133,-108.059006
-1479.966,154.09766,44.526688
-1388.1375,917.1237,12.630677
-862.54364,1257.5616,-122.3464
-706.1517,1000.0507,-235.30661
-742.44006,484.8388,-272.10443
-1073.6674,197.84506,-355.0332
-1431.9791,146.42058,-488.2994
-2460.091,-1413.8527,-273.4369
-3941.1658,-4395.668,132.00134
-2558.815,-5036.1714,419.98776
-411.7764,-2534.1372,511.26614
484.1797,-1218.1162,504.1762
1030.2709,-656.70575,516.9192
948.9858,-485.88074,433.3377
923.0544,-157.23717,341.06277
811.311,-413.3843,395.0721
896.3654,-603.4048,477.2857
738.22675,-1049.3402,412.39682
479.90723,-1871.3057,27.344395
161.98236,-3795.912,-284.1304
-1485.2761,-5645.0425,-444.11563
-1940.6631,-3293.3994,-568.139
-1250.8579,-693.4771,-276.47015
-934.6048,-6.1966243,-119.31241
-853.8489,425.13602,-44.457996
-951.95685,901.713,127.990654
-774.226,975.8063,-127.876976
-681.4003,870.82336,-221.21051
-781.91754,355.3743,-444.22366
-1350.3469,181.36446,-377.1979
-1785.0859,-213.38794,-670.2182
-3963.6794,-2911.5215,-521.2898
-4247.044,-5472.631,372.954
-1370.8442,-3618.156,534.18976
36.184113,-1458.8373,678.92896
653.7888,-768.51776,486.49402
999.60754,-334.55362,284.7742
964.5989,-175.93068,130.59338
927.62537,-131.40004,137.22917
919.64764,-283.61813,274.52994
993.93494,-493.9245,242.72012
526.29407,-1274.084,120.81924
369.5666,-2427.925,-453.28763
-29.710255,-4759.7256,-831.5241
-1924.13,-5696.6113,-871.1129
-1833.656,-2519.181,-368.10217
-1257.9543,-428.4235,29.83729
-1270.879,-4.418332,278.89514
-1145.1116,882.37573,338.08423
-652.99097,1396.8003,-135.93661
-639.7011,1026.5236,-196.3255
-661.151,455.8006,-264.76355
-953.5443,34.330868,-405.61667
-1288.7118,257.97675,-543.7858
-1968.8123,-884.492,-231.37639
-3921.3755,-3901.5364,50.39136
-2980.57,-5003.1426,521.9074
-675.0118,-2894.6948,429.71606
282.3271,-1331.1941,362.37503
945.8753,-706.48663,346.74872
956.0053,-546.9256,440.91763
999.30554,-366.0148,429.0438
992.5041,-403.14938,468.93756
974.51855,-379.41925,497.08966
749.65137,-493.81033,505.95773
387.75443,-1756.217,95.59571
238.24712,-3638.1194,-427.3108
-1165.9082,-5906.8687,-740.49994
-2087.4785,-4859.932,-658.6743
-1671.2438,-1757.1573,-458.74075
-1327.9727,-247.20425,-241.88864
-1274.5836,360.5308,-3.8556259
-1154.8348,1071.8007,87.613754
-801.4821,1203.0724,-85.12258
-860.82007,807.36566,-154.24454
-869.97284,566.4991,-198.14873
-1291.2584,257.33624,-441.46634
-1664.8016,294.41364,-423.8876
-3060.9507,-1852.1105,-120.569984
-4660.653,-4870.639,391.60516
-2585.553,-5298.898,679.00116
-197.83562,-2908.6685,424.2448
756.57263,-1256.2782,310.3256
1586.1051,-992.41656,339.4178
1284.4601,-645.58,507.87698
1106.9895,-348.68964,431.0802
938.1786,-384.48297,521.4118
1090.6053,-349.65903,510.18527
703.50476,-1262.144,475.0881
242.67448,-2234.234,29.204971
-328.97064,-4216.393,-225.27376
-1482.7676,-5816.927,-389.65875
-1842.489,-3357.763,-435.06223
-1326.7765,-989.7272,-402.87128
-1239.9124,-27.034895,-116.10047
-1201.3721,310.28873,71.31833
-1001.3455,951.3964,-15.7016
-711.7155,1021.62695,-294.40622
-901.08203,902.25995,-189.66623
-1135.1001,329.3756,-255.01907
-1400.6886,273.48245,-447.09937
-2109.8018,-281.03513,-427.66678
-4081.3376,-3232.2578,248.0271
-3987.5164,-5515.2114,850.5821
-1203.4921,-3843.4397,734.07605
220.07825,-1919.0558,584.5488
827.9695,-1234.954,399.17267
1061.7361,-619.45294,480.29413
955.0307,-323.5866,431.86902
1026.4485,-191.05695,318.676
944.09204,-455.80377,386.45428
946.0199,-767.0864,507.3324
576.2629,-1518.1254,297.13782
354.4553,-2436.782,-58.937405
-283.59018,-5108.9067,-150.81827
-1544.9346,-5266.433,-137.05302
-1603.9152,-2491.1482,-152.82072
-1141.9032,-602.0531,-152.85248
-1003.272,77.85353,-210.95364
-930.6013,441.3244,-79.87822
-915.9394,928.24524,-142.44441
-878.6639,965.6751,-369.78766
-1012.87366,590.525,-444.69687
-1202.9576,300.33478,-475.2968
-1551.5345,360.97855,-281.70654
-2641.2083,-1892.2087,180.50531
-3985.5278,-5135.509,1146.3359
-1924.7672,-4640.149,1110.8186
84.99599,-2484.9539,702.3383
718.5089,-1409.3064,565.0079
1046.9508,-621.068,482.51733
905.86316,-288.45203,384.94217
894.14844,-71.0223,396.4809
907.14136,-133.17606,490.39755
1099.5867,-413.3605,519.0626
982.205,-985.27246,621.66974
360.957,-2234.9875,221.83287
159.82822,-3458.2854,-116.0155
-666.3698,-5043.3135,-107.32675
-1585.4205,-4093.896,-289.53247
-1132.1934,-1639.5431,-222.77014
-951.68866,-581.2019,-219.36638
-1014.42035,10.313256,-175.36348
-1186.9713,509.62485,136.15605
-867.0072,992.20197,-208.00531
-787.43414,945.9152,-399.23462
-1053.4568,659.28076,-330.06332
-1350.1879,426.70795,-294.8951
-1595.961,-214.94043,-238.03343
-2827.9763,-2896.1265,274.082
-3387.8682,-5046.29,1056.4849
-1405.0984,-3907.55,839.68054
115.18615,-1756.3699,839.0529
618.04114,-1059.9882,619.30194
981.6303,-463.1966,499.95206
987.22955,-333.69968,373.71634
877.599,-178.24101,482.22195
791.8706,-447.68808,535.10187
751.9567,-692.571,655.9006
279.57645,-1195.2086,401.01315
66.10519,-2821.3398,216.02213
-1015.1288,-4880.3584,86.31966
-2093.316,-4680.2544,-370.94797
-1487.4651,-1597.8173,-268.2562
-662.6753,-138.74521,-123.38636
-669.53644,-33.147713,-63.040997
-1021.34174,533.2284,152.30266
-877.60004,875.2691,-165.77443
-904.79114,832.316,-536.2538
-1032.0602,653.53424,-414.27823
-1299.1406,278.41968,-348.4688
-1377.8945,58.98073,-549.5567
-2323.2046,-1293.2573,-291.8784
-3765.2058,-4068.6213,442.2781
-2592.7317,-4664.518,423.9152
-481.54053,-2403.4932,331.09543
329.1215,-1265.9058,267.26294
815.2971,-949.281,214.65366
957.6207,-513.4545,313.85144
908.39197,-364.19147,402.17856
996.6482,-338.7268,438.71564
805.0351,-503.26785,462.81403
573.2365,-615.4393,496.4007
44.600876,-1657.8407,91.016106
349.94217,-3095.327,47.261204
-1354.5411,-6019.468,-240.06435
-2258.7148,-4323.039,-209.30498
-1025.5703,-1174.715,122.08687
-1254.5444,-545.61066,99.09542
-1373.569,381.81366,196.62003
-1216.625,1070.8231,-41.85486
-651.1375,1102.6676,-259.8724
-771.60583,592.3924,-295.32834
-730.01544,282.39603,-408.12674
-1282.0559,183.15501,-566.4742
-1222.7643,228.52269,-614.2817
-2914.5742,-1924.7245,-337.46802
-4442.559,-5047.9907,762.0156
-2073.849,-4772.956,699.67737
-88.80981,-1911.7644,501.63608
578.4717,-1015.3682,286.8447
1120.681,-730.42944,274.59717
1055.7472,-519.159,311.33316
1088.7928,-262.617,525.3562
993.39233,-379.117,558.64954
937.162,-750.3844,573.3201
368.62936,-1198.2513,452.5874
273.88055,-2121.9507,58.827682
-565.9495,-4883.3926,-104.582275
-2054.2705,-5855.259,-417.4542
-2079.0044,-3117.5706,-291.58905
-1347.7947,-487.7691,-189.71184
-1066.1537,98.52535,-89.23993
-1025.3002,851.5255,-5.18652
-788.1305,1385.575,-149.11604
-716.1944,1144.2269,-333.6634
-941.1149,652.8065,-483.28278
-1306.6685,247.67152,-527.90594
-1692.2013,81.6869,-548.3703
-2356.5706,-619.2917,-701.6922
-4986.837,-4288.6064,239.15111
-3437.263,-5945.5483,386.22253
-474.24606,-2903.9478,527.6795
566.6875,-1407.5433,366.99542
1346.9081,-775.8353,343.27795
1265.7408,-621.169,321.27573
996.3092,-549.2794,229.17323
884.8233,-706.49506,388.55298
785.7845,-661.0777,439.67413
773.0824,-690.4871,370.63815
285.9494,-1440.1067,130.22482
129.98808,-3088.7998,-262.3925
-886.95795,-5568.1943,-514.56036
-1480.2257,-4762.698,-585.7037
-1126.062,-2118.9236,-221.99348
-878.0532,-645.3667,-165.20267
-999.18475,184.19101,-161.84575
-1194.9393,574.7753,58.84577
-1233.0259,1090.0693,-108.28819
-1041.9708,1118.9231,-440.12497
-1279.4825,749.74054,-406.49634
-1555.3234,220.66867,-494.3816
-1843.186,100.3723,-413.6532
-2697.2869,-1710.1172,-173.68442
-4343.9097,-5010.5386,513.3568
-2455.0342,-5343.79,640.28284
-274.88824,-2985.6416,625.99963
501.42355,-1345.2786,555.63324
1004.22205,-699.41583,493.68567
727.9006,-534.3066,468.4535
650.4365,-519.8916,457.97583
672.13605,-496.55414,577.257
790.5286,-359.44202,558.53326
878.66455,-518.3294,685.7673
764.8992,-1313.0332,169.04263
613.58435,-2686.5862,-216.23894
-629.6249,-5991.3438,-421.9459
-1887.7777,-5786.013,-746.96826
-1755.9344,-2300.9124,-517.2409
-1275.2236,-269.5866,-436.55624
-1045.4991,394.51807,-85.79679
-1027.8387,843.0629,236.03606
-826.2533,1156.7616,-58.63125
-963.8607,931.94543,-400.81537
-1069.4972,635.3051,-442.32968
-1315.3444,-1.7000195,-420.5507
-1420.4795,152.497,-445.83887
-2361.8906,-665.98145,-396.48682
-4716.8726,-3721.5425,568.4001
-3665.3381,-5413.384,1014.79224
-779.1324,-2716.9473,1023.40106
196.53676,-1415.8096,888.92163
859.37024,-791.66364,697.92615
1128.1776,-392.17896,558.23816
1063.3942,-276.00644,491.9535
1039.632,-408.07907,496.77945
911.5871,-523.7578,591.2749
687.2435,-849.62024,494.47025
397.11075,-1686.6245,44.915924
97.329834,-3739.2637,-269.9094
-1345.4331,-6403.755,-894.80975
-2172.6836,-4389.412,-735.2479
-1545.6565,-1376.5531,-366.76868
-1273.6537,-106.159454,-98.746284
-1364.6569,439.57388,88.54832
-1245.8171,1330.3248,-12.210712
-866.8468,1275.1052,-307.82684
-933.50323,823.563,-324.37827
-1047.9143,352.97433,-423.4561
-1509.5558,178.7885,-409.6355
-1755.4056,-263.2694,-430.0899
-3524.0476,-2467.5715,157.71489
-4291.1973,-4965.436,1034.2446
-1738.4224,-3920.4194,801.9651
-67.41557,-1895.5371,812.6565
580.13965,-1115.6525,587.8403
962.6307,-484.39172,490.06625
903.3966,-394.64783,469.3253
944.6658,-338.31036,527.48065
971.976,-458.49042,472.53082
948.8208,-421.21414,648.1626
658.89703,-1181.3025,376.69107
399.55087,-2394.8176,-222.7127
-138.66458,-4667.9883,-623.2263
-1805.1324,-5832.082,-867.76514
-1886.706,-2725.6345,-648.5725
-1296.758,-563.2446,-368.5677
-1168.6405,-25.159376,-82.91582
-1226.2971,579.0683,208.78336
-964.23834,1041.3981,20.369305
-796.9333,860.4744,-177.67923
-801.8088,580.9013,-182.27127
-908.0758,225.36545,-269.22263
-1248.1945,315.94083,-501.94553
-2047.4015,-686.08716,-156.0925
-3742.748,-4008.6807,484.11642
-3057.2449,-5033.939,1079.7695
-538.3391,-2688.43,972.86676
410.5584,-1294.2609,829.19794
998.17816,-715.637,645.7243
920.4319,-320.9138,527.90753
944.4628,-98.117065,392.37936
879.2338,-200.1546,398.61035
1170.1772,-475.52478,349.59723
924.26135,-938.5266,402.92972
480.59518,-2420.7085,58.054634
-62.047035,-4699.0015,-414.298
-1934.7137,-5490.089,-533.44727
-1767.7645,-2674.8108,-515.7577
-1077.2632,-450.8283,-200.1664
-816.6262,-48.420128,37.4698
-959.71497,619.7519,146.60066
-999.48694,1026.8567,14.368529
-830.2434,767.2554,-242.2573
-670.20905,621.33264,-278.95477
-862.3498,252.55246,-396.4242
-1317.2776,368.29935,-357.93036
-1880.4503,-708.5725,-274.34552
-3366.137,-3622.8933,247.17291
-3229.4954,-4456.2563,842.5769
-982.2325,-2786.6843,698.9134
25.258259,-1413.9706,714.26874
634.08276,-816.7332,485.43967
906.8937,-261.8895,390.92526
937.9908,-286.97562,429.05188
926.7762,-197.68442,526.0268
1099.1038,-410.29294,462.24918
1107.1394,-926.34436,553.0354
521.6799,-1970.2756,31.946333
699.8129,-3079.0056,-702.9833
-943.07733,-6147.9077,-886.2242
-2131.8604,-5034.3535,-915.7337
-1490.0985,-1362.591,-571.721
-1172.1979,-148.99422,-203.75502
-1337.102,229.563,172.82207
-1448.4059,1275.3527,126.24765
-859.1605,1361.0215,-360.7032
-860.7506,830.6002,-235.80899
-927.0867,236.70193,-337.30347
-1408.3499,380.09735,-199.3177
-2038.1484,-467.4386,-269.86078
-3540.268,-3775.866,364.26532
-3313.4858,-5004.654,993.30286
-965.38043,-3585.8196,625.66754
240.10048,-1718.1508,666.0941
819.3587,-1001.7744,468.69
999.23944,-499.3391,486.34283
833.3583,-342.412,424.28238
853.1008,-193.16833,519.0857
976.0369,-357.2188,549.64325
1375.1882,-573.4948,495.34073
977.5314,-1763.2504,162.48419
593.9654,-2916.446,-417.39172
-511.52386,-5346.296,-564.3772
-2050.8591,-5407.12,-300.2144
-1640.3667,-2022.732,-259.31848
-951.2053,-52.289566,-19.880255
-937.3586,100.21824,-11.248926
-1291.0737,976.0935,65.45874
-1111.0236,1225.935,-300.36197
-966.53735,1045.5382,-442.67493
-1054.152,597.23895,-452.88858
-1618.3978,211.24983,-254.67064
-2267.8015,-311.9181,-406.9257
-3806.2852,-2498.7063,-261.33148
-3836.1375,-4591.0894,421.2884
-1780.7285,-4042.2017,289.9467
-297.0182,-2333.5657,680.58185
361.76932,-1375.903,595.18414
817.3658,-561.9248,480.8147
996.3701,-448.3077,392.6848
987.5103,-307.97623,527.51117
913.6206,-296.53384,470.1004
882.81976,-169.43619,538.5673
613.83734,-993.8449,433.4746
181.852,-2146.6768,77.875946
-219.40044,-4207.646,-269.47192
-1576.253,-5878.427,-557.5434
-1747.1595,-3739.0813,-423.65744
-1161.7542,-1374.873,-256.43362
-928.9619,-252.03882,-298.31375
-1229.1815,142.69534,-198.775
-1503.9072,643.928,23.932865
-1253.6382,1031.5006,-264.03635
-918.4653,812.06384,-404.6056
-1078.1847,452.6395,-320.37018
-1399.7162,172.46078,-269.24942
-1869.6694,43.303802,-182.31972
-3071.259,-2169.0566,58.29058
-3842.8687,-4615.079,797.9215
-2033.4618,-4360.594,778.73773
-77.53608,-2380.502,779.60547
556.69525,-1496.4904,591.4629
884.52893,-827.10297,458.60513
840.1306,-535.132,452.24655
980.6691,-334.63794,489.53662
1059.3445,-302.53445,505.7719
1016.9721,-367.66263,651.85956
479.47507,-1275.3856,501.3674
215.90416,-2426.3286,-89.13027
-784.33167,-5731.703,-336.16968
-2170.8792,-6420.3896,-818.44147
-2066.316,-3108.2087,-538.2838
-1752.7479,-801.39246,-400.2438
-1503.4716,607.39404,-78.223114
-1361.0979,1575.0306,112.76237
-972.37787,1699.3784,-247.29889
-896.0721,747.0788,-365.04416
-925.3992,525.95294,-381.17703
-1387.2283,-42.24823,-409.04968
-1676.8291,179.25407,-553.8003
-2223.975,-865.5395,-289.42264
-3613.927,-2816.7566,364.41354
-3742.344,-4262.975,776.15643
-1843.9828,-3618.7302,586.911
-263.44803,-1859.4407,515.21765
322.52475,-1214.8456,372.9613
771.42914,-663.6781,473.33887
738.7846,-475.1549,660.36896
1009.1977,-172.15956,583.06866
1105.0972,-287.13623,615.93097
1169.0144,-444.37048,772.1237
674.5975,-1621.538,323.27454
305.0823,-2829.486,-286.08536
-1153.7372,-5693.2754,-812.9218
-2638.2317,-6535.9937,-823.9782
-2533.8865,-3160.761,-553.35974
-1933.8988,-928.9932,-279.46494
-1793.4927,129.47504,-257.54156
-1860.285,659.08124,-37.881348
-1221.6321,1553.0665,-131.209
-994.494,1385.593,-347.67902
-1044.2985,657.0657,-132.09703
-1162.175,246.10573,-184.14029
-1412.8341,455.58417,-370.12564
-2424.312,-803.45404,-212.40321
-4316.984,-4331.1978,497.79886
-3252.9167,-5139.978,1126.8502
-619.524,-2693.1016,1108.8523
286.3293,-1571.5311,1060.6079
824.0125,-757.7241,779.41644
921.9468,-302.38132,607.4345
981.4899,-177.2916,400.15924
1020.5915,-202.81027,348.82007
990.72955,-363.8729,455.63312
980.8769,-1115.6814,556.19855
569.5539,-1990.8204,191.98363
419.54205,-3806.261,-168.74854
-1314.3623,-6497.5723,-348.5528
-2108.212,-4062.1367,-397.99634
-1473.3417,-1009.2109,-136.91988
-1143.5062,-99.74863,-128.28036
-1132.5276,471.87476,-0.5277331
-1092.8987,988.9531,131.80153
-845.9092,881.55273,-192.9636
-874.923,572.379,-258.9404
-1105.4032,315.59427,-327.62878
-1561.0497,248.62837,-362.2151
-1950.3339,-288.21072,-286.33325
-2918.508,-2525.41,333.84952
-3632.6746,-3968.1106,1232.0209
-2227.1074,-4088.9917,1141.3834
-278.5469,-2156.9116,858.77576
316.46646,-1354.0768,675.87726
874.3344,-491.12012,505.33115
948.68787,-242.65652,483.57697
979.78406,-183.68977,510.55316
883.5493,-266.38498,456.3623
1054.7233,-204.52965,543.91736
930.42975,-1556.1047,456.8666
655.7992,-2559.5789,-110.90568
-220.65112,-4960.811,-390.8019
-1890.5814,-6186.078,-335.14822
-1780.8906,-2802.119,-332.66006
-1260.4135,-789.0752,-237.42354
-1302.7487,168.61118,-227.53851
-1444.0087,667.636,100.526085
-943.63855,1284.8226,-150.85088
-781.8455,1009.443,-363.52103
-846.4232,634.65564,-316.0181
-1117.0354,138.80508,-217.51056
-1495.7522,337.55228,-396.21664
-2467.9565,-1026.7922,-85.13149
-4132.8086,-4310.785,983.63525
-3014.737,-5464.4575,1233.3994
-522.50555,-2850.064,951.1646
534.9529,-1287.6802,692.2025
1278.2529,-673.24567,508.53986
1288.6664,-422.04462,450.80176
1235.8684,-257.14728,485.5207
1076.9163,-354.7985,426.74207
1211.4778,-529.46545,391.1098
921.80853,-1435.0073,352.73825
449.7574,-2659.5002,-139.72498
-486.46362,-4757.1895,-152.75061
-2010.2317,-5526.6475,73.195335
-1868.1786,-2534.9404,-53.520332
-931.35614,-548.13776,-1.6111125
-736.09247,-62.295017,-89.08663
-937.791,387.50775,63.06863
-1094.1062,1073.6979,-117.57461
-965.24976,1142.513,-467.7692
-976.2395,695.6701,-358.38892
-1311.2006,122.62866,-388.65442
-1552.2156,339.84695,-471.14893
-2262.852,-829.0419,-444.208
-3708.0073,-3580.8203,378.27216
-3222.6426,-5033.3296,936.3707
-883.92316,-3409.5354,1111.0895
199.41588,-1519.0604,1097.3407
711.3345,-706.72314,712.2453
872.8758,-318.19357,509.01065
914.76373,-323.45923,344.06088
968.74615,-187.30865,436.55252
886.7631,-512.3694,635.37213
731.46643,-912.49567,603.4903
505.69946,-1391.7089,103.9553
419.32217,-3097.9368,11.773844
-1036.3658,-6242.005,-53.684624
-1906.3694,-4499.0557,-124.077126
-1360.4397,-1710.0712,-56.137524
-1034.8574,-427.42572,-185.3205
-1016.0384,50.27984,-118.66679
-1266.5275,513.6954,89.60212
-921.18475,1119.7393,-293.2787
-675.61414,914.2817,-515.0046
-849.6074,429.68423,-330.41245
-1111.5743,185.02661,-243.57889
-1421.4719,297.3907,-266.7567
-2409.9668,-1794.8583,370.05576
-3532.2317,-4300.6577,1488.8909
-2406.3484,-4516.1616,1464.3225
-382.8812,-2332.9644,1047.61
341.31436,-1195.0162,624.931
933.86163,-686.0933,330.20795
1048.8042,-424.29922,245.98059
1204.5085,-377.08905,275.595
1151.5645,-391.2969,395.41357
1321.2738,-531.9154,447.42017
1166.6836,-1222.354,258.58212
655.7259,-2632.5928,-84.26955
-243.2976,-4846.1997,-80.85303
-2103.3948,-6184.841,28.495298
-2013.0288,-2767.4788,17.183279
-1301.2194,-777.2255,-74.98535
-1289.568,-196.22246,-46.06508
-1301.1558,311.19064,170.12804
-838.9444,1106.0358,-97.81953
-610.2231,963.6285,-350.98795
-837.7299,740.6969,-240.45349
-1005.68164,132.58458,-348.34543
-1370.3438,385.2618,-492.75998
-1785.4296,-361.58554,-246.88405
-3299.193,-2830.4294,439.28018
-3796.2424,-5399.005,949.93945
-1238.0944,-3969.133,860.35345
276.99738,-1575.3093,678.9004
855.58044,-1001.5359,508.41748
1135.9952,-443.7287,526.95026
934.68695,-268.04697,587.0672
1027.6334,-98.74208,609.42236
1164.3314,-329.426,590.7948
1263.214,-1061.39,699.2899
656.5125,-1936.4446,285.22192
332.21365,-3444.0105,-151.12718
-1294.794,-6344.763,-78.85171
-2340.058,-4576.546,-212.07597
-1656.8412,-1498.9893,-168.1691
-1079.7003,-254.50204,-175.1597
-942.88837,270.15308,-195.69318
-954.835,875.6414,-79.10921
-989.0181,995.3532,-217.15155
-937.7883,871.1496,-416.4096
-1160.109,292.7367,-428.56635
-1412.7393,263.22934,-374.69165
-1765.8422,41.806843,-480.1893
-3315.7263,-2306.6113,269.97885
-4149.752,-4811.2676,995.4047
-1926.65,-4275.8857,857.1507
-17.318094,-2095.5686,668.1805
633.47095,-1348.0752,530.4352
1102.6039,-612.41205,540.7408
1033.0289,-432.27173,556.276
1023.36584,-183.94426,488.56754
910.2952,-499.356,517.72943
852.60614,-627.4968,585.6113
561.0903,-1609.8105,337.7575
257.85526,-2231.783,-164.45897
-172.47163,-5055.463,-467.30066
-1962.7039,-6351.656,-593.76483
-1914.6772,-2477.888,-399.31595
-1238.719,-747.2713,-173.98897
-1344.8486,70.235344,-121.528786
-1467.4814,716.50244,-3.9902613
-1029.6472,1325.9397,-138.1859
-863.1919,905.9325,-302.45258
-870.0308,627.0343,-263.75607
-1148.6172,87.41543,-260.21063
-1550.5361,233.82306,-332.22812
-2286.992,-1560.821,55.040344
-3655.9658,-3917.1309,893.38745
-2731.1958,-4461.9917,1111.528
-566.975,-2722.2644,810.6088
282.70554,-1480.4827,624.15405
912.2189,-874.1889,483.3841
938.5023,-518.5412,482.48148
975.075,-465.98148,545.0562
1205.2806,-792.8497,566.0536
1394.5929,-910.36566,657.66736
763.3945,-1435.6779,481.75443
362.41943,-2516.027,-211.07787
-580.5273,-4792.3555,-328.37042
-1952.7306,-5820.8994,-610.4729
-1958.7329,-2704.3464,-557.7702
-1113.5875,-618.73206,-256.39767
-890.9761,-31.029545,-192.27846
-1228.3264,337.8784,74.15619
-1093.8473,918.91705,12.013532
-995.9344,912.8387,-432.41525
-1034.4094,671.5905,-327.50345
-1236.021,7.9861603,-249.36201
-1326.2034,248.57141,-418.27933
-1765.6504,-194.3761,-481.3879
-3587.2617,-2188.88,261.40875
-4707.662,-4909.3174,635.29877
-2116.3994,-4660.2417,711.04974
-72.74517,-2059.075,704.7798
585.74146,-1548.4358,600.067
1097.7533,-843.03973,707.8976
870.45325,-567.2697,619.2635
944.26587,-274.4558,651.5749
941.16644,-620.5796,714.85333
1205.524,-837.264,795.532
501.5212,-1820.4299,490.97226
265.87173,-2598.7756,-221.42767
-1280.4485,-6708.303,-476.04498
-2566.1604,-5885.6484,-702.5252
-1715.6677,-1692.861,-489.75577
-1270.1702,-255.102,-353.7301
-1333.0736,327.69156,-87.0635
-1311.8029,1145.4012,151.17685
-938.66345,1321.388,-251.35846
-836.4139,831.50653,-410.80283
-924.16003,400.75134,-304.76794
-1254.1545,49.973625,-316.73495
-1721.1522,220.21805,-542.11127
-3248.6558,-1389.653,-280.13156
-5011.0107,-4550.6167,580.0984
-3180.6165,-5025.654,584.10394
-486.39,-2830.9526,687.29846
385.67963,-1857.2822,644.9119
1122.0011,-1091.4727,677.97906
1070.1051,-777.68805,666.9068
1090.0563,-512.3729,637.3479
1067.8163,-634.7307,677.6686
901.2596,-631.9837,664.7582
717.9195,-1355.482,294.04843
356.8281,-1773.9779,-70.716034
-152.92899,-3902.2363,-505.19894
-1361.4976,-6469.0557,-526.8191
-2091.808,-4176.9883,-378.66214
-1388.8239,-1273.7247,-176.75131
-883.4621,-300.7343,-216.09961
-1231.564,-129.96872,-81.22082
-1237.9492,560.8148,-19.078938
-988.5806,882.2429,-337.71985
-900.91925,842.1711,-424.26697
-998.84204,314.0353,-432.4147
-1190.8955,33.125584,-457.259
-1360.5801,250.30739,-424.48016
-2413.3696,-1360.9155,180.64822
-4154.426,-4804.214,1147.991
-2622.8782,-5307.8784,1353.5144
-154.95226,-2536.734,895.60944
763.8379,-1051.9629,611.19366
1207.5209,-603.61334,420.1016
974.66974,-314.3253,329.0096
939.25244,-135.52686,210.83792
894.26587,-184.45708,230.53125
1120.0428,-514.6535,340.62976
936.261,-1030.3636,390.27017
498.7731,-2232.5984,-80.84061
-117.62652,-3903.9893,-298.8586
-1128.4863,-5214.7964,-331.2469
-1624.0065,-3587.8782,-353.3357
-957.1581,-1330.4404,-163.24258
-784.74384,-195.57065,-167.43568
-1112.3103,196.6329,-113.92438
-1519.8218,753.5529,-43.351604
-1236.8068,1320.9131,-433.61673
-1148.5155,1087.5657,-573.4628
-1568.0471,355.44547,-518.0546
-1919.0095,97.77191,-242.46829
-2762.6567,-1790.0474,-178.21815
-3774.9353,-4544.028,708.85596
-2143.8455,-4867.1636,968.677
-305.53806,-3073.6865,744.7141
380.33224,-1651.5409,855.3209
628.29584,-985.2243,606.80756
548.1263,-538.0258,513.16455
675.7899,-357.5812,379.5988
1093.572,-189.91356,442.98538
1209.761,-59.832523,524.8835
973.0787,-539.1864,643.8485
505.43344,-2018.9082,132.80646
501.85065,-3149.3423,12.833397
-436.3044,-6350.026,-186.80165
-1984.4198,-4697.9243,-475.6488
-1524.3486,-1774.1063,-246.69618
-1226.7592,-367.38858,-354.24493
-1255.3464,352.61194,-148.22513
-1254.2297,1018.07947,33.976376
-603.65564,1270.4392,-287.21457
-705.8169,963.8283,-411.82318
-940.62006,332.68918,-340.1274
-1333.983,170.77759,-224.40253
-1649.1842,-111.04449,-406.76556
-3068.6167,-2329.6838,353.58807
-3985.782,-4649.9263,1083.5463
-2051.3105,-4569.645,1049.0225
-203.33662,-1807.7943,825.6109
608.69434,-916.94867,536.434
1005.4882,-527.7869,521.7569
970.093,-423.69495,530.5203
1101.0189,-295.79807,489.54492
1176.0763,-530.59503,491.87903
1200.362,-631.15125,651.0355
834.7553,-1603.8081,305.31046
435.57773,-2572.8389,-126.146225
-697.2556,-5770.417,-238.10219
-2524.0676,-6122.4136,-362.45627
-2073.1042,-2269.675,-291.2392
-1407.3286,-523.6958,-142.82967
-1218.3136,160.25182,-126.24007
-1263.8108,749.07166,125.087906
-985.7368,1417.3615,-111.18963
-906.29474,1069.671,-378.65463
-918.45245,530.2571,-255.21748
-1157.1562,160.35657,-349.3815
-1579.907,352.12473,-453.89276
-2664.8384,-1515.4458,49.11314
-4208.7764,-4231.434,895.06335
-2775.4966,-4848.9253,982.46735
-516.7124,-2690.5173,842.49817
313.96518,-1340.5947,659.6687
939.6118,-836.75214,575.3818
1028.9518,-508.20612,513.5699
1136.8362,-435.4902,513.1733
1151.9089,-574.73224,676.6256
1075.7748,-743.35486,746.12213
723.13763,-1384.08,478.15982
277.42462,-2099.6772,-7.87881
-254.8851,-4321.839,-333.2356
-1982.9825,-6228.119,-585.57043
-2088.044,-3378.6362,-457.02872
-1295.2599,-1052.8677,-283.99646
-1205.412,-152.1814,-232.10617
-1567.4525,258.81516,139.72739
-1408.359,1238.7959,-44.544292
-909.8453,1185.6812,-306.39758
-1045.6206,807.37836,-159.5117
-1144.6863,184.3527,-226.89139
-1513.3174,209.9279,-386.8043
-1960.2314,-779.53094,-147.22084
-3234.042,-3052.5862,574.7222
-3642.5476,-4633.245,968.9505
-1447.9749,-3530.064,594.35626
102.62255,-1689.9945,496.59726
840.2053,-1133.8853,394.55573
953.64923,-590.17535,621.2984
821.0829,-526.88214,704.13965
1030.3444,-225.19012,507.11758
1099.0253,-490.1113,546.3933
1291.3907,-717.1059,674.95593
935.7781,-1877.5519,387.14932
358.72333,-3135.2012,-268.77954
-1024.8984,-5347.9604,-744.23816
-2407.327,-5852.54,-644.8306
-2087.5415,-2807.3564,-522.72925
-1434.2437,-651.4746,-494.7447
-1144.146,26.68144,-334.90088
-1155.101,284.14944,-60.39524
-1171.8629,872.66254,-151.17607
-1037.5101,1112.9725,-532.3858
-1132.6256,780.868,-496.53452
-1548.7297,321.9703,-312.6355
-1722.7719,367.49377,-288.6969
-2663.9998,-1608.2865,-62.98826
-3872.8105,-4751.5537,1041.3578
-2518.9463,-5137.954,1130.0721
-294.98163,-2709.8909,1122.2062
606.672,-1450.2527,940.9025
1025.9193,-626.4884,618.9959
877.9852,-381.63065,320.7204
1013.8964,-93.441986,381.87332
965.87836,-274.49756,538.4969
1235.3925,-197.3328,528.2762
959.37445,-850.86066,572.11633
519.42535,-2544.039,252.35033
-345.13776,-4742.4976,-27.39891
-1578.8308,-6410.2485,190.48642
-1510.1962,-3564.649,273.33606
-1132.3055,-1382.4554,160.16269
-1053.6526,-114.742805,-168.33766
-1523.2667,-28.729124,-150.48506
-1554.0778,644.60016,-112.87052
-1096.3767,1300.3636,-470.18088
-1064.0566,840.06366,-367.30215
-1545.9414,-7.989885,-439.3471
-1776.872,221.24266,-451.87225
-2085.5254,-717.3862,-225.15851
-3255.7297,-3155.3208,891.2768
-3365.2715,-5395.5576,1610.7323
-1225.6674,-3861.273,1302.2516
143.22383,-1906.9116,985.3217
749.33386,-1279.3243,783.1668
927.45776,-720.24286,749.64935
764.3035,-456.92557,752.1367
897.7379,-104.40926,781.251
1252.4694,-16.002531,740.2891
1294.7467,26.774,797.4667
774.86597,-1275.7788,619.029
-212.89452,-4102.778,259.79077
-1571.9218,-6700.9478,385.53503
-2378.3938,-5378.238,101.473465
-1985.5421,-1756.4443,-198.37646
-1397.3026,-137.58687,-308.01294
-1337.2229,378.29184,-393.8853
-1146.6296,1144.1613,-317.63858
-1017.0385,1380.2643,-323.56143
-1175.3132,904.7069,-475.4459
-1297.9349,308.85788,-395.69678
-1567.1843,-6.63956,-427.25623
-2022.6482,226.58188,-366.46713
-3943.2642,-2360.1685,226.74704
-4520.0137,-4777.7207,691.2125
-2513.2024,-4626.933,514.38086
-288.93076,-2369.41,404.2331
673.3115,-1296.0944,415.95673
1213.2933,-884.4639,494.71225
1105.8477,-769.0469,504.9694
1175.4645,-569.99445,419.1911
1052.8656,-467.36047,484.88315
1141.3269,-665.8416,494.22696
605.7462,-1949.1493,410.02133
115.18376,-2963.7375,-444.40665
-1022.45746,-5667.0103,-850.7726
-2482.3801,-5403.2456,-852.576
-1813.123,-1988.13,-654.5861
-1231.4623,-351.192,-270.07794
-1006.62305,134.94234,-124.64506
-1117.402,740.2578,104.46444
-1061.0111,1171.322,10.793564
-1111.7104,865.9866,-41.26502
-890.5075,492.353,-186.71722
-1173.3335,290.9086,-491.87173
-1457.2725,136.31535,-605.7571
-2554.8796,-1626.4137,-386.2333
-4417.6924,-4216.551,270.4284
-3016.8433,-4807.877,566.99274
-534.9591,-2342.507,494.4047
427.40955,-1621.5536,430.40234
1132.5939,-1010.8519,418.24695
1164.5355,-1028.9497,509.86328
1101.574,-826.20447,666.71893
1185.9622,-1023.4016,700.414
1081.8623,-1112.237,544.2381
575.45013,-1630.5991,91.32755
8.719905,-2315.408,-554.337
-916.68097,-5727.029,-1192.9137
-2002.4354,-5785.618,-979.2299
-1721.1633,-2551.4548,-394.26587
-1055.928,-472.03592,-176.21881
-1001.7134,250.65494,-285.161
-1342.724,743.94135,-249.06615
-1233.0536,1337.1443,-225.62102
-1170.7075,863.2948,-390.4795
-1269.3584,351.86868,-272.42688
-1599.8777,-34.747284,-524.088
-2079.6729,77.11634,-515.8896
-2818.9854,-1495.0013,-437.45862
-4216.1396,-3499.5261,581.5371
-3600.0042,-5168.36,713.4273
-1192.428,-3709.7473,491.76553
-104.501595,-2069.7585,449.455
624.78564,-1519.1104,396.7017
963.81934,-1004.2949,406.5756
956.1606,-666.44635,430.27997
1173.3627,-540.9509,522.7477
1366.5527,-582.9801,682.19006
1282.4989,-980.8203,800.1398
746.4619,-2184.0586,424.38696
102.99303,-3497.3926,-241.6429
-1749.4021,-6963.26,-452.06647
-2758.6633,-5585.3623,-524.71765
-1973.4666,-1879.959,-418.38535
-1398.1667,-270.33493,-449.11322
-1507.034,171.41606,-350.37372
-1457.8322,619.3661,-21.364483
-950.0583,1206.5865,-425.65103
-973.4413,924.759,-495.26993
-1048.267,214.43073,-164.02542
-1269.1313,55.717205,-294.6813
-1567.9255,137.21301,-538.7936
-2879.7402,-1307.0929,262.69946
-4190.8364,-4745.1816,990.42316
-2855.7307,-5348.7397,1157.4031
-623.70746,-2735.4998,867.61786
288.19974,-1596.6216,588.6652
1205.4457,-918.5679,510.1369
1435.0706,-595.45703,546.7115
1346.5851,-254.73132,407.37173
1019.31226,-690.31573,448.1921
1032.2186,-1163.3624,796.4949
602.17395,-1228.2727,803.85815
241.97377,-2591.8945,578.5011
-1423.3398,-5532.363,533.7467
-2536.3132,-6154.755,178.55145
-2495.171,-3210.2031,-324.8407
-1634.942,-622.7334,-515.3962
-1223.4088,143.25813,-472.47446
-1390.4551,998.035,-103.52132
-1313.8539,1676.4056,-36.43106
-1392.1001,1428.4331,-490.38254
-1458.3624,586.49646,-450.26483
-1847.4446,-145.4393,-308.9226
-2154.4558,-8.799458,-535.22235
-3002.4019,-1441.9949,-399.8398
-4303.683,-3783.756,804.22034
-3238.4346,-5033.748,454.62967
-896.68884,-3758.7112,597.5007
74.97466,-1758.3705,648.56946
652.88684,-1023.4077,529.04095
848.8747,-616.6693,468.25443
834.94354,-531.5307,506.8033
1163.3749,-438.01654,535.78156
1168.6407,-715.5043,801.40704
738.8172,-926.6921,741.4019
750.65234,-1262.8994,148.05417
522.6599,-2021.7458,-127.21178
-164.46207,-5421.6426,-758.75586
-2179.4148,-6351.1064,-992.01404
-1776.6072,-2895.3782,-591.52563
-1135.1432,-872.28625,-355.79126
-1247.766,-100.24272,-79.87449
-1593.7279,574.7716,190.02496
-1352.2699,1154.3972,-73.339
-959.9956,830.2518,-191.90616
-1043.8118,516.5477,-41.245846
-1015.7534,214.2352,-113.64177
-1214.5654,280.4311,-351.7366
-2058.7664,-1032.9402,-65.2195
-3907.1785,-4346.3623,579.8984
-3102.1042,-5490.3647,845.6918
-466.63046,-3515.256,660.31946
530.3397,-1641.21,434.37918
1344.4443,-769.8055,354.1721
1335.4435,-492.87927,355.85904
1184.5587,-213.87093,264.89798
1187.2826,-428.51892,307.802
1278.2234,-576.81396,280.6339
1240.225,-1153.6887,161.71916
599.70667,-2201.9973,-276.19803
-278.62064,-3694.5793,-515.295
-2177.0364,-5335.2837,-450.49286
-2530.8254,-3872.4695,-273.2609
-1532.8774,-1464.7151,-198.01581
-949.2637,-299.32584,-157.21562
-914.49524,62.73756,-125.61722
-1233.9446,522.379,-8.220069
-1121.4846,1260.5573,-425.52667
-948.68604,1648.3225,-622.89886
-1057.8859,798.49023,-472.53207
-1288.7875,410.4132,-394.83893
-1916.5836,-335.47818,-191.91618
-3440.9792,-3183.9587,466.55096
-3418.3203,-4598.132,1011.1742
-1380.3275,-3215.6294,655.2927
-256.10236,-1770.7887,600.99976
321.134,-1200.9419,531.9795
594.5193,-691.0485,520.81
806.40326,-344.0458,567.7336
972.9386,-456.22748,670.9783
1071.3518,-394.29865,616.1351
868.1965,-694.721,685.6498
611.46216,-1170.6096,414.8445
117.66202,-2112.4207,8.971429
-250.19183,-3735.2808,-54.501823
-2217.4602,-5448.442,-260.49142
-2121.1653,-3389.4956,-141.63078
-1187.7908,-1028.9761,-189.4911
-996.4451,-336.40256,-219.67848
-1062.7706,109.59693,-196.51608
-1236.8987,541.3687,-314.64676
-1077.8842,1170.0287,-597.474
-1027.4623,1192.0466,-354.753
-1027.5242,520.0762,-124.976875
-1060.7233,424.80338,-265.1508
-1455.8325,-226.2377,-132.38779
-2793.7366,-2392.4575,727.586
-3453.6428,-3982.4573,1436.7614
-1824.956,-3078.0146,1028.6198
-494.723,-1512.7094,758.11993
131.2063,-1261.3987,463.3068
454.66196,-833.9492,465.21976
648.0516,-565.17883,508.37335
759.6403,-383.54578,575.10736
911.59406,-478.25214,470.20178
827.0439,-460.06927,579.96893
615.8512,-852.4313,563.69434
138.59897,-1610.36,153.5731
175.40158,-2667.0364,15.348629
-1291.1376,-4649.9434,-29.43368
-2269.8645,-4656.499,-376.64877
-1434.5223,-1886.9778,-188.67062
-954.7164,-885.0716,-189.04889
-903.4505,-256.49948,23.263737
-1164.4882,11.787559,210.75685
-1070.1165,626.3997,-100.059814
-975.39795,737.8438,-423.29617
-942.67645,924.1701,-75.86175
-848.07227,374.7403,-105.511154
-688.1198,508.01212,-248.87885
-845.4698,-324.7979,-246.21654
-2343.5542,-2414.9812,650.29407
-2790.942,-3919.035,920.09174
-1686.1134,-3404.494,971.53564
-583.33984,-1898.8583,887.0701
-67.71221,-1126.1714,677.4611
166.90329,-673.4495,530.2366
438.75317,-542.9462,331.23434
561.4385,-431.1768,348.709
685.62524,-377.21945,386.27625
708.9407,-475.42105,366.61444
421.76617,-833.5132,301.73938
350.02026,-1562.6564,226.08397
-1051.2534,-3023.0068,483.5089
-2497.7905,-3345.4097,482.57428
-2122.8965,-2345.5427,275.07108
-1357.5863,-1357.1478,136.94467
-867.775,-834.8949,253.95685
-659.7825,-720.8419,204.1677
-523.94086,-558.9943,-55.83744
-527.73456,-103.72065,-54.07463
-491.56766,-16.898727,89.467636
-478.42648,210.56436,31.380514
