# PAMAP2 dataset (wrist-mounted sensor)

acc_x[mg],acc_y[mg],acc_z[mg]
-620.6737,-443.65573,106.40918
-747.12036,-1014.3194,137.3716
-500.932,-943.2093,41.52493
-518.62604,-923.3616,5.9340763
-481.1824,-1045.5027,-151.32266
-819.0262,-1584.9015,-416.2553
-1379.8207,-2328.427,-666.0098
-1842.9541,-2858.0708,-901.2614
-2038.0029,-3027.3508,-994.6373
-1696.426,-2233.147,-612.6976
-1046.3232,-1271.1417,-333.7194
-817.2247,-564.4883,-312.18134
-582.969,-134.76904,-265.6144
-486.23187,161.27931,-87.915985
-654.4375,535.94116,139.69202
-654.4641,937.1599,18.884619
-499.30103,900.5395,-580.45636
-682.8103,562.46344,-520.43744
-760.458,635.50757,-147.51144
-1100.6039,560.8888,-257.39185
-1765.1189,74.268776,-691.1823
-4463.61,-3182.5896,-337.04428
-4092.5684,-4383.452,453.37033
-1499.1935,-3076.4624,143.34476
-324.9567,-2148.4277,146.62898
99.163925,-1512.2336,231.92389
424.41913,-1124.9502,216.88937
518.65796,-709.5635,403.29764
511.22415,-364.78778,537.1639
481.8135,-341.95883,496.68356
417.56348,-292.73196,483.459
377.37582,-408.1643,339.88498
174.06326,-904.57294,126.83127
13.543515,-1723.4508,-270.50372
-285.36456,-3863.2283,-357.18784
-1163.0219,-4478.174,-384.23608
-1057.2964,-3110.7126,-439.22067
-950.6926,-1721.2183,-212.99834
-872.0437,-473.68613,-127.3108
-824.76276,-71.58721,-16.44479
-1046.157,430.12766,-185.81532
-915.0555,926.51294,-399.24985
-866.7077,776.7497,-435.95996
-861.6565,663.0773,-233.32942
-1035.9988,456.45032,-240.62747
-1232.4785,318.64386,-251.567
-1922.0669,-155.45262,-582.6573
-4303.909,-2920.532,-201.60123
-3937.1536,-4327.274,194.82684
-1553.0491,-3033.6099,112.09781
-244.96849,-1724.6198,225.38504
442.70596,-1267.8778,189.74821
671.11835,-855.97473,410.84534
572.4578,-628.3775,508.81656
505.22586,-319.481,508.23175
502.39502,-530.55786,387.24884
339.62195,-768.22363,390.5813
354.68964,-578.31903,273.27628
-67.807396,-1024.0956,81.25279
-66.3743,-2849.5815,-413.20792
-1455.0922,-4918.8877,-268.72986
-2063.557,-3733.6565,-273.15137
-1248.4038,-1944.1941,-66.64373
-1180.9034,-777.4489,32.716396
-792.9901,-0.40522903,-195.98212
-810.1552,508.22882,-310.60773
-774.4638,731.8543,-255.3439
-738.14966,510.55157,-253.18007
-525.2482,549.3243,-234.69342
-714.3039,530.9514,-318.51303
-1023.47687,477.30417,-342.3785
-1085.9802,263.9621,-455.84616
-3504.0784,-2031.1073,-157.806
-4379.5024,-4533.761,578.9021
-1824.2942,-3561.49,416.03787
-494.9961,-2112.9673,354.20465
380.88138,-1249.9219,199.02524
843.1511,-867.4983,120.67075
847.09875,-547.4311,415.17606
430.1154,-555.26105,557.80664
568.948,-439.0666,377.00305
374.09113,-635.6814,325.247
441.02432,-694.8841,313.5994
-192.62442,-1103.5625,7.7121873
-63.35873,-2508.2686,-508.8606
-803.6759,-4821.772,-505.1609
-1694.0417,-3446.2651,-290.10086
-770.39954,-1373.5636,-260.51004
-649.44135,-553.86176,220.22464
-599.0098,-60.0926,241.98909
-335.91824,280.58167,-129.36162
-578.55304,551.0312,-343.73468
-664.6766,626.89844,-379.12186
-630.55426,223.83527,-283.453
-568.43005,193.58755,-239.10254
-917.63855,167.92302,-363.00662
-968.0755,887.7324,-437.45987
-3506.2183,-1858.1578,-262.703
-4400.614,-5475.49,207.59035
-1545.5618,-3502.0078,394.1531
-134.98586,-1963.2767,109.16697
711.53424,-1074.9725,39.019867
896.3074,-726.63446,178.07698
860.55444,-468.33252,474.5622
568.64026,-307.08185,441.77713
744.31915,-454.79633,290.314
636.2523,-669.9615,369.06384
708.59595,-652.1857,282.42725
399.54553,-1292.6284,-104.99218
347.61044,-2549.8572,-684.5115
-534.1938,-4529.6523,-524.44324
-1540.7839,-4466.2583,-583.8658
-1040.531,-2059.684,-128.4409
-776.0004,-361.56134,45.031788
-588.2894,43.156265,60.52599
-610.1504,189.68564,0.9381492
-596.97766,767.1348,-195.9809
-823.6473,538.485,-308.25623
-706.39667,413.71176,-169.53537
-917.72217,395.15286,-269.4983
-1172.7826,315.88663,-389.06906
-1467.1104,328.44687,-532.9401
-3903.7683,-2707.1433,139.75766
-4141.166,-4827.9854,525.64575
-1690.6731,-3523.125,207.05298
-229.9855,-2118.7808,159.11487
436.3414,-1176.3209,141.17987
806.8414,-650.02386,216.26071
858.421,-379.0026,318.80157
718.7958,-299.0622,327.95236
734.3471,-551.5071,316.29947
804.42926,-748.6358,384.6078
898.34564,-656.5752,294.53357
455.35413,-1183.4841,-63.566845
379.4588,-3318.9783,-474.82584
-1058.8416,-5749.572,-660.29785
-1794.0426,-3915.3704,-450.42575
-1067.9277,-1487.8588,-101.95603
-1014.0971,-507.12747,-53.487156
-803.5879,58.220173,118.9407
-726.2738,596.3042,-177.85336
-856.30206,898.8982,-324.1963
-856.14557,696.0301,-299.05435
-736.25104,511.61517,-164.16765
-936.9656,293.39438,-285.8368
-1169.7268,326.53497,-353.4135
-1788.5464,-2.8779647,-410.66446
-3938.9697,-3336.7139,-28.248592
-3559.8896,-4723.2466,216.18047
-1066.1855,-3411.69,43.09429
-191.71974,-2048.0576,127.69699
571.3985,-1004.3864,216.94078
920.5602,-518.49054,298.23602
961.5055,-399.02914,398.5058
752.62646,-307.9573,419.31046
767.3313,-398.00098,450.57825
582.64404,-683.4236,407.9411
484.80658,-894.82825,221.7635
87.423874,-1407.2458,-261.0734
246.31029,-3750.756,-629.15955
-1433.2894,-5304.331,-540.3234
-1557.6912,-3348.4346,-409.75873
-948.9704,-1407.4138,-240.53525
-1027.8022,-233.41183,104.769905
-977.4203,75.324005,274.51376
-826.88324,611.02075,-75.05561
-763.30585,1081.552,-454.61694
-841.03595,678.60724,-371.09857
-917.3906,388.5647,-48.998978
-1003.82697,366.65417,-53.66989
-1233.7489,409.43793,-431.9483
-2813.075,-1817.9147,-29.80945
-4077.1453,-4392.8916,743.7727
-2094.0308,-4278.49,381.55106
-383.98148,-2454.796,430.0429
430.42184,-1323.7443,362.27725
975.40765,-665.20715,321.09686
1023.7537,-380.57562,307.58838
768.9964,-415.34705,221.33218
741.96277,-668.2604,345.1548
680.4779,-708.21204,361.75134
653.00934,-626.36725,277.18378
175.96344,-1201.9906,-25.707281
227.608,-2991.7214,-348.04553
-1413.2655,-5109.4136,-350.39352
-2089.6653,-3923.5664,-315.6942
-1173.1971,-1616.9586,-75.30913
-1133.8652,-396.19235,60.90329
-932.8542,249.7365,28.112679
-899.69763,774.0609,-92.97992
-564.13806,989.3388,-234.60983
-689.5621,634.993,-297.50684
-629.01196,596.6641,-303.64026
-789.26086,420.70963,-369.01904
-918.284,429.8638,-519.1814
-2165.394,-98.008354,-397.51544
-5054.057,-3279.5923,-713.02325
-3617.272,-4656.917,-679.45557
-1056.6388,-2530.996,-328.83997
73.227554,-1489.9435,-531.0792
771.2125,-1040.8993,130.21819
1007.8328,-904.6381,166.00731
938.1656,-596.8002,119.91051
866.26385,-799.1021,446.2823
915.03796,-659.19214,458.66858
732.6478,-859.4099,310.101
389.30505,-1033.3329,-33.106304
65.42219,-2369.3132,-813.51044
-1133.3899,-4558.027,-1312.5897
-2000.9222,-4505.536,-1189.3091
-1353.6533,-2650.6992,-543.3175
-955.06195,-1112.3915,-189.6321
-947.063,-120.23809,-2.8599794
-1148.9263,151.27356,74.65069
-1000.8491,802.8887,-108.64387
-787.5959,1053.1371,-521.5449
-986.62665,951.8258,-422.792
-1103.8417,461.88632,-220.86194
-1282.0348,352.26035,-260.7756
-1293.7329,213.82373,-566.3371
-3100.5469,-533.56854,-449.29724
-5408.9043,-4372.6104,-897.86786
-3106.8005,-5109.18,-842.99695
-766.39966,-2548.356,-473.39294
137.00458,-1475.4348,-254.384
885.89404,-913.00836,135.87074
994.32635,-876.7395,204.16293
877.5205,-888.41437,336.3332
1073.104,-1111.7915,481.9521
881.0609,-964.3982,646.8354
543.18353,-1067.2969,325.56046
34.128468,-1700.2759,-462.20212
-731.44604,-4242.889,-1005.12427
-1972.4996,-5047.1675,-965.1152
-1714.7058,-3097.8062,-691.5216
-1026.663,-1208.7957,-283.42694
-1061.3463,-236.7761,-219.18619
-1116.0588,234.78989,-48.60976
-1037.0203,805.9849,-207.95306
-776.3024,1228.3999,-412.89465
-952.07275,1016.923,-319.75003
-1129.0754,655.72015,-248.06415
-1518.7227,285.1621,-423.88837
-1667.3898,333.34354,-644.9831
-3802.2039,-1499.7029,-624.8865
-5247.7637,-4751.5635,-142.34781
-2642.1309,-4443.869,48.751274
-745.0255,-2675.3174,234.86177
203.64404,-1821.4769,652.1572
947.6297,-1111.3944,883.41187
1215.8969,-528.9531,702.68726
927.375,-422.07123,667.9204
572.3453,-735.15845,479.78027
272.25024,-976.42413,301.28806
71.80922,-1287.5294,20.872871
-310.19815,-1776.473,-350.77524
-804.01324,-3880.9048,-1043.041
-1685.3956,-4731.2363,-766.35706
-1503.5002,-3098.574,-455.1203
-830.9687,-1268.5052,-470.2176
-744.9838,-211.66205,-179.76546
-887.4945,157.60199,91.10003
-936.72394,689.7199,-110.42169
-1055.1288,1048.8098,-335.76575
-1055.4626,641.4013,-314.67548
-1114.0509,767.39484,-189.67984
-1234.2861,506.33267,-377.99637
-1581.0035,246.95262,-528.6402
-2494.2886,-723.76886,-793.02185
-5147.9604,-3670.2468,-187.06987
-4334.541,-4824.6685,-259.37003
-1471.4242,-3182.5735,-0.6646286
21.583145,-1812.307,311.21964
756.8358,-1308.3691,648.8584
1085.1782,-848.6616,755.93756
861.1348,-489.43967,740.7413
720.0399,-691.16455,712.9691
498.6364,-690.8364,508.24368
575.6116,-972.39404,406.83286
90.19932,-1160.476,114.55971
-0.5551361,-2414.7407,-474.6648
-1312.2817,-4947.145,-808.6215
-2486.0312,-4711.7666,-598.18134
-1566.1138,-2324.8252,-335.18723
-1090.0227,-579.30206,-204.0022
-866.6784,204.82881,85.82932
-827.2438,852.75665,-323.86285
-886.14343,1640.3475,-793.29724
-1245.8369,1089.5167,-505.54556
-1267.241,593.7851,-251.02058
-1487.607,248.55182,-485.4558
-1675.1927,117.01681,-601.77765
-2198.5198,-9.835408,-694.38226
-4767.2446,-1682.0621,-404.6033
-5506.488,-3969.1472,-244.68694
-2675.941,-3580.2888,145.89545
-719.5459,-2120.7278,637.1416
276.9356,-1573.9181,710.2328
711.7173,-906.7908,790.3377
764.8871,-385.58972,747.02795
674.66956,-318.20447,770.82806
582.0548,-524.18665,659.5341
548.08496,-655.1295,653.828
525.9359,-951.7687,351.70248
179.66522,-1155.4369,11.88448
-152.98402,-3003.7434,-821.7782
-1644.338,-5986.7515,-1341.0898
-2342.1416,-4801.9355,-1167.1185
-1629.8726,-2541.5696,-641.0069
-1311.2106,-591.4161,-297.0271
-1143.054,397.18967,-67.27913
-1372.7188,1199.1168,-231.22003
-1150.246,1733.7258,-659.12787
-1278.3728,1107.2042,-389.41074
-1196.1024,845.13464,-335.19476
-1453.2943,340.40625,-424.2962
-1559.1316,279.63434,-510.18375
-2715.9294,-756.42114,-305.69882
-5072.7974,-4044.2397,-139.45503
-3865.309,-4353.3037,10.139494
-1197.6604,-2829.8403,142.3784
-259.51242,-1793.1819,297.91595
560.29395,-958.43024,310.12125
674.813,-497.2958,349.1513
645.4882,-374.25223,448.9749
556.8672,-476.82468,563.81885
808.91473,-364.9478,509.69473
670.69916,-426.40503,525.3745
590.6703,-863.97125,288.00488
194.09763,-1472.1318,-375.00986
125.31023,-3665.7898,-693.1317
-1297.1102,-5933.081,-606.31464
-1644.9005,-3556.618,-656.1184
-1000.46326,-1362.5715,-270.1453
-1065.9252,-199.77364,80.98078
-954.8997,89.07139,92.3496
-836.6475,616.9144,-305.74402
-749.0729,574.8717,-397.69604
-948.64276,445.30563,-222.71623
-979.1135,420.95352,-58.14771
-988.6325,264.6673,-290.4717
-976.2035,268.41003,-278.58612
-1212.1333,563.0347,-377.98636
-3638.1682,-2274.1868,-130.85591
-4800.6562,-5720.272,608.73254
-1662.3358,-3991.1309,633.23175
-64.98961,-2081.5,507.72003
668.21155,-1223.884,452.834
967.69073,-567.8463,642.549
843.2124,-587.3165,679.60565
762.1805,-330.2638,188.37283
849.7496,-365.73895,179.44199
702.9766,-490.8582,479.9486
650.3969,-998.7643,409.35742
284.93832,-1818.7603,-102.16503
182.96935,-4836.5386,-179.43968
-1565.9325,-5437.1675,-8.332067
-1625.9905,-2766.1394,-216.59729
-1286.5134,-1099.1038,-257.44388
-1131.4385,-50.586807,-133.0806
-950.0546,405.73688,-220.41978
-745.8749,921.7791,-300.2424
-687.8669,718.4251,-404.51114
-744.65625,623.5088,-287.9466
-986.6316,402.95584,-191.58197
-1441.6302,378.74692,-417.3727
-1607.163,585.13477,-558.2808
-4228.1714,-1610.9482,-109.83906
-5284.4653,-5196.3784,418.0067
-2313.7786,-3827.2363,389.3295
-366.38867,-2012.2883,168.67172
524.159,-1240.1165,133.76527
865.60724,-708.4445,517.40753
882.33984,-372.59644,598.14655
900.01764,-194.41078,416.09158
896.9294,-516.5141,406.95245
729.83374,-839.95776,554.0418
681.38995,-985.97833,344.62512
240.96078,-1605.6775,-266.7535
170.00525,-3315.9597,-870.70465
-1356.0701,-5812.1504,-1274.7184
-2060.5427,-4312.779,-1006.2084
-1424.9103,-1502.9707,-420.74542
-1239.846,-266.67224,-167.59676
-1068.709,200.24722,43.71101
-975.1545,1028.4409,-262.02087
-845.61304,1223.7285,-428.7702
-989.56476,718.80115,-254.79039
-926.4378,492.10617,-68.40847
-1158.8651,227.32051,-269.9353
-1355.3777,328.5363,-463.30704
-2804.7847,-630.132,-271.8746
-4902.5596,-4333.459,-5.94593
-3076.079,-4985.959,46.020176
-621.5224,-2999.115,325.959
311.55594,-1592.1061,205.44403
922.0725,-740.8574,318.15244
884.29553,-460.9198,451.40115
896.96844,-328.5332,352.89536
1010.3786,-442.46567,302.8574
982.4585,-774.4655,454.20767
666.7537,-968.9314,349.11682
158.62732,-1384.0293,166.48695
-218.60966,-2241.065,-377.29306
-1039.5356,-5002.7476,-889.5101
-2133.0266,-5312.2915,-831.13354
-1584.4156,-2993.4204,-718.4536
-1367.0183,-1108.2094,-380.41983
-1237.834,159.64561,-239.13034
-1465.1516,994.6267,-82.301735
-878.72314,1759.1582,-651.8978
-937.3527,1473.2319,-786.4293
-1147.1162,751.50964,-489.2919
-1242.8566,534.2423,-502.94626
-1812.8732,125.06483,-880.80505
-2610.77,-325.0402,-915.68414
-5518.3115,-3212.3738,-659.3756
-4811.58,-5334.66,-560.42914
-1513.3218,-3392.2256,181.94585
-275.17746,-1866.9097,126.658104
670.15857,-1208.9064,412.42105
711.057,-844.8161,495.69888
649.1931,-494.11038,458.4085
584.4551,-640.51654,652.41675
793.34467,-760.5537,630.7092
544.9416,-837.51917,438.67676
457.5006,-1068.6317,163.34421
157.76254,-1441.7227,-319.1153
-40.243557,-3575.8228,-1017.2824
-1222.1334,-5674.5312,-1524.9929
-1652.8958,-4195.351,-1214.959
-1581.4642,-1940.5638,-655.59814
-1541.9817,-505.41098,-81.92939
-1340.8817,339.29382,-0.40212288
-1325.8568,1161.9415,-218.69785
-1112.7063,1058.146,-375.6387
-988.8848,965.53296,-163.85442
-1076.5905,574.2985,-97.30099
-1210.6738,78.40029,-103.80838
-1429.1643,259.4217,-457.0224
-2639.8245,-464.66748,-107.74094
-4661.5703,-3208.3884,-84.981094
-4282.6826,-4578.539,138.11046
-1494.4244,-3135.1443,288.47635
-96.15237,-1682.2401,130.004
554.35077,-939.5049,146.75821
1017.89404,-555.0142,320.93625
1061.2958,-644.2618,385.03226
1069.1987,-669.3038,485.71597
899.77704,-701.6482,627.3185
960.1259,-770.1879,525.6436
555.06696,-995.0747,129.41357
518.74695,-2518.0793,-698.2948
-1817.4056,-6263.178,-763.9595
-2918.4585,-5069.3716,-489.06586
-1921.914,-2157.9165,-495.79257
-1628.1058,-399.49246,-406.74213
-1259.1355,174.42102,-168.54474
-1105.31,819.76685,-39.09501
-500.95007,1283.7224,-456.15436
-636.1647,906.4586,-588.16516
-765.1719,552.18835,-258.08066
-867.2289,404.13367,-110.97119
-1125.4617,103.19863,-272.31802
-1594.8082,390.99863,-290.63876
-3892.4375,-2086.9778,29.659285
-4809.251,-4427.577,-89.47213
-2118.2195,-3259.783,-12.042049
-459.10922,-2222.3508,-54.540314
251.73277,-945.47314,-215.92113
809.19104,-689.57544,14.598809
1020.51886,-478.26227,158.75223
980.50464,-593.59424,273.70807
949.74396,-526.44073,380.04596
949.0218,-631.163,327.75754
955.4897,-979.09216,69.86335
496.23367,-2052.0618,-835.11365
-323.4018,-4369.7803,-1598.7109
-1926.1703,-5217.8667,-1609.0514
-1892.7074,-2874.9016,-979.3746
-1551.1727,-835.81006,-287.15082
-1372.8671,143.7758,-22.102272
-1074.4674,551.01514,-247.08202
-769.8809,1179.5557,-375.42126
-834.44916,1108.9401,-288.599
-993.8609,570.27246,-182.24991
-1069.5638,152.32677,-353.62866
-1211.2229,352.9207,-519.95514
-2127.045,189.71143,-280.38336
-4390.05,-3117.6025,-277.63675
-4072.6873,-5001.6914,50.4848
-1187.0032,-3448.948,202.84488
62.793682,-1790.3657,435.28513
985.5291,-1010.4504,495.3453
959.41034,-475.5273,734.2246
875.5934,-147.1071,525.62177
687.1462,-177.97113,383.57306
656.19666,-613.9871,435.44608
489.7963,-708.86597,463.67206
487.89615,-856.48254,273.81842
194.24841,-1355.7883,-195.67015
96.89042,-3489.7969,-453.40677
-1746.5842,-5780.8213,-639.1532
-2039.2357,-3832.6614,-630.4606
-1373.8331,-1610.1573,-248.1181
-1105.0541,-171.42307,-107.31476
-886.9491,270.5983,23.104239
-924.64954,843.2527,-134.41591
-541.81055,1066.1707,-468.50525
-749.1615,726.5315,-433.02954
-613.9103,513.49786,-144.60669
-883.48114,241.3234,-153.72838
-1163.7943,187.05453,-312.74283
-2576.7402,-977.27167,105.92229
-3998.2473,-4608.921,823.767
-2030.7068,-4296.789,648.30225
-499.83774,-2755.3196,605.938
430.49142,-1419.5463,382.8279
839.9143,-702.8805,376.29675
917.8084,-241.67169,313.84308
767.8385,-147.73692,346.2449
982.33246,-212.09235,347.91016
829.087,-504.97522,380.45
882.699,-492.35306,341.2591
491.37558,-1188.0719,194.69362
596.3566,-2770.3398,-130.61696
-488.54053,-5766.4683,-164.91109
-1969.3768,-4700.1465,-109.6125
-1110.8264,-1832.7703,-106.92951
-1011.6766,-455.9501,-56.228462
-1056.0537,144.3976,376.01273
-903.9804,742.8281,-116.58251
-636.49536,1107.1061,-552.2085
-827.00836,631.71356,-512.03296
-773.67224,464.7027,-83.74102
-881.84076,188.60368,-138.54465
-1084.5367,98.14374,-404.17853
-1426.0529,167.18153,-427.49075
-3877.872,-3127.7356,382.48843
-4192.6284,-5526.393,197.2427
-1292.1874,-3777.2412,388.71393
-110.418564,-1793.2738,269.3388
934.5434,-752.4078,193.11647
1112.5997,-367.96527,445.9899
1024.8866,-276.61194,515.17
840.69,-293.99335,454.94348
804.42535,-588.46747,271.75815
774.4074,-511.80527,340.85132
921.61395,-763.5427,78.221855
712.035,-1739.2632,-316.11447
14.740691,-5075.6206,-523.85406
-1788.7054,-5840.205,-716.3733
-1482.8483,-2803.533,-488.1134
-1146.4281,-830.3967,-189.98505
-976.2945,-2.0534604,254.96805
-869.7229,452.35782,49.30778
-649.9819,934.5822,-386.08658
-891.3779,394.09714,-430.47363
-763.9428,524.52545,-209.98058
-871.4135,334.8834,-94.061554
-1051.1545,94.3909,-324.74487
-1199.8712,314.95004,-421.19666
-2699.4336,-899.9957,-53.00943
-4547.439,-4925.5293,419.25034
-2491.4155,-4668.099,620.61273
-376.33243,-2619.8604,459.2751
570.59174,-1410.2217,308.05615
932.2464,-624.8675,453.78384
860.43195,-348.2524,533.79803
806.65533,-349.4442,216.57172
829.58386,-332.32315,239.12213
656.9537,-487.57138,414.6964
769.0737,-776.8042,364.59995
383.51276,-1456.2169,62.75079
544.52,-3193.5264,-36.98666
-1145.7816,-5606.4775,91.555435
-2055.0024,-3853.3408,73.08214
-1261.6128,-1446.4229,-144.94669
-1118.9099,-232.28027,-52.57892
-892.4397,322.6753,-4.9421015
-886.02203,641.32275,-71.76344
-588.6035,711.6521,-305.50314
-733.5162,456.241,-332.67657
-811.0313,368.67294,-104.73366
-953.3188,220.88379,-191.25998
-1070.8367,340.44675,-306.79193
-2029.2272,-300.01648,-201.46567
-4090.4133,-3456.0898,298.61255
-3353.6465,-4876.108,502.38867
-807.8419,-3396.4941,380.9096
233.45557,-1838.1235,255.30408
818.08356,-896.97437,361.93756
903.0053,-458.8526,593.6641
1023.2896,-385.0491,404.2708
1077.7241,-245.12265,379.76483
815.49927,-447.83066,382.47925
688.8814,-532.1593,393.09268
591.57605,-1171.178,66.910515
527.85474,-1874.3268,-234.59647
-125.531166,-5173.9414,-616.0396
-2658.3723,-6030.6963,-877.5462
-1645.673,-2667.6333,-381.6637
-1201.7628,-854.16364,-109.68919
-1232.2024,16.31713,357.5976
-1115.5657,706.17163,-51.490562
-725.7518,1479.8486,-578.95825
-898.2235,787.5884,-502.9815
-714.43933,515.4006,-106.967476
-914.05835,82.906,-50.51659
-1164.4315,178.21965,-284.1302
-1830.6633,-93.89883,-324.88513
-3692.884,-2796.8782,141.6744
-4104.426,-4740.8223,214.96587
-1515.7573,-3915.225,-0.076441124
-84.47605,-2297.5344,175.77324
761.801,-1344.2122,122.338394
903.6587,-658.1085,389.83752
795.99164,-204.97253,438.2023
777.23395,-426.54993,303.93164
888.6097,-582.9864,308.38242
728.64307,-493.61096,334.31564
849.5093,-844.74365,308.82693
654.0843,-1232.3212,-155.4246
401.66806,-3700.272,-603.77185
-1492.789,-6003.2646,-880.18744
-2220.3188,-4137.584,-621.455
-1623.1073,-1634.7745,-343.19122
-1197.3032,-71.61493,-140.39897
-938.92096,126.48434,-4.416952
-817.872,823.12616,-278.55145
-747.7043,1074.6393,-470.37753
-813.4164,752.19037,-376.07184
-936.2998,430.903,-143.69379
-1060.1804,327.84085,-322.558
-1242.6893,425.00665,-406.8817
-2383.4849,-747.5853,-172.82765
-4484.2734,-3445.0017,237.93605
-3477.2075,-4844.3413,231.15746
-1037.7401,-2773.2217,392.29047
65.37027,-1802.142,398.47028
835.6242,-1084.2184,628.7071
1093.0009,-601.5288,571.4263
935.5584,-332.75037,610.22296
873.3979,-509.88785,544.79913
645.0606,-659.96893,479.20898
641.5039,-961.88745,242.46593
364.93277,-1382.6393,-60.71771
193.48827,-2700.033,-727.80273
-1130.5315,-5404.163,-1133.9128
-2129.3381,-4426.9854,-947.25543
-1461.5192,-1971.5405,-512.3066
-1059.4069,-500.6929,-135.39853
-1165.3652,-121.89691,298.14822
-1281.9504,784.72845,-59.18929
-820.20447,1618.4731,-512.60486
-1118.3855,1151.4613,-365.88712
-1254.144,400.3096,-76.51206
-1264.4288,115.56221,-357.52115
-1430.3102,104.95525,-455.87665
-2744.5955,-772.57117,-106.16257
-4632.048,-2846.0308,544.983
-3924.6252,-3893.7075,1048.87
-1346.743,-2639.9915,632.867
-83.50398,-1921.4231,505.53995
649.8225,-1294.6854,277.88654
846.1808,-759.46533,606.09717
829.86505,-571.3864,534.655
934.5514,-865.1576,603.7868
879.2302,-1027.7327,681.47205
786.7402,-880.6997,643.1029
395.96393,-1154.4432,220.48186
231.16423,-2378.935,-170.05867
-1381.5835,-5837.514,-647.705
-3249.635,-6312.643,-891.35876
-2612.435,-2492.7407,-520.00745
-1783.6726,-133.0036,-409.33014
-1331.2454,759.0179,-153.5488
-987.9685,1258.2914,-256.17383
-810.751,1464.2401,-294.83826
-955.111,880.0888,-195.755
-828.9278,677.287,-285.1
-1070.0491,196.03535,-457.45407
-1315.5004,288.71323,-424.0268
-2049.6104,-292.0794,-388.45734
-4559.7124,-2714.7659,-68.53866
-4793.1064,-4916.134,278.4508
-1641.8663,-3240.798,555.1641
-278.69763,-1494.8359,528.55194
691.9199,-1050.0807,470.89746
746.87164,-589.9305,509.68213
797.3746,-423.5525,603.3283
740.58734,-336.93668,399.02933
868.644,-620.5939,485.96515
696.78076,-688.5218,541.3224
710.7564,-938.05414,235.4927
91.64164,-1508.0621,-155.80803
-301.22058,-3558.7603,-783.98376
-2213.0557,-6051.178,-1025.1134
-2569.4155,-3928.174,-634.2465
-1470.4109,-1495.402,-364.5262
-897.3799,-181.86096,-258.04666
-828.4242,307.77515,-338.4788
-906.50934,755.7641,-372.88556
-949.4647,1133.4204,-557.1095
-756.91943,888.0614,-511.54007
-746.51654,605.43536,-374.41833
-891.4295,427.17316,-260.4382
-1402.233,285.34344,-410.7051
-2472.848,-319.97287,-190.05667
-5323.937,-3666.407,751.9018
-4023.777,-5153.5527,946.6595
-952.45197,-2802.4126,672.0173
334.74936,-1545.571,460.5271
956.45886,-962.43646,377.94727
1015.0323,-505.67792,597.5987
896.50433,-375.98178,417.83365
944.7204,-628.49506,338.86285
749.42126,-467.70047,615.34357
828.88495,-715.4899,613.5069
375.5543,-1474.0853,373.55963
460.46118,-2510.9695,-134.65701
-1164.3063,-5934.856,-382.12354
-2517.0737,-5481.4,-718.5898
-1797.9465,-2179.2065,-487.90353
-1383.7354,-390.20853,-392.7008
-1230.0565,328.27878,33.40862
-1202.2401,778.2725,17.660645
-724.2037,1324.6323,-482.64264
-904.362,793.04205,-415.6572
-960.3798,639.3984,-162.43465
-1173.8763,126.58805,-71.54786
-1106.4884,233.18619,-413.80865
-1790.8732,-193.81659,-275.88474
-3895.0132,-2207.406,418.21512
-4474.4634,-4338.768,773.95514
-1702.8154,-3682.96,695.1976
51.730133,-1812.1973,747.3429
873.3793,-1340.5786,935.4534
1084.6208,-731.96387,1069.4861
992.2897,-405.3847,929.62506
960.1471,-301.41962,1025.3722
1186.4918,-930.59265,652.05774
995.73395,-1950.3053,234.47227
-130.83832,-2370.449,-212.85739
-774.7892,-3532.556,-910.3522
-2636.5417,-6020.4565,-953.39825
-2606.7234,-3864.124,-292.90247
-1563.3345,-1881.6295,-303.00366
-1131.5704,-396.39536,-254.39526
-1439.2925,204.57887,-359.9409
-1470.8716,681.0871,-292.2348
-1114.7415,1013.542,-511.68176
-913.2541,1032.4828,-488.3818
-1084.6896,592.13104,-231.72813
-1103.3298,315.65958,-163.11427
-1550.6984,80.94938,-454.068
-2872.9463,-1547.9231,377.01627
-4151.6626,-5156.8574,881.0606
-2236.951,-4903.9976,792.40485
-353.4866,-2733.5195,686.7082
529.61646,-1898.8358,373.6079
1073.7893,-1146.6919,409.40314
1083.9283,-481.92706,498.92908
959.0827,-206.63994,392.14218
990.6028,-501.59225,428.98868
848.46295,-466.0596,388.7927
808.20984,-843.2728,318.06866
587.60583,-1324.4628,-16.159996
614.0255,-2482.968,-189.02718
-1310.6626,-6110.0747,-468.37393
-2575.7822,-5429.269,-350.8664
-1901.3743,-2375.5784,-128.75664
-1648.377,-529.0805,-52.20351
-1443.9926,146.08102,295.007
-1289.5958,1024.1724,-184.08052
-776.49414,1451.7454,-573.8629
-959.3939,922.47687,-319.4176
-893.796,550.6921,-85.779755
-961.04663,93.886,-233.41077
-1152.1533,265.72513,-290.23746
-1586.2334,117.337,-293.1926
-3893.1218,-1721.7703,156.64674
-5072.0327,-5250.6523,861.44025
-1845.2137,-3709.146,741.92084
-337.65067,-2009.157,433.7068
398.84106,-1217.9287,388.35565
758.0355,-574.9605,395.71783
890.37714,-285.9109,354.37228
800.08246,-526.59094,491.85864
1217.9769,-818.2261,540.7648
927.7462,-825.2681,509.3063
746.0045,-1018.6773,269.70218
491.57205,-1188.8564,-280.39957
311.72342,-3255.5728,-386.96817
-2593.4902,-6063.545,-517.67
-2695.9849,-3719.771,-441.15253
-1520.9039,-1123.9547,-291.11716
-1110.0142,-179.12308,-164.40712
-859.43256,259.43918,91.89672
-899.4464,719.7811,-235.12724
-721.40656,1162.2087,-557.2249
-929.96484,872.65466,-520.8956
-1045.5607,606.2659,-188.08606
-1112.5691,323.28165,-194.4105
-1605.5454,252.38733,-278.39792
-3032.0002,-2294.7217,-14.133499
-3446.339,-4460.0654,385.95065
-1842.6758,-3902.1367,360.26605
-354.7939,-1879.6495,474.64917
371.01572,-1083.3491,326.43735
749.3458,-561.94257,465.44122
703.89343,-382.36432,311.5633
1180.6299,-19.792616,168.21895
1183.6168,-405.5343,327.2152
1074.4581,-641.10516,508.69168
484.40625,-1123.82,296.08762
635.36865,-2168.657,-196.75783
-603.1264,-5937.723,-402.34015
-2838.084,-6085.531,-645.5054
-2181.6511,-2644.4553,-460.06277
-1553.2496,-768.23114,-325.2157
-1297.7638,-17.39189,9.021566
-1621.463,586.2838,201.36534
-812.19214,1391.503,-211.79951
-595.29425,1016.9327,-511.47226
-817.30023,563.09216,-359.2816
-1092.6837,296.21487,-179.39471
-1140.0193,291.3086,-356.78168
-1198.3608,607.58826,-458.73605
-2738.167,-1170.8987,-109.26697
-4737.9966,-4285.39,683.1208
-3093.346,-4757.1094,416.19785
-607.3141,-2980.7844,378.5899
209.2161,-1369.4142,310.707
660.26715,-612.9196,320.06882
786.3706,-376.01913,532.768
949.7007,-237.1716,449.213
926.67395,-372.80856,472.22583
816.1988,-615.8591,513.4947
676.62103,-619.745,396.6444
505.65387,-1062.578,-79.09661
161.34926,-2618.307,-423.21042
-1170.3633,-6429.215,-465.167
-2128.7239,-5362.2188,-669.5965
-1707.9327,-2128.7773,-298.96
-1306.4868,-302.03113,-121.290375
-1300.1987,231.19682,261.4094
-1152.7264,934.5052,-26.266382
-781.418,1081.2323,-472.4198
-952.21625,677.12036,-386.41516
-916.04205,402.75955,-52.488018
-1035.7423,191.91435,-102.10075
-1314.2269,319.99008,-319.47614
-2253.225,-418.60388,-238.66252
-4303.613,-3758.9377,557.4852
-3499.4072,-5294.908,856.3868
-808.8363,-3298.5825,660.84796
248.37216,-1725.6881,454.34433
970.78436,-1033.4437,413.39154
1031.2787,-442.06464,505.87668
904.27216,-134.67174,422.36993
774.305,-349.0718,486.78662
972.548,-420.39178,450.20898
941.89886,-382.23282,476.96585
728.16644,-1013.34827,423.4391
535.5646,-1816.7834,-130.0297
-87.59254,-5028.994,-308.42166
-2254.3008,-6199.508,-452.82523
-1884.387,-3208.4294,-342.097
-1389.0475,-1100.1858,-222.95609
-1209.1245,-134.77342,53.317688
-1173.5507,321.65015,-45.184704
-1067.4171,1226.3058,-294.39438
-853.2321,961.52045,-227.60269
-645.4376,744.803,-290.72067
-914.1024,335.27975,-432.5502
-1338.1799,251.36003,-360.31277
-1664.1486,-45.933456,-569.80853
-3344.452,-2339.766,227.26274
-3772.3645,-4403.553,5.9716897
-2051.8464,-4059.6467,-144.21515
-386.15405,-2389.2769,30.998697
569.77924,-1451.3641,36.170322
802.6222,-1029.5304,199.50566
740.86053,-790.5959,384.92392
705.0293,-511.50955,468.52542
878.82605,-308.35068,394.71378
898.22595,-390.08203,395.52716
955.35645,-539.6648,310.1724
607.60175,-1183.3512,-82.162735
588.9652,-2566.3782,-646.42126
-1166.5979,-5310.1104,-1232.4752
-2498.7727,-4656.879,-1249.0392
-1426.1924,-1670.7548,-558.8334
-1158.1841,-475.0755,-152.27217
-818.76904,281.69528,-21.395952
-1147.0759,567.4006,-212.1896
-602.74554,1414.1033,-618.0072
-753.5496,947.20105,-390.43036
-768.9892,644.6661,-123.955154
-1097.1096,145.47734,-471.11337
-1557.0363,227.07434,-345.33942
-4124.204,-2184.1658,503.3398
-4285.614,-4690.013,475.87793
-1770.6266,-3027.6174,314.3014
-139.7311,-1879.8973,223.09203
752.2994,-1600.8539,300.88425
1310.8954,-1090.9476,567.4185
970.6428,-591.69836,550.2967
843.5625,-441.9598,563.4727
949.3555,-591.28015,576.45435
1090.0974,-655.8743,452.86053
678.37885,-1316.5293,226.16695
238.8223,-2280.2664,-308.9868
-656.3707,-5441.9155,-812.6062
-2769.5286,-6332.14,-770.8498
-2673.4016,-2944.9465,-522.2555
-1627.6434,-227.26694,-113.28675
-1167.8304,352.30954,229.03664
-919.2064,915.627,89.789696
-485.37427,1325.0486,-279.11862
-841.27155,772.1512,-215.72203
-845.0636,424.79416,-55.74713
-914.0961,114.436615,-128.35672
-1375.2789,179.24294,-518.6531
-2135.7183,-511.3557,-280.12994
-3299.059,-2125.5222,485.7911
-4360.3623,-4555.991,1725.3953
-2279.8418,-3938.7449,1470.5686
-38.355995,-1935.7627,781.2805
1126.3536,-1479.5815,437.88092
1555.5808,-652.5159,772.20264
1136.6895,-300.6756,933.53326
1167.7749,-373.4604,359.3719
772.91254,-764.606,449.2188
781.6515,-749.0541,588.2338
516.39044,-1646.0531,210.67569
417.80753,-2022.9985,-209.56738
-906.05225,-5370.6045,-323.1597
-2942.7463,-6441.174,-258.3494
-2338.4792,-2747.9546,-171.93492
-1442.2959,-552.8762,-115.35985
-1377.231,53.34474,85.21174
-1316.0111,652.6971,-58.127415
-838.6173,1561.6495,-402.36285
-950.05225,1083.2358,-377.296
-962.3973,538.3582,-126.16091
-1086.7573,219.46053,-187.35141
-1525.4604,339.73227,-630.32465
-2344.9988,-443.32312,-202.47546
-4209.543,-3080.893,527.6851
-4168.0454,-4740.924,815.8965
-1595.3145,-3622.6646,775.57745
-103.01126,-1777.7402,560.5139
783.89325,-1201.4114,460.20557
1179.522,-642.1256,613.34375
860.21387,-444.9981,695.13245
871.8908,-519.709,614.59296
936.5024,-716.383,594.54626
859.1217,-883.6228,571.81244
607.0834,-1505.5383,354.20773
364.5388,-2258.5295,-213.493
-861.25555,-5519.2676,-649.20575
-2687.4695,-5793.075,-624.2481
-2344.2842,-2575.9358,-453.91766
-1308.9238,-231.90396,-245.39627
-1042.2921,248.19542,42.014698
-1033.3049,573.5245,-75.66926
-951.42523,1208.4104,-325.61615
-922.54443,957.2855,-357.6436
-893.70447,591.019,-193.63768
-1091.9878,170.61453,-250.1606
-1438.8801,346.86713,-404.8972
-2282.0405,-544.805,-138.59953
-4057.9944,-3016.6982,475.031
-3956.861,-4643.883,775.06384
-1383.9308,-3309.3696,588.5907
-63.348614,-1798.2877,498.47153
686.4408,-1254.1433,489.94003
1239.6133,-704.4814,780.7343
1192.5452,-580.7269,806.0309
1197.3795,-754.56885,719.87085
940.2121,-839.0712,713.38043
870.5508,-985.03345,419.00528
368.6,-1701.5848,-51.862526
-134.61008,-3274.6135,-415.72128
-1824.8867,-6018.5737,-474.92764
-2646.776,-4402.573,-189.7215
-1412.3414,-1296.5056,2.824336
-892.89026,21.381596,308.19916
-923.75024,449.39627,155.1623
-1120.6088,1475.3623,-437.92133
-1252.7832,1152.6683,-288.10944
-1182.7361,611.1939,-180.55995
-1223.374,466.44357,-241.80557
-1407.4602,303.53217,-433.6323
-1925.8007,-107.65928,219.17422
-3115.418,-712.0339,398.35867
-4924.934,-2685.1382,1593.4623
-3649.2896,-3865.148,1694.8911
-1080.476,-2219.8682,956.21063
-128.13258,-1707.8132,595.88873
894.31134,-1211.4291,369.64368
1135.6974,-822.7647,575.2304
1105.4386,-519.96155,598.48645
1148.0402,-430.5516,816.2421
1073.6964,-867.8112,1050.1329
692.12384,-808.3225,1126.1754
544.59235,-1256.887,354.1301
65.41829,-2684.5657,217.29378
-1332.2139,-6056.442,965.2007
-3445.2544,-5559.0747,513.8359
-2193.459,-1809.3213,110.25733
-1657.1216,-605.6127,187.96626
-1265.9475,246.6678,-136.2901
-1003.5868,1132.1979,-376.01367
-893.4208,1356.9794,-403.5632
-908.2645,779.0975,-227.07968
-677.4556,565.4644,-143.44974
-992.0639,222.09935,-149.11848
-1051.7158,292.37576,-324.15945
-1689.069,-60.190826,-429.8627
-4441.6885,-2466.296,569.91
-4851.178,-4622.739,467.96014
-1753.9098,-3164.8398,281.53534
-211.90855,-1630.5048,368.7005
736.0052,-1119.8018,218.15642
833.5235,-790.5613,331.2466
961.21704,-729.03125,337.33777
867.748,-560.2385,396.2942
1077.8718,-533.98553,391.56818
907.1851,-657.9007,425.2883
837.85126,-1132.9879,0.7647115
488.11377,-1628.7476,-508.30295
417.65115,-3931.4565,-1421.3977
-1435.6836,-6535.462,-1653.083
-2188.4485,-3828.767,-880.2886
-1568.9209,-1070.5005,-243.74548
-1440.8331,-322.08963,156.66798
-1366.2192,351.17392,-26.628643
-949.995,1300.0516,-297.24908
-804.06866,975.78845,-251.9279
-868.6289,485.97696,-133.06859
-1026.3934,222.78915,-128.16957
-1327.6041,312.6772,-453.47226
-1561.3397,275.36478,-525.5341
-3083.0974,-1146.9633,-149.03555
-5291.9443,-4879.2983,763.84265
-3004.1082,-5063.7163,767.1186
-432.3734,-2151.3167,520.8451
489.5637,-1566.8269,309.1396
1088.078,-707.0348,389.35394
984.6074,-640.7989,545.1207
926.5723,-365.65363,433.48578
1051.2249,-488.98718,436.38254
951.91705,-439.75235,624.29315
717.5397,-936.5394,543.1335
437.77182,-1685.0767,-38.12148
38.397892,-4525.8833,-370.13083
-1797.399,-6784.9277,-1193.4701
-2320.4526,-3765.2944,-1069.4385
-1736.3953,-1265.1104,-446.12045
-1152.1482,-36.57858,-219.86076
-902.048,695.0283,57.498913
-841.7737,1073.2914,-144.45659
-962.92694,705.25256,-0.49295455
-755.9282,418.78442,-21.927526
-691.74445,462.26913,-109.78281
-1147.7104,119.84176,-459.2746
-1301.5479,237.29533,-402.60834
-2090.6465,-111.94659,-411.1652
-4145.509,-2602.9094,179.2738
-4623.4893,-4592.9614,947.24994
-2001.6935,-3765.9646,1143.2148
-235.1848,-1641.769,988.16956
493.79883,-1221.98,834.9097
934.3684,-643.59357,776.06006
1016.993,-451.18063,631.6631
1001.28735,-214.6085,663.882
925.59644,-609.83124,819.50824
694.0667,-545.4607,854.6265
163.91258,-1108.1909,704.41003
108.19995,-1927.6569,215.4182
-429.7621,-4720.519,-2.364808
-1978.214,-5767.545,-41.05955
-1878.1804,-3020.4956,-505.36627
-1154.8306,-1155.3971,-429.59912
-893.7898,-173.78922,-260.45663
-825.51984,229.5256,-56.706913
-794.97534,789.53094,-47.392902
-835.3422,872.26654,-386.7082
-839.1312,554.9314,-342.8701
-719.2196,459.76047,-288.5851
-1013.44763,358.53232,-204.42798
-1290.0391,402.07156,-294.09863
-2843.8782,-997.5923,-62.9307
-5025.809,-4958.0527,711.1558
-2741.922,-5642.298,793.80646
-396.66013,-2826.132,752.9062
490.72485,-1515.7297,385.34747
1208.3922,-795.2206,298.55124
1272.7003,-232.44945,357.46167
1028.2865,-74.674614,397.3355
839.0168,-456.643,472.1417
716.82715,-830.0778,494.56274
639.6111,-1213.1775,601.26575
331.40942,-1182.7712,247.10175
269.8538,-2684.2449,-52.036453
-1475.3951,-5703.106,-106.43181
-2594.53,-4915.93,-423.29895
-1554.406,-1680.231,-317.68896
-1159.129,-209.26912,-233.04861
-1072.8351,389.09204,82.31735
-978.5497,916.5057,152.27332
-525.1647,1408.6099,-253.1127
-691.26654,721.93915,-367.75748
-684.06134,524.015,-148.67685
-1204.0421,194.59113,-68.46997
-1262.9879,361.60376,-380.6675
-2631.7808,-805.1337,-361.0538
-4824.7686,-4102.5063,281.7319
-3082.3953,-4418.3438,282.00375
-871.3674,-2428.1396,313.22864
123.66323,-1544.2456,125.16731
657.8975,-1179.2719,170.59752
689.10376,-711.58856,428.51028
697.62,-491.98166,585.8195
917.84937,-629.4191,584.7302
1019.275,-629.5044,533.06366
683.8899,-608.1644,482.07156
411.3468,-989.0192,245.17574
364.42154,-1582.9604,-120.69767
-4.331641,-4273.5244,-317.58975
-2200.0942,-6386.079,-710.3208
-2324.6782,-3616.9177,-424.86493
-1703.8585,-1035.6698,-184.9417
-1392.2527,5.7271805,-151.43317
-1303.7827,564.95514,-116.97555
-953.5304,1160.5515,-283.80826
-833.3549,994.3205,-281.67294
-853.99225,855.74744,-231.54488
-1026.846,380.98077,-300.04703
-1382.1343,354.38724,-568.6868
-1843.6195,-66.35644,-548.0229
-3919.4214,-2098.289,25.73521
-4752.1475,-5183.035,967.5613
-1748.5253,-3994.6997,1001.99835
-210.76036,-1799.5322,720.10754
432.47125,-1383.4962,581.8936
810.9228,-708.72955,624.01526
783.58246,-393.4902,628.5713
728.58453,-212.97087,638.66266
794.9358,-393.35095,603.83136
671.53674,-507.92365,592.02167
480.88617,-727.6294,543.4387
260.7613,-1353.4487,135.85266
69.98842,-3680.807,-128.5093
-1418.6613,-6404.547,-119.349846
-2004.6084,-4866.431,-115.70295
-1547.0464,-1295.023,-82.51685
-1177.9949,92.191986,-44.377
-1190.8003,441.62347,254.06857
-918.3437,780.19116,100.519035
-751.25476,946.49994,-254.79977
-757.73444,443.21985,-379.26288
-900.76746,413.107,-160.81886
-1103.4897,157.07065,-333.8782
-1182.1105,415.1428,-582.41095
-1721.9891,-150.10765,-568.0403
-4261.105,-2822.132,163.71277
-4754.6226,-5856.8657,1131.4849
-1559.3923,-3850.3884,1100.8717
-163.03252,-1745.1954,959.8179
566.9083,-1229.3477,760.5443
998.9013,-632.0463,640.28064
1026.8795,-188.10605,547.8142
954.2959,-185.25511,399.98862
1002.85016,-632.77216,447.70544
833.6655,-726.66644,660.0817
495.66595,-1143.8325,374.51587
210.88554,-2287.8901,-38.124363
-552.7171,-4973.709,112.96483
-2212.8625,-5830.169,214.57993
-1800.5167,-2571.4192,13.8298025
-1152.0089,-303.06717,31.806055
-1006.60077,134.57458,-12.150325
-857.53107,198.33754,-102.678604
-571.4152,771.7921,-272.61053
-766.014,749.0823,-328.68723
-796.50134,681.41876,-307.65152
-957.9919,295.69702,-333.49173
-1260.3201,270.10513,-486.84692
-1509.1907,273.69467,-328.82257
-3343.371,-1635.5901,66.63003
-5200.554,-5012.816,1174.0804
-2362.8635,-4723.0674,1021.4324
-170.40047,-2142.3608,673.24664
567.2402,-1324.3309,488.96103
854.6133,-668.9112,463.69623
768.2672,-379.97015,367.53662
750.7658,-136.81458,313.17847
993.5795,-393.60925,350.98856
1001.54535,-329.17175,327.32175
701.8816,-938.4618,397.37216
318.32758,-1561.7603,122.24442
360.22128,-3407.8755,228.0875
-1045.7407,-5763.425,507.74582
-1988.3408,-4467.228,519.1444
-1447.1576,-1653.7203,350.6557
-1234.3588,-100.04964,185.96323
-1369.308,85.26282,144.13927
-1255.8348,959.3704,-278.91763
-779.1312,1376.9061,-634.10144
-824.7197,852.5662,-336.92218
-1062.0485,310.87234,-106.017044
-1359.7201,162.86726,-301.45218
-1492.8726,84.25339,-433.32907
-2563.8152,-1112.7076,114.38629
-4342.861,-3693.1116,929.0667
-2713.192,-5007.956,844.60803
-548.28754,-2939.7078,788.20746
157.18614,-1695.094,495.0698
726.3892,-647.2393,347.18658
767.9543,-443.4701,361.75912
744.1622,-313.61768,372.75098
801.82764,-304.46814,383.66565
679.00806,-423.3943,463.36508
572.185,-577.2498,550.6345
370.8702,-875.25354,251.94429
499.83295,-1870.518,-171.7738
-586.2549,-5222.788,-435.57132
-2100.2886,-6145.7266,-847.1263
-1502.0779,-2789.278,-509.1129
-1397.6812,-877.062,-369.03326
-1246.9849,192.23436,-184.73097
-1472.7603,548.0943,-131.91583
-1029.2104,1297.8158,-342.1099
-1055.6409,832.6515,-361.82477
-976.30927,840.9739,-93.30233
-1152.1665,162.36658,-68.811386
-1295.606,316.0208,-432.61765
-1727.2656,-363.99017,-650.6421
-3732.6077,-1898.1978,-168.41551
-5109.432,-5272.4663,-45.161503
-2148.8445,-4508.8955,506.5223
-57.99132,-2157.4253,392.09827
926.4198,-1390.6338,414.60394
1324.954,-747.2045,439.5003
1088.6877,-420.80557,454.55594
820.6094,-384.12668,527.17303
690.1587,-476.5539,583.5544
516.5716,-695.2597,589.06836
215.4796,-905.5538,403.60715
-135.59167,-2125.3372,-117.24592
-818.0011,-4604.241,-503.38425
-1932.78,-5368.157,-1027.4827
-1391.6311,-2798.6558,-760.74725
-900.07886,-828.56476,-417.73892
-843.8264,-95.133316,-401.66745
-1078.5164,482.59592,-239.03816
-967.2796,1003.29974,-194.9205
-982.7063,910.7093,-344.70972
-890.0695,725.944,-299.50632
-904.8218,575.78284,-350.62845
-1311.3813,584.1697,-314.86963
-1778.7361,-85.33604,-524.528
-3403.2605,-2382.4834,-149.95541
-4414.929,-5250.5728,685.7837
-1743.615,-4472.364,498.1163
-38.802357,-1945.9092,605.3702
653.84235,-1289.4393,421.74127
916.53143,-735.4914,573.7447
856.45264,-495.33255,561.74335
682.1643,-369.95172,695.6397
829.0148,-545.6366,595.7485
791.00134,-445.13306,616.15594
402.84558,-761.6198,409.51855
159.66003,-1388.3577,-77.38268
-298.54108,-4263.303,-227.11647
-2413.3271,-6747.216,-455.87872
-2504.4585,-4078.928,-388.4262
-1948.0345,-1145.657,6.256068
-1300.4056,-22.99368,-13.399941
-1271.7394,1414.718,-99.34305
-944.263,1757.8585,-392.74985
-921.33716,1217.9911,-349.14606
-927.2688,658.1653,-439.5074
-1033.0442,314.0465,-460.41867
-1307.8654,86.35795,-490.29932
-1742.5205,-153.84303,-141.38318
-2843.9187,-2036.0343,213.07825
-4140.9956,-4071.935,573.85974
-2409.6775,-3923.8726,627.6982
-704.0907,-2031.2097,370.95084
185.54341,-1199.5037,293.25778
453.63873,-817.25977,471.3851
656.17413,-676.5517,656.1972
664.551,-401.07986,470.48633
724.197,-285.37543,540.1486
480.23367,-339.8854,591.3218
705.8607,-766.8407,561.3743
413.6381,-1381.245,247.87898
269.83734,-3440.5806,16.982609
-2007.8577,-6331.468,-262.538
-2329.2473,-3839.2712,-90.09753
-1261.1133,-1104.3269,94.72037
-1152.0708,-333.37817,175.97208
-1302.2595,369.33627,-28.113512
-1239.3309,978.49347,-174.47449
-909.97266,960.7062,-195.04532
-813.7896,695.2679,-132.74437
-992.23303,393.26947,-160.49834
-1249.2972,363.9134,-415.5555
-1371.7944,252.87135,-620.64746
-2612.8242,-1265.6497,-63.36685
-4768.3433,-4023.5574,106.19315
-3015.324,-4993.9062,-204.20514
-654.7039,-2708.7893,22.630814
220.19783,-1404.4536,-126.00926
1027.023,-893.0626,91.345566
1280.5403,-938.0929,233.36272
1171.3994,-578.0903,465.93768
1014.56226,-615.6128,364.5638
873.4242,-696.18243,401.08194
693.9607,-992.7598,175.59544
304.39975,-1262.686,-332.8266
-57.89083,-2552.3958,-1639.3271
-1468.295,-4529.49,-3032.0461
-2458.1013,-4944.054,-2752.2761
-2115.1533,-3195.4373,-1242.0577
-1882.0377,-1153.3558,-592.5338
-1349.407,1355.3418,-480.62036
-1032.8751,2444.9756,-573.6904
-1121.1377,1632.768,-571.4796
-1124.8966,741.60376,-466.22104
-798.39124,695.6214,-761.2702
-1125.4591,-38.874817,-647.9496
-1352.7463,13.058305,-423.63608
-2144.492,-265.05795,-299.7465
-4288.0024,-1946.6,-200.4288
-5006.2656,-3369.4175,491.23572
-2966.356,-3167.9067,780.13336
-968.14154,-1631.5664,845.8064
-20.125034,-1528.7408,920.7169
721.95087,-670.12616,936.407
879.6487,-477.70612,902.33813
728.88403,-451.99188,894.7986
664.145,-683.45197,896.5685
605.7181,-721.821,812.1958
446.54398,-905.5672,515.0942
172.54187,-1052.363,207.77109
-628.38,-3437.9714,280.94806
-3499.8894,-6905.0093,382.1597
-2831.8477,-3312.6555,333.4578
-1558.5007,-991.8878,202.96526
-1165.5566,-391.19983,-58.045704
-1038.0016,541.8433,-238.99117
-950.6288,1339.8011,-401.5117
-713.0778,1414.1265,-503.30737
-656.78033,1057.4816,-342.09744
-718.8362,793.2638,-426.43372
-1064.4802,619.3881,-636.5788
-1481.2571,186.68102,-537.79285
-2941.2583,-641.4306,-644.3623
-5878.982,-4253.5815,269.9376
-3874.774,-4990.0015,758.9555
-924.17664,-2301.5605,702.9182
-0.49448445,-1380.0441,513.74976
752.02484,-938.05817,636.9036
737.4846,-628.87274,693.465
637.2194,-502.31558,608.0196
694.0288,-834.2514,732.88654
864.3731,-683.5218,688.7109
853.6193,-731.84045,604.7596
515.589,-1117.751,211.19875
225.13055,-2247.9805,-214.49142
-982.94006,-5442.39,-753.6232
-2756.0645,-6183.5464,-989.5742
-2467.2104,-2707.061,-600.7552
-1714.061,-322.3736,-296.11334
-1235.0393,494.6218,-151.19527
-880.4614,1172.9158,-185.91896
-567.2878,1334.1403,-335.63358
-750.4504,703.3527,-337.242
-693.6795,423.83014,-246.75212
-857.9641,367.77084,-302.17084
-1143.0085,220.09108,-505.29733
-1543.3134,184.52707,-450.4598
-3403.2878,-1290.4551,-172.92772
-4949.968,-3964.6567,615.3185
-2822.5637,-4119.921,758.37866
-708.30316,-2421.215,739.94415
334.2338,-1327.5382,659.46265
834.06805,-887.86975,722.0006
928.72504,-451.60507,738.60254
830.53503,-139.24394,290.4438
801.885,-559.71124,308.5094
734.62476,-775.41583,612.52496
791.6924,-932.1507,445.92984
424.2291,-1467.6276,58.56858
-13.702506,-3646.4353,-424.71976
-2483.192,-6799.551,-729.3991
-2774.3245,-4257.116,-585.12317
-1646.7838,-1132.2279,-339.84604
-1176.474,194.81633,-206.73569
-1199.506,535.1731,-32.295467
-1032.3049,1141.4353,-210.5872
-795.3849,1114.0304,-411.1095
-760.88434,791.30005,-384.91858
-902.1278,430.9776,-131.49045
-1212.4961,115.84442,-237.46303
-1127.6018,308.28845,-459.45203
-2240.971,-188.57356,-322.65305
-4754.006,-3401.8132,494.49
-4061.7544,-4649.8438,777.409
-1132.7819,-2701.538,577.32294
199.32246,-1350.7131,653.3957
680.313,-1144.8146,558.4973
749.50555,-852.2451,755.30994
802.1205,-395.01218,553.22906
863.3244,-451.18094,581.21875
753.5038,-672.03613,648.77185
726.15906,-349.53036,667.7421
336.45016,-1005.9794,343.21887
287.23587,-2713.9963,78.67073
-951.4501,-6410.481,17.877134
-2362.1548,-5753.617,-197.65392
-1753.8121,-1996.6886,-65.68524
-1270.9757,-271.82947,-339.53613
-1113.6996,371.24982,-267.03696
-1093.5791,913.166,-210.06226
-948.3664,852.796,-211.8097
-800.9127,579.6845,-237.63301
-707.0381,215.59721,-185.12837
-872.26324,11.797823,-124.76334
-954.2565,-67.892105,-226.23721
-1225.5195,73.068115,-76.60576
-2354.9275,-1396.3223,106.05193
-3873.5037,-3951.734,1152.5541
-2842.007,-4201.2954,1251.4872
-594.27136,-2621.6233,858.6805
358.82767,-1226.5725,1006.93555
951.11316,-659.34265,764.3221
1168.5005,-423.44208,679.0133
822.69696,-83.76321,515.0458
810.0114,-134.67851,422.2103
993.1276,-308.87708,425.4819
913.23224,-556.00287,467.54327
499.27798,-1426.3496,28.911133
226.95116,-3623.475,-175.054
-1426.3351,-6401.5674,-365.34702
-1887.8662,-4460.4316,-171.32635
-1193.5822,-1734.9518,-20.651447
-1132.9177,-251.12563,209.67398
-1372.1947,151.4601,401.96304
-1233.5459,1013.6518,-187.12032
-933.69617,1119.0815,-290.73547
-923.3686,639.05676,-214.32167
-793.461,414.83826,-264.16125
-1078.808,124.82199,-425.49673
-1481.8862,186.72519,-308.44916
-2217.944,-1035.0194,-301.1984
-3723.5315,-3645.8098,425.2136
-3122.2234,-5032.4556,543.0452
-958.4349,-3227.0566,558.31976
36.266487,-1884.8254,516.8954
564.9185,-1275.4744,368.79724
820.0465,-617.7676,390.12305
971.6499,-409.32776,535.757
904.73804,-460.7325,537.4789
880.25214,-585.3373,461.66287
934.0634,-377.25006,426.34094
692.48206,-1341.5438,244.38968
456.9884,-2307.334,-468.84012
-379.64487,-5422.624,-1326.6564
-2194.1482,-6071.4746,-1427.129
-2001.2412,-2663.206,-676.67834
-1831.1744,-1211.8835,89.68698
-1381.4075,340.5849,207.97617
-1234.3947,884.927,263.13577
-819.1975,1267.3666,-108.31599
-805.94073,550.45886,-228.5478
-794.64685,443.0695,-232.20724
-1174.8192,298.99725,-387.08484
-1256.9172,99.5859,-560.7534
-1545.5142,-169.89613,-468.9357
-2524.4377,-1771.8528,-283.8863
-3892.2505,-3855.582,591.57263
-2723.2073,-4445.271,493.94434
-746.9126,-2670.4412,759.3091
161.95584,-1612.4302,674.40106
604.3525,-934.2973,712.1172
771.97955,-562.26416,570.3579
827.5614,-354.34723,482.94025
871.41907,-396.23828,654.35834
880.95294,-536.60016,607.816
633.26184,-735.8071,564.2335
225.49222,-1360.7633,180.13249
-256.23294,-3878.3354,-217.98903
-1816.4574,-6486.829,-484.07675
-2404.5728,-4156.7407,-550.4021
-1913.2987,-1535.5966,-431.63486
-1286.3633,-192.8928,-402.7984
-1085.1368,395.24622,-303.29395
-922.0311,1194.405,-129.77823
-1058.3597,1083.7484,-77.5317
-858.48645,769.53656,-257.30627
-929.06024,506.41104,-111.59319
-1123.3447,180.37366,-116.043755
-1386.3164,270.12692,-304.70212
-2536.3708,-569.97736,-318.1234
-4780.875,-3414.0803,600.01013
-3987.4524,-4834.1294,884.02594
-1062.3049,-2740.551,785.11127
284.02554,-1664.4528,659.5785
1036.4052,-1229.4606,768.4571
1288.0215,-674.3179,706.7638
1067.96,-406.1651,421.04504
894.50964,-527.8344,470.07816
693.0804,-756.3592,439.8583
744.6018,-661.14886,346.24637
228.66713,-1518.3828,70.474724
57.664444,-2876.3308,-262.377
-1610.032,-6493.438,-508.97522
-2705.3748,-5470.614,-544.3977
-2025.5282,-2055.5122,-200.79541
-1600.3788,-409.30023,-209.25458
-1407.953,273.67435,-218.11725
-1387.7947,843.69714,38.028873
-883.9963,1594.1067,-154.04584
-789.8334,1215.6125,-384.49707
-999.4359,558.1394,-217.75543
-1252.6226,97.91572,-198.79407
-1461.4958,-48.24969,-404.19226
-2148.777,-764.1293,-468.25705
-4320.926,-3689.8137,414.83774
-3787.7297,-5444.229,442.42197
-1047.2339,-3242.9202,473.00922
149.47188,-1593.3756,330.6237
959.84827,-963.63495,334.9624
1235.7513,-626.3255,409.98975
917.06866,-563.979,450.19244
810.2953,-627.7059,512.2225
871.42554,-633.974,521.0396
1058.0892,-479.00797,371.04593
593.3763,-1228.0371,124.47566
195.42487,-2770.6863,-308.9217
-1329.308,-6362.6006,-877.34076
-2377.2292,-5710.392,-1009.75214
-2180.8115,-2822.0176,-591.38336
-2136.7717,-916.62665,-412.44632
-1707.3273,371.5104,-281.51965
-1198.4036,1183.1644,-157.80026
-774.62286,1565.2246,-9.285828
-915.6211,905.5319,-84.21992
-895.84186,676.4964,-120.39813
-1148.411,360.62234,-171.81856
-1450.146,286.34537,-268.38855
-2408.913,-398.7911,-357.22662
-4671.045,-3498.9336,294.75394
-4110.8784,-5383.416,955.3785
-1324.1725,-3065.124,873.3283
-29.923447,-1666.0696,630.60815
744.4719,-1135.8884,602.3624
1053.1108,-799.6938,734.4416
1012.26465,-581.7684,368.36
1011.17206,-527.01556,150.11667
927.8252,-787.58905,493.57382
970.06885,-594.16077,502.21686
599.23505,-1092.02,263.80475
428.66766,-1791.9608,150.64658
-705.59076,-5144.8706,148.51921
-2378.9106,-6259.6953,-110.93623
-2301.3694,-3100.8865,-70.19343
-1670.851,-906.7255,-98.10519
-1247.2682,19.964874,-99.09473
-954.59894,693.23145,-281.14124
-742.65735,1759.6885,-358.0542
-945.0604,1085.2734,-456.16794
-868.52094,573.8437,-287.50464
-1011.14246,365.8182,-433.3076
-1625.6713,439.21252,-467.19083
-2112.9526,-105.37205,-489.8184
-4709.518,-2719.2896,7.0580916
-5131.6704,-5934.7085,781.7132
-1454.7428,-3294.0364,704.1662
91.434296,-1722.9171,574.84235
1024.8158,-968.2625,630.2099
1297.4971,-495.4723,709.654
1260.5344,-416.55023,435.40884
865.6928,-693.95514,478.91193
750.31647,-754.3937,488.76797
681.7968,-661.2375,528.55695
670.09125,-1181.6627,100.32944
235.45837,-2152.9045,-134.64037
-403.65073,-5392.4585,-584.6967
-2818.1357,-6480.9175,-698.49
-1930.6852,-2423.1936,-256.13678
-1426.5769,-733.6885,-180.81235
-1488.3925,14.700536,-19.057922
-1259.1724,977.2843,-130.24663
-741.6829,1330.0447,-249.88707
-939.5152,689.2721,-166.49419
-971.0863,397.19254,48.406914
-1020.09125,352.78134,-28.795105
-1262.3868,442.87216,-81.194046
-1769.9067,4.864956,-71.81611
-3951.491,-2362.844,946.02826
-4778.874,-4975.742,1344.2351
-1831.3763,-3041.1042,861.004
-385.7962,-1631.8281,500.86697
770.2641,-949.6342,202.14522
1039.4268,-866.31586,232.47581
1051.6056,-849.2092,490.88394
959.98535,-714.6363,790.2682
1392.2296,-580.72723,680.72424
977.79724,-533.8493,668.51654
796.2874,-631.9062,412.40454
377.0488,-1182.5325,36.879223
333.97232,-2769.0007,-16.664618
-2166.4666,-5973.025,159.72498
-2792.147,-4594.2866,113.10568
-1426.3922,-1558.8004,34.211468
-1248.6785,-768.3582,-145.881
-1023.13904,55.513084,-27.34831
-1185.4053,405.3543,-139.15887
-860.78625,1082.3363,-417.20062
-718.9834,926.1068,-620.5107
-804.44794,744.3806,-267.38654
-1083.6431,321.13013,-248.58264
-1325.7579,713.1796,-449.08405
-2524.9038,-750.8189,-171.02805
-4335.315,-4440.849,1001.92584
-2907.438,-5149.2095,1035.9148
-393.012,-2585.352,797.2853
329.372,-1455.1735,542.45715
1039.4983,-850.5434,454.49075
1180.5846,-373.18176,557.99725
1058.6383,-103.49975,600.2332
1014.4396,-119.7542,516.68585
1169.2501,-362.40332,529.23444
917.2745,-729.5442,465.22787
764.9647,-1748.3789,52.087162
-116.49465,-4602.358,-281.9147
-2614.3123,-6736.3257,-1007.7607
-2282.6125,-3609.9983,-680.2394
-1763.1847,-1011.48145,-484.43607
-1328.7045,104.67178,-220.85509
-976.46515,623.46234,20.685003
-829.53125,1203.1112,-27.465195
-822.4495,986.5464,-296.6526
-729.6295,724.3367,-168.30948
-921.1886,462.56622,-72.49647
-1182.8835,302.15762,-385.71793
-1773.1301,277.02725,-539.82495
-3348.7395,-2080.5654,72.415016
-4279.7817,-4347.302,717.10236
-2602.5474,-4278.7407,650.33777
-524.92444,-2106.186,622.0732
291.23242,-1213.2073,401.0085
732.2681,-808.11755,530.5256
853.1849,-394.76688,499.11862
982.2593,-310.9893,430.87982
975.92053,-541.7551,552.02747
905.29315,-586.2312,682.44855
869.489,-835.3305,526.7822
599.57635,-1449.9182,186.75023
174.09343,-3598.4277,-98.583496
-1258.6797,-6114.5835,-332.69406
-2087.9585,-4375.2227,-394.84326
-1454.5648,-1518.3407,-225.49757
-1114.7705,-151.64764,-206.99063
-1004.95917,165.57382,-99.352394
-941.24457,859.95386,-187.22766
-822.45825,990.9087,-365.12735
-847.9778,722.48004,-305.75134
-855.2619,498.42313,-185.11852
-1329.1034,285.3077,-433.61853
-1789.6179,177.08614,-378.74463
-3135.0005,-1791.6884,322.5643
-4231.0073,-4541.335,1261.8805
-2426.0493,-4450.558,1085.6501
-401.43158,-2326.1196,815.71
276.194,-1458.107,528.4876
933.69946,-699.51904,510.65778
1073.8695,-332.99338,438.90356
1188.908,-344.70697,394.33737
1169.1055,-602.6454,360.68896
1116.928,-551.2437,383.0203
785.6207,-1206.2585,159.9131
453.23734,-2346.7788,-204.7016
-657.4745,-5150.498,-436.3305
-2173.7817,-5896.434,-723.1006
-2169.884,-3138.7432,-601.5838
-1563.3041,-770.3358,-239.34306
-1419.7882,151.60634,-146.13205
-1398.4757,878.80804,143.34795
-1020.40326,1255.7772,-178.22707
-777.17114,972.985,-384.67627
-985.8369,598.1656,-73.925224
-1011.06354,327.2921,-32.489414
-1320.0548,124.00202,-279.18512
-2207.2832,-773.3069,-127.68781
-4525.0376,-4110.06,958.2471
-3442.9717,-4882.757,866.38434
-966.34607,-2889.7783,619.7348
372.49203,-1708.7047,347.66763
1229.8596,-935.9037,342.18527
1284.9116,-585.6624,509.8829
1155.8154,-383.91208,429.27005
1055.4728,-491.11148,316.2457
908.6341,-321.32135,338.20987
858.6899,-636.60455,327.56454
927.1142,-1081.4281,9.9191265
1084.4976,-2747.1277,-507.49594
-637.13086,-6828.121,-1403.7523
-2598.076,-6250.303,-1315.4943
-2386.0818,-2246.1028,-565.3713
-1944.8673,-451.62787,-196.79361
-1593.215,295.7003,-135.27498
-1313.861,696.21765,143.59775
-705.48663,1110.0447,36.987167
-779.09534,934.6671,-83.94339
-917.5677,618.6847,-128.02498
-1259.3605,93.83644,-238.37373
-1342.0605,220.43286,-413.3809
-1912.7599,-604.7277,-83.49247
-2953.1729,-2804.3293,308.6288
-3673.283,-4622.917,708.99744
-1703.2103,-4213.1587,511.1221
-95.97066,-2080.4966,413.5135
518.4869,-1384.7603,361.85648
1002.26526,-687.0527,459.213
1061.1931,-582.4816,375.11792
952.7027,-374.2524,622.9124
836.5886,-505.16833,722.9417
986.0657,-366.25177,748.96423
837.0889,-1100.4279,448.22287
411.4658,-2602.3672,-13.497078
-784.74567,-5365.7827,-486.30322
-2002.2881,-5837.7666,-899.59644
-1693.8525,-2643.2656,-647.54553
-1339.5503,-657.1913,-586.9729
-1096.0604,348.2629,-333.45392
-993.837,560.2296,-43.802216
-769.588,979.5016,-145.76558
-786.04474,700.29205,-397.74362
-971.8401,698.0484,-279.4038
-1230.9873,293.00543,-314.37433
-1418.0867,341.88855,-568.7442
-2433.932,-405.94598,-338.53986
-4204.2324,-3536.1897,587.6368
-3765.9377,-5120.9697,882.58795
-1237.4637,-3689.0032,705.6481
137.09395,-1835.8912,580.4384
801.6024,-1223.1011,360.34717
961.05853,-629.7812,487.39642
861.4045,-311.55252,437.15475
1038.2058,-93.43994,407.46448
960.6201,-554.66016,477.48346
954.339,-580.18646,689.9336
622.24854,-1584.7219,373.15717
414.61838,-2860.0117,377.71112
-644.97437,-5368.5967,640.83026
-1986.044,-5069.793,434.5615
-1546.8202,-2259.3774,111.60046
-1324.1101,-673.0258,-118.074936
-1355.1111,69.36238,80.27562
-1110.6304,580.1691,-54.23681
-625.06036,969.84406,-472.01764
-749.1333,591.22754,-502.61688
-846.7517,400.19754,-235.97047
-1001.5828,7.151085,-94.84436
-1272.6481,318.01266,-312.0118
-1904.5702,-806.08234,-80.79381
-3249.0415,-3667.8706,1339.3254
-2270.61,-4832.3726,1174.8844
-531.8835,-3057.472,1201.8156
239.60994,-1842.5951,856.6553
657.49316,-786.5534,406.40387
864.4924,-174.15126,256.5349
875.6273,-145.54175,280.83887
967.5711,-323.955,384.75217
947.45233,-467.0829,300.10312
1051.3014,-527.50507,264.48492
519.52673,-1304.1886,92.070274
954.79315,-2788.2124,-54.997154
-610.6814,-5687.222,-93.83256
-1982.8807,-4416.1445,-32.981884
-1038.8558,-1432.6818,-55.63602
-1221.6238,-528.01135,-127.27906
-1005.93335,143.64056,-101.12891
-967.7528,533.0132,-142.66322
-633.4662,894.4097,-319.48422
-819.223,472.5421,-398.87677
-898.0468,496.2879,-312.12668
-1110.4333,128.5299,-341.8697
-1414.4727,188.2017,-335.98956
-2359.2224,-2052.3767,453.55667
-2809.2908,-4208.956,1226.8805
