# PAMAP2 dataset (wrist-mounted sensor)

acc_x[mg],acc_y[mg],acc_z[mg]
-268.7063,-60.5351,257.72083
-796.5761,294.697,151.7802
-726.82806,-4.2560062,324.45358
-1514.9591,5.1913047,357.75015
-1618.1865,-192.7796,266.2115
-1715.2081,68.34126,381.55667
-1621.1138,252.54883,671.4836
-1406.7124,480.79666,542.4981
-935.94305,450.89127,378.89728
-393.08817,520.3669,161.07382
388.7959,842.5542,222.34494
782.0081,1040.4921,323.21228
630.9712,858.57574,196.83559
109.72316,956.573,160.01901
-356.22165,1160.9904,296.98636
-1087.9897,1485.2053,449.31464
-2154.1577,2215.6536,755.5372
-3529.4324,2961.8,1032.3025
-3477.7493,2397.723,849.90515
-2610.791,1413.9196,418.88052
-1554.0284,303.58505,145.47426
-1125.2493,187.1958,104.4258
-697.9427,-407.0134,-274.31973
-563.3731,-1391.2759,-538.3508
-486.61432,-1226.2316,-486.6563
-861.22076,-1030.5265,-314.2292
-1126.5398,-901.1735,-286.5539
-1668.3312,-286.75726,-66.02661
-2034.0511,267.46475,19.263445
-3423.3364,1349.371,916.3817
-3736.9875,2955.6975,1387.5867
-2146.4412,1931.7349,636.0174
-983.6245,1663.9153,472.8036
-33.197372,1536.145,257.0635
509.23047,1126.6842,49.882324
980.89777,1129.9452,54.024128
1002.16,922.1461,90.671196
714.63293,930.8304,12.525585
226.7769,1136.1917,2.5173883
-416.83572,1624.2886,194.96468
-1599.747,2328.4304,530.3248
-3602.4402,3202.3494,804.78485
-4189.273,2489.9927,833.6067
-2989.2197,1408.6827,398.4061
-1854.9225,326.38055,176.88704
-1338.4347,194.15704,-42.792866
-595.8797,-1655.3552,-564.59314
-327.95142,-1775.9233,-774.7557
-520.3964,-1357.2045,-441.05737
-939.64075,-1093.6609,-377.42984
-1366.5269,-639.8116,-339.77036
-1830.5092,-142.7318,-255.50902
-2512.2812,372.33267,182.69064
-3776.4507,1795.8402,842.81146
-2945.5967,2591.6768,556.32623
-1732.0709,1706.5215,484.7743
-959.0304,1325.4642,499.01022
-202.96683,1046.4741,270.85837
345.94342,1016.2799,341.3989
953.02106,996.22754,387.51196
1056.4983,861.0488,190.80612
587.0485,964.33105,81.89812
201.86188,1321.2782,60.178436
-706.4624,2135.9426,285.16394
-2139.9038,3013.3225,474.212
-3014.3564,2660.8533,557.5703
-2854.8313,2159.7144,327.7748
-2384.7014,1368.5659,-38.036648
-1945.8394,355.51422,-150.14511
-1553.3682,-191.84883,-311.5959
-1090.577,-1162.48,-548.7394
-701.76056,-1934.4896,-793.2404
-772.05634,-1533.1246,-602.8704
-944.8774,-1155.0697,-378.05927
-1174.7513,-501.8304,-191.0393
-1768.7474,65.60661,-61.140503
-2515.8174,574.9246,331.86304
-3424.5598,1331.7488,1253.7567
-3094.121,1437.2024,1194.7777
-2062.1333,1084.1486,741.9041
-1032.6564,1242.6992,700.6949
-244.74669,1504.1517,586.2332
320.67197,1690.5962,417.60175
575.3489,1493.344,239.05739
527.647,1305.4365,219.89679
186.41385,1249.9891,84.75586
-288.12747,1321.4447,30.113451
-1217.0211,1610.9688,41.164307
-2407.0,2219.4958,115.78806
-4739.662,2887.684,109.82324
-4253.982,2122.5164,-374.3499
-2826.2236,1141.2598,-404.3057
-1983.021,376.96826,-426.47946
-1606.962,-315.64145,-498.943
-874.63324,-1571.7935,-588.73334
-660.60394,-1695.9398,-584.20703
-603.126,-1607.8185,-295.74756
-812.019,-972.59705,-142.93126
-785.0725,-635.1596,4.943622
-1267.737,218.65898,197.35065
-2065.444,1262.3839,578.7058
-3072.2446,2648.4236,1218.5052
-2502.817,3157.7783,982.4033
-1224.0947,1792.588,694.9333
-382.9075,1338.0281,483.1927
46.45337,833.74536,208.96585
449.80353,624.0523,155.19472
776.47046,414.80984,182.04857
902.67456,282.7598,179.7647
630.63043,393.59164,144.96544
560.21643,439.9241,-35.177925
-99.03976,1499.6132,131.0781
-866.4241,3105.4285,192.73207
-2510.5354,3532.167,178.89421
-2680.001,2876.2495,213.42073
-1744.477,1500.1292,-67.626434
-1168.8374,793.407,23.846743
-808.2816,164.7651,-82.36116
-591.0847,-411.90912,-148.51779
-443.76413,-971.15216,-202.00143
-400.76752,-944.4231,-122.802574
-511.4256,-782.2815,-176.41937
-693.3478,-499.74478,-17.870083
-1068.0897,101.58101,31.751356
-1692.9502,1439.1997,423.0128
-2229.1187,2940.5137,841.38574
-1587.0254,2857.609,775.638
-737.9078,1705.0343,613.4305
-359.8909,1136.2671,456.0066
23.893639,582.5913,262.0686
458.15326,411.67508,108.70942
841.08545,210.838,102.27284
1021.0474,160.04897,97.84895
843.3049,187.00818,46.704815
649.9178,262.31738,-22.629707
167.24486,1185.1482,47.96173
-581.05865,3356.763,266.29797
-1788.5638,3871.4917,314.29163
-2354.5725,3136.622,450.48126
-1804.9608,1944.9783,169.30125
-1386.7518,864.15295,91.3973
-989.86304,214.45345,-8.409295
-693.96735,-617.0365,-104.36758
-457.00616,-1176.9875,-208.87842
-516.28613,-1047.8451,-103.73641
-693.2004,-794.7367,-157.0029
-891.71985,-539.76404,-56.35557
-1394.8528,171.70424,-72.34272
-2183.1611,1128.8315,160.27592
-2843.8477,3176.0857,321.41953
-1833.9521,3081.4812,143.04967
-805.3258,1788.5392,213.72728
-233.41125,1297.0942,99.67186
100.20618,861.2611,44.095215
393.0082,680.6941,0.008843835
700.4491,402.24115,53.384647
968.2888,296.9098,25.94583
841.09064,226.71387,36.628784
611.2682,404.76294,62.993137
286.28833,829.78815,-159.0869
-463.04178,2581.591,-86.11791
-1524.3369,3783.5105,-66.35436
-2641.044,3539.59,183.04759
-2364.8193,2373.3945,159.15115
-1707.5371,1233.1254,2.7777658
-1072.0092,294.68616,6.279433
-747.2196,-282.6642,-75.05371
-457.96555,-1105.203,-230.45813
-369.58136,-1242.3805,-193.5312
-449.77774,-887.68756,-97.56108
-669.26746,-544.1173,-72.60231
-1124.2115,-93.68335,-103.93904
-1969.5677,1042.6545,26.023933
-2866.094,2802.826,781.7643
-2075.9136,2930.71,711.5936
-828.4537,1995.5105,468.11102
-326.64014,1401.4901,380.10233
45.409496,912.463,311.3134
340.71515,628.142,243.39102
711.18506,326.85156,247.74268
916.21826,155.2659,261.13718
822.8269,171.79694,198.45758
695.4442,184.73663,116.914665
587.6942,428.6897,14.824269
-245.53934,2507.264,196.80347
-1661.9291,4233.992,226.69588
-2292.947,3577.4785,401.74054
-1860.86,2242.384,201.60457
-1374.9569,1095.0623,-4.614717
-935.57623,371.18076,-28.938114
-724.62994,-362.98468,-152.24138
-531.19257,-985.6738,-316.02676
-491.31793,-1194.9093,-327.01834
-694.55554,-1035.7205,-238.50365
-817.86816,-627.9177,-151.18759
-1256.8712,11.7876625,201.37737
-1670.0701,628.1555,198.10309
-2556.4905,2287.459,924.40314
-2462.3936,3433.8765,953.14954
-1383.0167,2073.076,499.7704
-581.60767,1503.8368,430.31158
-31.937862,996.08496,141.72299
413.61078,732.9641,64.28809
985.58594,459.1811,66.9043
1253.4453,283.77573,51.289436
945.8481,327.05902,25.354202
640.8436,582.0508,-89.3879
-1.627191,1417.3453,-52.7028
-762.17926,2979.4592,85.32254
-2420.628,3628.22,307.66824
-2751.054,2723.203,373.30875
-1815.8176,1519.4358,95.703445
-1317.5988,838.88995,-7.871914
-877.52985,-27.252762,-116.924614
-580.35956,-1079.6644,-107.99758
-285.49023,-1231.4913,-240.2871
-397.32535,-1040.155,-40.159233
-529.89764,-791.66626,-54.606083
-880.94196,-367.99774,-32.444317
-1443.295,396.2228,14.897956
-2414.8562,1716.1106,499.10638
-2468.4973,3365.87,687.4236
-1471.343,2459.8945,541.3953
-647.2048,1503.7047,501.8643
-169.04382,808.5093,324.99725
148.61388,671.04425,150.43324
458.39297,496.7735,102.5858
727.43317,281.19315,71.462654
830.72943,201.29396,61.56173
665.265,137.9575,113.8072
652.2672,405.9729,47.262695
16.184935,2134.7417,45.642292
-1140.3002,3516.8853,-166.78055
-2285.942,3886.3733,289.44498
-2082.8196,2423.2493,109.127075
-1622.1539,1390.7607,-35.3144
-1140.562,535.2117,57.62405
-763.3916,-165.28415,-100.81345
-531.85,-1071.4377,-248.06714
-352.52313,-1288.8208,-205.63861
-513.7686,-1020.4487,-101.57301
-771.9982,-694.0421,-125.236046
-939.9017,-295.27512,6.897401
-1729.3058,851.98444,148.24059
-2475.009,2269.5376,784.54565
-2334.1616,3296.766,949.248
-1253.5756,2303.1787,649.91626
-525.26025,1500.119,438.19162
-202.05043,959.3156,217.15407
192.40517,810.81537,135.86687
603.48206,566.8201,165.20232
1017.0979,387.78897,127.3328
1084.1383,299.25262,21.845587
839.0296,286.3572,-49.302666
494.28452,535.7778,-119.04077
-192.60149,2275.9707,-44.285072
-1575.8168,3638.98,-64.29406
-2762.6426,3422.7769,207.08548
-2283.9243,2426.071,313.0905
-1732.6198,1337.6023,38.48572
-1067.4469,372.303,-74.53697
-697.5918,-170.65245,-171.25003
-507.8401,-858.7772,-245.6759
-439.6108,-1260.3494,-260.09558
-624.2421,-1371.4817,-243.70767
-1000.75336,-921.2768,-185.48183
-1127.6125,-505.2744,38.501972
-1722.6552,735.0438,-51.469498
-2633.3772,1893.4094,520.0234
-2925.2437,3096.557,1075.2092
-1683.5211,2321.0005,531.85254
-820.1374,1405.416,469.70337
-393.55106,956.1374,301.741
-105.93202,672.13007,241.20557
308.86328,482.43585,109.251274
768.45605,411.68314,134.86165
1019.9834,382.85568,113.634964
755.74414,579.1611,187.37099
564.8726,446.12906,-34.34486
-394.8596,2305.3508,38.966225
-1571.795,3532.2966,162.65305
-2325.52,3239.2969,656.2359
-2400.7441,2892.1382,764.5162
-2109.1006,1465.9011,283.80814
-1550.808,703.0782,-44.74769
-1134.7379,-15.356874,-71.359505
-809.5134,-348.79105,-170.82156
-737.9273,-981.7365,-295.78268
-632.7027,-1079.765,-347.03357
-815.4589,-978.3864,-269.55872
-909.8925,-632.1585,-164.7412
-1256.3513,105.408005,-5.5524964
-1946.8551,1583.3265,-8.691731
-2555.2527,3326.026,598.66675
-1839.5752,3286.8499,620.2554
-799.8174,1826.6276,374.38327
-321.38474,1324.1311,229.68611
-29.245552,843.754,197.03316
342.43262,653.18414,192.76915
796.2084,273.6579,154.54736
1085.7628,252.47296,183.6676
844.2973,266.36472,260.38535
705.78595,311.37994,95.79732
256.54666,981.74994,-67.43044
-625.5477,2861.0974,-214.83148
-1992.7933,3779.636,79.50803
-2729.819,3471.4385,389.517
-2124.1191,2171.7642,203.72281
-1589.984,1037.9683,74.683304
-1111.6666,57.73375,-36.683567
-812.6561,-796.2971,-198.4966
-589.4656,-1532.9266,-292.75293
-598.7486,-1509.4426,-45.94618
-734.2108,-925.25714,-34.731617
-896.85944,-530.1711,-56.682304
-1306.4133,90.44562,-79.48328
-2072.3608,1019.23975,118.824295
-2832.7053,2457.8948,571.663
-2286.598,3232.898,429.6114
-1173.0289,1950.5485,435.63303
-637.35803,1681.6007,318.84814
-176.51675,979.9175,241.9378
393.9432,888.6248,159.8579
1055.6306,503.86215,239.89449
1126.8586,548.28827,272.55923
822.37103,455.77905,81.34815
519.14703,614.15265,-128.88283
351.1327,383.78397,-318.71213
-480.8334,2178.1785,-146.22289
-2498.9172,3520.425,66.84368
-3194.844,3157.6047,94.75618
-2670.453,2367.251,150.99922
-2108.4546,1232.5481,-22.812756
-1733.0753,509.53024,-42.137825
-1623.2036,-130.53265,-85.196396
-1055.3041,-1315.4104,-342.01538
-656.15796,-1375.0492,-467.89655
-548.842,-1493.0657,-21.769108
-588.8815,-677.0429,288.8372
-739.13635,-353.70175,189.75658
-1357.8312,324.13235,-7.980463
-2416.7952,1410.8551,213.2665
-3240.2065,3876.679,811.6761
-1857.9808,2679.8594,540.1613
-979.70654,1714.4905,442.6726
-322.15002,1092.7522,132.46332
141.75978,864.40594,84.11256
815.41364,402.40106,-167.9204
1171.5413,220.85156,-350.14185
969.71857,650.4559,-118.74375
405.91013,1024.3025,137.74489
82.42374,1249.5092,-104.94105
-512.8341,2033.8104,-102.87761
-1376.0778,2679.304,-65.50865
-2611.6553,3277.3948,42.680313
-3180.994,2976.4365,163.8396
-2562.1833,1980.7416,118.012825
-1585.709,736.9474,161.01529
-1248.8674,49.759617,0.22614568
-993.13434,-913.0875,-221.19003
-622.96204,-1794.4323,-560.0955
-467.81396,-1475.6703,-258.6448
-757.9854,-1248.9254,120.180885
-772.15204,-685.355,-6.434208
-1344.0784,121.56001,204.27884
-2323.6345,879.4916,320.39288
-3511.8208,2290.1392,1250.3064
-2600.2166,2364.23,1487.0336
-1207.8137,1473.1187,938.12823
-715.70447,1233.3422,629.024
-318.04443,1118.1405,309.1712
69.195274,1231.7468,224.21066
485.28906,1332.3367,245.45656
736.9135,1132.7374,243.51375
674.26514,718.9834,111.14022
538.08374,914.14856,52.293987
220.65508,1095.3932,60.80363
-403.4492,1648.2502,259.87646
-1768.223,3177.4534,659.16144
-3601.4043,3166.2498,719.91815
-3007.2603,2682.6511,890.25275
-2121.27,1043.1619,525.541
-1595.7637,118.18912,23.365732
-1023.9904,-997.98254,-526.3247
-548.86176,-1989.7386,-690.0166
-489.53864,-1163.4993,-317.91736
-667.40576,-967.23444,-247.83525
-963.0231,-288.44635,-287.04718
-1310.5913,345.29788,-121.650986
-1564.2981,833.83496,-545.44635
-1894.7965,3167.5754,-568.11115
-1443.2694,3396.3481,-201.2566
-938.7175,1864.2506,-251.23093
-465.6038,1690.2635,-43.22388
-203.22717,1120.9263,94.567795
60.638294,834.7238,231.76839
505.2825,322.9494,135.09575
738.5195,209.38141,123.30448
812.32043,128.61935,231.59732
604.1566,359.46893,181.30438
437.31613,313.51074,-0.72933054
7.411594,1885.2211,-464.68912
-1437.2798,3919.4792,-670.171
-2474.146,4208.306,-306.31442
-2169.8196,2935.7966,-322.61142
-1817.0057,1644.895,-198.01071
-1318.4956,480.86212,0.121179245
-1064.058,-310.3333,19.77722
-769.7313,-1452.0377,-326.50513
-661.9299,-1658.6852,-22.731487
-757.76794,-1033.8556,141.44904
-940.70135,-717.1002,-21.724136
-1196.8368,-242.11696,-117.44385
-1757.315,617.28546,-135.44719
-2389.4507,2613.314,356.99124
-1979.2732,3882.527,422.48648
-1077.9597,2639.259,375.24142
-603.0911,1510.9216,207.65828
-311.6961,973.57367,126.77023
-25.085754,671.6473,77.92026
276.18066,373.44534,-4.0689335
679.3783,146.50214,1.4346036
983.5039,96.923325,18.193281
900.4528,198.61208,14.237644
685.52527,322.16187,-145.54823
33.31145,1870.1725,-183.66446
-1163.138,4129.5645,-212.09111
-2065.8787,4137.159,-30.811922
-2428.8135,3064.6191,289.9564
-1959.566,1309.9047,219.62935
-1435.8411,472.2529,162.00961
-1242.8745,-564.292,75.78182
-865.94965,-1816.3105,-100.53092
-758.3599,-1523.3778,-68.25654
-855.97064,-930.7881,60.546936
-953.5921,-746.2224,-44.558567
-1382.1027,-56.91582,-124.2673
-2219.137,1104.3752,-270.86523
-2653.1677,3418.7742,358.7673
-1829.7512,3521.8015,419.46503
-996.48566,2281.0764,321.09897
-279.60272,1411.4417,309.8419
103.74427,971.0105,217.6228
387.63425,800.4794,196.60745
663.96564,445.41983,175.95554
992.1568,315.1055,140.27316
928.881,356.86487,94.75735
706.8953,431.37216,55.05292
232.64119,1058.4531,18.558867
-820.0045,2973.034,274.71246
-2371.5698,3892.09,324.72253
-2811.119,3158.623,465.55472
-2274.5024,2042.7465,211.95103
-1588.9003,814.2519,97.416916
-1191.5574,109.261154,51.15204
-764.0517,-1029.333,-205.59065
-433.6585,-1607.0408,-346.867
-569.6397,-1244.3928,-101.64594
-695.0081,-879.1751,-136.26419
-971.64954,-378.56094,-45.350292
-1543.5814,668.0124,-135.4786
-2297.3982,1864.0923,338.55753
-2304.8296,3178.2585,624.4386
-1390.1844,2923.2065,469.46466
-646.1353,1706.2787,455.15073
-258.29718,1110.9274,312.8345
69.27048,694.8713,226.93962
474.03918,420.8406,97.977135
812.77954,278.68613,209.37717
1054.6532,391.08246,244.36685
865.8425,391.93295,226.12189
750.9658,337.78104,-6.683032
268.7236,1318.0673,99.12277
-396.4554,3238.1804,83.123634
-2372.9758,4543.391,82.23239
-2978.4937,3360.3877,337.3614
-2067.3743,1708.937,118.12057
-1637.531,633.16614,57.938053
-1119.425,-256.61127,-88.42463
-810.48706,-990.51654,-275.6249
-523.85095,-1378.5522,-327.7919
-670.54675,-968.5712,-104.14511
-742.2703,-774.3181,-150.08075
-1001.7438,-297.02304,-70.80841
-1614.1481,695.32336,18.120543
-2230.8545,2348.1,520.6607
-1800.8604,3633.963,817.53754
-1076.475,2776.6848,661.49536
-468.05884,1538.5884,443.18048
-117.05095,1103.7639,315.76556
264.2933,628.2551,200.91988
494.71338,287.9051,164.48193
844.7731,29.879189,121.1123
875.7411,73.171,106.14484
823.57263,155.30676,29.920013
596.4303,681.219,92.133934
-105.753845,2414.0322,346.53357
-1249.44,3879.8665,438.73358
-2100.3752,3388.148,581.4463
-1835.3242,2384.416,383.99246
-1447.9775,1231.5204,228.54265
-962.1741,240.3897,62.600483
-648.23883,-597.87787,-145.23396
-496.5371,-888.5007,-366.9352
-433.3009,-1166.9509,-349.46106
-687.4512,-713.2266,-99.48694
-893.81726,-663.7569,3.0952406
-1408.2046,291.33408,99.47338
-2185.0813,1466.0161,283.12808
-2110.317,3089.06,1034.5239
-1300.1754,3023.302,1187.3745
-507.74884,1519.5557,761.329
-116.49508,1112.2335,528.5293
298.4775,651.73694,442.8784
667.44037,429.16037,491.93246
927.5409,122.64167,374.17657
799.4649,192.00299,269.01312
546.8169,236.31334,128.79192
170.77965,950.3547,336.55045
-1023.9503,3005.3877,813.6396
-2069.3787,3443.8206,986.92706
-1835.7706,2508.5833,997.24133
-1313.7096,1806.8197,628.26013
-916.9159,778.9147,263.5047
-923.22504,292.653,207.35101
-689.0357,-547.6968,-55.250984
-568.36505,-722.419,-178.91914
-570.4386,-871.5466,-342.5286
-811.84045,-679.3036,-197.90186
-833.18256,-710.5891,-135.59253
-986.419,168.17578,159.93701
-1257.7242,997.4414,127.63641
-2172.9263,2447.273,1294.474
-2207.1401,3487.5996,1855.1052
-883.7782,1835.0687,1095.689
-353.39996,1321.7563,942.9107
24.009747,616.7192,588.32355
261.067,469.17438,426.96655
735.51843,37.101486,264.9857
970.1883,80.01487,213.344
944.21594,35.166454,165.93701
806.49335,280.90897,96.28584
262.4845,1307.7094,412.71024
-1182.427,3440.0852,1095.873
-2514.2642,3927.4124,1226.71
-2232.0742,2432.1663,894.3442
-1575.7202,1336.5575,454.93143
-1203.2695,518.9404,280.15463
-887.518,-141.31839,1.4829856
-697.81464,-844.778,-225.39606
-519.1193,-1023.4405,-373.2754
-615.98865,-869.9654,-248.06982
-763.4372,-618.7345,-44.68559
-870.0998,-320.08575,96.69053
-1487.3064,1020.6846,412.17575
-1912.12,2279.808,821.4162
-1590.2767,3283.0464,912.2118
-853.8127,2239.8232,714.82684
-333.5655,1344.1981,399.77496
-15.925102,1021.8081,387.9747
296.82236,704.2771,306.77527
759.4966,416.3994,249.5301
1109.0718,246.44801,278.0204
934.258,370.66196,237.37157
751.8424,401.03476,154.77577
28.041893,1704.4987,238.71127
-1022.287,3436.463,248.84473
-1821.1256,3988.0073,527.20483
-2139.2612,2994.1255,410.88358
-1977.1044,1626.3923,30.345245
-1536.8907,659.44696,8.533174
-1204.1957,-67.374146,-6.849286
-869.52277,-1058.4438,-258.67502
-684.05646,-1335.3019,-248.40213
-805.7072,-1074.5079,-7.631819
-937.8214,-725.6033,10.9840975
-1082.9111,-9.255386,97.47842
-1718.1863,1326.2904,199.89455
-2083.18,3060.223,829.5453
-1566.8364,3101.1343,1039.1476
-759.47003,1870.7789,624.63446
-259.3815,1190.1632,434.71304
44.049763,769.72174,346.07535
283.68497,546.2371,207.18837
536.64276,152.81647,120.433365
843.36224,95.04385,114.40778
962.2633,235.81012,74.22273
770.9239,645.8695,77.57587
298.67978,1475.7592,21.60045
-364.7576,3438.2322,213.46341
-1879.7656,3846.4458,406.83652
-2363.1838,3128.991,433.20288
-1724.5857,1623.2307,277.84726
-1235.4467,826.9519,253.95361
-1026.2775,-33.676727,148.03714
-776.00494,-742.8589,21.671698
-537.5741,-1457.5072,-279.21667
-765.53284,-1369.8855,-172.30426
-901.56555,-1069.2618,-95.3918
-1143.5222,-171.76273,-96.62018
-1684.062,713.75616,-347.9062
-2520.6846,3534.68,91.26638
-1959.0885,4167.16,626.9852
-936.2597,2040.1387,550.5978
-288.3762,1378.4915,308.27786
90.05625,738.9593,307.78607
286.3445,536.06854,352.26218
533.98773,186.34361,339.0983
947.3143,335.57727,212.63643
982.51215,323.40546,202.99464
738.4729,592.5171,178.24507
225.73024,1342.369,240.4953
-745.81964,3293.3657,389.27396
-2567.7546,3843.63,585.35693
-2652.683,2746.6423,367.80817
-2102.1213,1658.2911,68.87779
-1452.3937,597.4219,-54.694424
-960.34204,-155.38995,-105.58076
-607.52954,-1145.4612,-372.6578
-289.3799,-1914.7594,-490.76382
-533.7868,-1354.4227,-207.03735
-945.53827,-840.46985,44.180305
-1453.6989,146.8988,-161.97409
-2434.3328,1612.6936,-15.247873
-2480.665,3146.192,817.0682
-1482.4719,2738.1328,622.4091
-745.94714,1743.5839,463.06168
-325.66757,1230.4279,261.51718
-61.29655,805.98785,147.07007
317.66486,531.43964,114.50931
755.284,337.94977,169.67358
935.0949,471.47375,193.63054
804.6371,390.97714,143.22173
447.20734,621.3362,131.38959
-116.64586,1399.4865,130.93346
-1279.42,2988.0146,214.9122
-2513.5352,3349.0042,330.61905
-2456.903,2713.0168,85.41373
-1745.9312,1733.5394,-106.13124
-1095.8314,582.87537,-110.55404
-764.47003,-22.200752,-124.94696
-606.6641,-1042.5377,-266.14786
-425.06003,-1730.5137,-246.6561
-592.5217,-1237.1501,-45.77984
-910.80725,-702.5216,47.86461
-1157.733,-160.45335,51.61247
-1681.3652,1017.6126,-103.95323
-2289.6064,2716.4766,544.19226
-1940.2294,3508.2808,854.09454
-1049.8573,1955.6526,622.7585
-457.65414,1205.3079,466.65128
34.464302,741.083,265.2585
516.38745,497.0593,205.89517
834.5911,461.29443,177.2813
921.8885,320.4188,-32.510654
870.78754,255.22046,-95.51029
726.2283,382.73206,-179.18788
299.34283,1574.8773,19.460798
-815.7991,3752.323,285.62494
-2494.175,3399.1128,606.9219
-2619.4092,2692.6206,900.6073
-2058.434,1506.411,443.49048
-1404.6443,492.1456,297.05215
-743.13324,-212.95284,14.755375
-587.91486,-978.32245,-219.03204
-460.38928,-1057.3525,-264.49078
-501.47552,-1006.2295,-150.10912
-711.613,-697.0826,-214.48973
-1218.356,-375.89557,-40.916496
-2197.8657,776.3915,239.45361
-2620.4175,2331.3132,798.30817
-1919.5917,2876.4097,1088.0164
-860.1453,2181.1086,784.8396
-313.471,1281.0791,500.0047
62.86692,1097.8727,498.27618
505.7219,617.9828,303.2343
932.36584,426.65555,184.80605
1147.8108,221.31378,80.64286
925.62836,367.7929,86.82333
604.4083,470.89294,0.9083447
-125.10431,1834.1327,370.22702
-861.8635,3253.8838,532.89276
-1920.321,3770.5884,781.37415
-2452.721,3016.659,952.8886
-1988.4995,1739.7654,503.1951
-1331.7275,510.9107,190.34575
-931.6247,-143.24844,-11.879617
-704.5279,-821.1027,-145.06796
-558.4332,-1087.5399,-302.4962
-614.61194,-929.73254,-272.53473
-887.2932,-471.4881,-113.86717
-1137.6598,71.59997,96.357864
-1288.6078,604.62933,195.56761
-1637.975,1537.4114,477.6049
-1866.8143,2480.3538,985.8131
-1564.1027,2746.5867,931.7617
-775.4285,1827.1315,739.30255
-186.1302,1197.1771,475.3267
310.8314,933.9662,245.97557
697.3888,620.11597,124.56447
991.6811,302.11874,113.70755
1092.3595,233.40436,25.979877
912.5675,328.26254,59.310753
634.433,614.8066,-22.892271
-135.30792,2074.2925,333.7279
-1448.5981,4042.7666,675.6199
-2611.3022,3836.6013,900.7651
-2461.3875,2491.3518,660.2818
-1739.2075,1081.3551,260.36777
-1193.5876,201.85043,11.206085
-667.3069,-751.19305,-246.8981
-415.72,-1228.3167,-424.5051
-422.56635,-1195.5817,-323.2001
-666.45544,-826.87195,-235.938
-977.0955,-481.14478,-91.069824
-1399.2349,-168.48163,-82.7962
-2272.0945,925.4905,401.32785
-2609.8137,2059.3618,461.90723
-1934.2086,4077.709,340.07297
-872.548,2533.714,536.28546
-266.82867,1535.5756,237.30185
57.66467,911.1951,295.04416
336.1802,491.7556,271.0386
552.20825,63.684933,288.08514
1003.28876,94.16629,278.68103
1081.8579,246.57608,398.29333
895.59796,483.1138,207.10657
451.4739,527.9092,-65.10093
-544.31177,2947.1982,-461.55948
-2118.7168,4755.5225,-874.7261
-2879.9844,3201.7388,-502.50082
-2166.1497,2144.5688,-328.0263
-1504.7035,856.845,-260.64688
-1090.9105,174.86967,-115.19433
-889.0109,-584.8872,-124.65661
-646.1822,-1296.4109,-100.76445
-594.4318,-1498.5406,-100.05527
-873.02734,-832.3249,-77.32558
-1050.3414,-712.56445,24.73512
-1392.3749,263.59265,-27.003204
-2186.826,1517.877,69.067986
-2685.3474,3207.5867,668.88135
-1694.2008,3441.3826,493.43008
-605.9408,2134.7866,369.92484
-131.79037,1233.0739,189.71379
285.13675,890.6439,183.12022
628.43115,596.08923,155.89552
919.7482,307.18195,272.59344
926.1819,182.45561,163.77371
796.2892,318.17557,143.8958
698.68756,210.72316,22.01992
23.560106,1651.7673,150.71642
-1301.7737,3948.4424,495.64505
-2761.7883,4170.8247,617.2438
-2631.425,2926.8208,375.5884
-1859.4567,1302.0024,91.081436
-1287.771,352.04327,59.477707
-871.7713,-489.08575,-185.50534
-596.5354,-1549.598,-388.26434
-429.9508,-1439.4832,-264.76996
-567.1687,-868.8965,29.097084
-912.85516,-659.8363,-43.93164
-1265.6755,-71.48644,-218.48575
-2071.3655,1311.9478,-125.333725
-2481.2898,2839.7095,431.61066
-1742.7335,3398.8914,540.4176
-947.03534,2337.469,539.3423
-394.22162,1492.8868,469.23776
-55.914883,905.71875,324.6561
322.19266,588.2799,183.25345
682.29144,316.41943,179.53148
1066.4656,378.07452,290.55707
1063.8464,450.36502,251.73492
811.2968,429.72882,124.789345
568.1334,449.10202,-97.826866
-679.76917,2254.713,336.2639
-3004.7932,3890.2908,697.8838
-2872.2126,2816.2117,506.1661
-2059.4192,2037.1348,360.89423
-1323.3474,792.3287,150.82677
-767.22845,243.37892,-36.67056
-442.9049,-661.97534,-310.33716
-338.98254,-1086.3057,-362.52847
-310.52084,-1060.8461,-375.7513
-643.84174,-703.1413,-231.0537
-1033.2656,-550.6293,-151.186
-1810.9197,120.63329,-138.82759
-2439.659,1157.1292,228.90114
-2427.5684,2507.3503,952.29614
-1683.0977,2781.8752,887.09216
-751.26544,1746.2235,634.23676
-146.05121,1347.7484,478.62613
261.25613,1043.4473,386.6552
635.1682,918.976,364.79626
817.26605,520.06573,378.09637
951.5685,345.23196,246.27335
756.5328,353.1862,133.97687
596.9066,312.6985,59.57354
302.81497,604.09814,67.302055
-486.30243,3017.2415,436.66843
-2258.996,4126.5063,659.8703
-2513.5872,2854.2524,665.77386
-1734.0255,1787.806,329.63116
-1092.8136,675.2514,12.96035
-678.8266,41.838146,-48.67179
-575.93896,-722.0358,-197.80347
-462.52094,-960.2556,-266.05353
-568.88824,-992.1507,-197.04721
-850.07245,-737.0903,-208.05916
-1200.7628,-447.05786,-110.267334
-1809.9738,629.67566,-45.593662
-2316.916,2055.8813,225.82162
-2021.7339,3552.3154,421.60684
-1044.8811,2911.6753,423.27765
-317.59882,1707.2756,329.99634
14.573786,1110.683,324.10312
388.18124,668.29504,278.5234
663.5156,264.00018,252.86931
884.4351,100.904495,231.52954
843.58307,275.44272,204.61122
722.75195,247.6288,169.67085
398.9246,424.59805,-55.459354
-63.59362,1806.0173,153.33995
-1853.2333,4019.2952,501.7656
-3267.902,4014.1592,519.8281
-2371.6272,2329.5276,274.06284
-1753.941,1221.1095,180.66936
-1139.5118,268.31406,4.758507
-843.8421,-342.68317,-315.78323
-634.9491,-869.1474,-407.02472
-578.51215,-1064.5398,-319.12744
-743.70795,-1167.9825,-268.04904
-901.56885,-840.0827,-172.58504
-1092.7595,-225.44206,96.03334
-1708.4727,1577.3346,515.5105
-1890.8928,1998.6897,904.9755
-1768.7317,2889.1035,1155.5638
-995.5865,1931.311,763.54407
-617.6369,994.2813,503.7458
-158.77086,715.0776,317.95645
150.80621,453.65518,250.89857
700.75165,364.64038,153.46796
894.8965,226.3513,136.05219
763.44836,250.64224,169.90044
542.7816,410.55096,168.30417
-126.64825,1692.5834,428.0942
-1574.5027,3403.0408,876.96375
-2693.2783,3299.8472,954.819
-2458.7686,2393.5205,707.5956
-1843.7561,1549.2726,305.61725
-1287.5283,503.72208,210.66449
-823.3088,-256.4026,-155.03796
-541.9459,-1166.2942,-410.1998
-394.63333,-1263.8676,-427.26477
-493.40997,-1107.8151,-186.30911
-708.0313,-642.9481,-225.55731
-1055.882,-242.48341,-19.22544
-1691.1826,1503.701,338.65347
-2327.7134,1937.9431,1180.9425
-2124.206,2806.8071,1321.6666
-779.24023,2571.1362,933.26764
-297.22827,1141.3744,789.46204
54.770283,688.407,545.66754
504.35657,490.82443,451.07727
958.2523,272.16312,402.88617
1084.9409,-36.129616,307.64417
854.5914,18.69421,110.562485
557.3738,-67.000725,-23.087294
240.6763,1182.5887,119.61959
-1101.7535,4101.29,701.6642
-2446.2373,4032.626,826.9386
-2155.5105,2547.5225,707.36786
-1532.7971,1158.5349,308.29218
-1011.1876,284.5161,121.97056
-769.9126,-264.9806,22.804354
-514.87805,-906.3223,-181.57242
-441.05994,-1126.4834,-329.0941
-506.79327,-828.9482,-104.252884
-723.3668,-569.5471,-88.43138
-897.9875,-314.03094,29.158964
-1693.0573,474.41772,272.0919
-2473.844,2400.6255,951.7426
-2197.9744,3152.9067,1131.8348
-1480.7413,1835.6294,672.5499
-574.82794,1427.7767,221.51689
-82.159966,1041.7867,224.758
260.96786,795.5234,143.1264
493.7217,413.7864,128.02258
904.63007,186.58327,-28.87174
1015.8639,387.09814,-60.63385
856.3155,492.8153,3.9493842
315.42633,1050.7157,1.9005642
-344.63043,2480.8633,-97.81963
-1379.3575,3542.6548,203.0934
-2945.9272,3614.633,327.8991
-2536.43,2458.5745,308.1599
-1678.728,1288.2551,206.01126
-1226.8302,488.72528,184.24599
-788.3279,-346.07715,159.45691
-465.24506,-1388.1211,-116.0069
-354.68323,-1417.5547,-61.595333
-504.6969,-969.41156,94.98499
-664.53876,-459.80475,52.629143
-1155.7009,-132.06682,-28.955025
-1926.7618,872.6763,-358.0543
-2793.4666,2362.2075,112.06942
-2392.317,2901.143,69.11812
-1153.6919,2276.4558,-312.2478
-498.13406,1647.0171,-241.73161
-31.573359,1155.9259,-145.49768
324.68246,778.0218,16.290398
624.16864,486.13782,55.921253
924.34796,315.96188,26.150564
973.19855,256.15628,-43.33417
714.119,446.75406,-81.5003
352.33975,752.1153,-493.589
-660.51416,2376.3772,-529.8527
-1751.7107,3459.9102,-546.22815
-2430.6138,3310.8271,-340.15048
-2407.9753,2522.5933,-181.36328
-1826.8204,1200.8077,-24.186216
-1165.4703,295.01163,-11.428522
-826.9677,-581.97107,-135.41594
-586.1903,-1448.2396,-163.0551
-433.70157,-1270.2115,-108.939804
-638.5895,-787.1774,-54.578316
-868.15234,-566.5478,49.105206
-1256.9148,-48.047283,52.654816
-2042.4755,1087.9423,188.18292
-2444.0205,2294.7144,585.2998
-1979.0212,2804.6775,531.2488
-1230.4716,2164.2888,418.98602
-664.88275,1359.8436,324.39822
-210.2417,984.6351,159.99243
395.50922,862.4125,130.46107
947.6633,511.11276,234.78703
1255.7633,330.42313,205.84677
943.312,316.8221,215.20665
643.0224,470.02896,47.215065
75.46391,1280.2598,-21.6865
-1044.1737,3069.768,300.1409
-2764.2458,3965.2295,504.77512
-3014.6528,3123.6545,473.1657
-2305.5278,1685.1049,258.2474
-1704.7804,669.45764,158.16559
-1278.0408,-12.1465025,-12.911636
-863.7362,-1195.5824,-299.30527
-565.5533,-1471.8302,-393.01263
-627.6763,-1135.925,-141.039
-746.3604,-998.8191,-144.0197
-1002.0969,-451.1606,-68.27188
-1484.3334,52.48668,-18.337978
-2385.3567,1540.3372,379.77686
-2628.4658,3342.035,1012.4677
-1600.9843,3070.1946,615.63544
-631.65497,1818.7164,596.25867
-219.03355,1243.4225,573.4851
333.32074,856.7174,441.3248
618.71484,559.4302,399.83145
907.0691,224.4474,452.94385
994.1203,351.0407,516.11554
831.0095,251.0158,393.19604
480.53568,916.472,97.85421
-452.65582,2934.4355,-12.759683
-1480.5712,3996.8567,-522.73035
-1844.0187,4023.6516,-647.4997
-1678.3596,2836.6958,-411.9192
-1208.7152,1355.5211,-292.39542
-756.0906,564.7877,-40.76744
-764.4911,187.05556,-32.570793
-855.5691,-78.46178,104.10862
-857.09534,-254.06873,194.15001
-602.034,-208.67522,196.65376
-545.5849,298.0148,186.20297
9.430831,793.55115,435.86978
675.61725,1015.3477,589.49365
988.8735,1416.583,1124.4983
1283.8563,1989.4591,1385.3593
1104.1344,1449.0941,957.3656
855.0528,524.67255,635.4106
415.77673,202.7011,342.32278
373.35626,-356.6915,36.399708
131.80334,-444.7529,37.792236
47.06579,-325.79416,-44.789852
124.65574,-134.98666,-209.98412
220.87328,-100.36555,-305.28107
322.32526,13.649624,33.29944
956.30383,-64.756966,65.61825
1449.9554,433.06207,-238.66684
1744.3033,1307.6393,38.02689
1333.3899,1637.8759,205.56969
762.7806,1632.9575,430.65295
239.33644,1188.9879,642.3181
-200.87021,386.89468,532.38745
-582.54846,-32.00235,285.8477
-689.62994,-143.79744,264.83856
-856.09845,108.61459,121.3371
-1102.8351,290.24622,-9.0661335
-1296.0182,601.74615,-180.27914
-1751.6848,594.6062,-112.647606
-2048.7898,2771.405,-289.88422
-1544.3389,3363.9272,-512.3221
-1030.57,2211.1172,-319.28568
-403.21136,1498.4683,-333.51694
-49.413986,946.5216,-296.49252
282.2113,658.2409,-293.81915
559.7076,322.86237,-213.12338
973.84595,140.21645,-116.41187
972.2229,144.05766,-124.417694
747.8582,183.71178,-163.44579
237.42099,1029.1803,-305.78122
-681.13666,2803.6343,-415.69736
-2013.162,3547.7168,-174.0253
-2450.216,3229.7537,-1.1781806
-2143.8342,2226.1853,130.17087
-1593.2283,1092.3899,239.31668
-1153.0831,-31.12688,169.09274
-685.84406,-1329.868,-263.87457
-466.8403,-1523.0077,-221.28853
-487.8322,-1037.3787,-108.90988
-659.8874,-741.7185,-240.43889
-826.1163,-339.9143,-186.23444
-1322.6224,513.6027,-92.6132
-2021.9048,1604.4075,369.89075
-2248.5596,2914.3364,685.1738
-1648.0608,2600.491,452.36017
-818.8509,1512.1575,529.11536
-284.9547,1128.7876,360.10562
171.86319,895.5408,252.25801
529.4813,616.9256,232.96677
852.9157,449.96805,264.67233
974.64655,191.14935,134.25494
733.02246,-102.15851,90.690155
410.46573,387.35422,177.88538
-253.70677,1703.8259,750.08563
-1400.7762,2974.4568,1190.7069
-2167.2944,3223.0745,1142.99
-2295.4873,2450.7417,1069.979
-1839.993,1345.4467,446.98517
-1200.2233,611.35156,175.33177
-837.02045,-126.50325,-174.50667
-650.13745,-792.5642,-379.33554
-571.5321,-1012.3408,-356.23187
-608.5093,-1021.23456,-370.29333
-813.1567,-690.5776,-188.16931
-826.0932,-324.13165,-33.703007
-1159.4443,851.27246,400.4052
-1433.8307,1406.9254,798.72327
-1848.7378,2546.492,1318.1819
-1328.0693,2730.0183,1225.2664
-693.2241,1617.8042,994.24316
-323.37064,956.46436,668.15356
24.204342,499.04694,491.67133
387.91034,213.85806,294.99374
781.0189,-57.309334,243.35588
959.6687,-21.343279,156.5869
744.7257,258.05075,125.228386
562.76697,305.60983,-18.781271
-11.01385,1752.3939,231.61024
-1101.8789,3711.79,499.49435
-1829.262,3338.044,492.81363
-1921.9525,2692.4028,605.2415
-1464.0913,1643.9027,336.2444
-908.602,491.5064,176.91193
-636.48364,-323.11002,33.915295
-573.988,-477.2503,101.66068
-638.7685,-767.24805,-118.01367
-769.3385,-693.29614,-177.52626
-1001.4662,-404.61926,-137.06856
-993.7878,-181.81206,-8.263573
-1281.5046,794.9998,115.307526
-1271.9591,1416.9512,548.94635
-1350.2635,2139.047,713.97675
-1147.6526,2482.5063,532.8042
-705.358,1851.0,320.46136
-258.43143,1582.8597,137.95853
165.73795,899.3792,52.739525
629.3231,695.79803,97.425
1041.1549,493.00085,126.992004
977.6881,337.47205,68.021255
706.2397,309.80444,13.594498
356.88464,323.60773,-92.96881
-651.9745,2613.0718,-421.71637
-2468.7803,3918.5642,-83.397736
-2589.6033,2994.2603,263.22052
-2044.8918,2193.7715,96.24669
-1637.5137,759.3672,91.734375
-1098.4651,144.01154,94.17618
-834.93854,-793.8119,-8.3171215
-551.4274,-1241.2897,-184.25946
-512.5726,-1237.5554,-126.47765
-704.1916,-798.28125,-201.38898
-855.855,-664.8535,-40.827194
-1242.3245,61.33208,53.557583
-1990.6855,1344.7708,217.82693
-2239.078,2692.2637,761.6949
-1607.3495,2819.1868,659.5964
-786.4573,1937.808,546.8394
-479.7755,1205.8224,423.76117
43.282917,710.6075,245.85292
492.44638,558.1173,160.0129
895.25525,464.00067,294.863
990.3736,250.47021,201.78658
802.54126,310.20715,151.9647
425.82385,596.08276,-6.361576
-352.78717,1891.4366,194.48756
-1702.332,2739.7612,455.56845
-2242.2932,2955.5671,411.39755
-1902.159,2155.4749,358.74548
-1564.2076,1327.4465,200.362
-957.3454,433.9658,151.89424
-517.36,-21.567524,-94.19774
-350.68896,-583.7821,-206.56638
-345.80316,-854.2384,-260.03116
-601.3425,-725.3126,-235.54808
-1142.8743,-522.6703,-338.7179
-1419.6239,169.33823,-97.670746
-1695.7837,1316.6499,315.4302
-1727.4077,2189.5803,749.65106
-1364.801,2811.8328,955.96576
-596.38666,1804.2997,759.67426
-179.93985,1245.576,563.42175
181.28291,647.7839,389.3372
419.78528,436.64066,371.79575
804.605,20.111235,191.07635
964.64966,68.35457,41.5638
851.6028,-72.538536,-75.17649
343.22134,1084.295,98.942535
-263.49008,2341.465,475.4114
-993.6501,3127.9172,550.7204
-1602.9313,3435.9014,523.5881
-1608.8135,2544.301,335.81827
-1210.6271,1502.0258,287.34424
-870.3524,460.54346,146.93086
-652.6288,-249.36545,-57.842083
-555.2171,-840.15967,-281.8235
-474.0944,-1164.0426,-407.0721
-691.3793,-762.0634,-213.79176
-834.68353,-664.3999,-126.11905
-1311.7727,200.77342,10.691924
-2138.4958,1538.941,425.21057
-2185.3184,3186.2488,740.0283
-1257.7114,3113.7456,845.32715
-387.98685,1652.621,677.26855
4.9486146,1147.1738,402.12357
327.3987,789.1078,432.75732
717.4522,335.957,292.16504
1068.787,18.211695,140.13072
1034.8561,177.2172,143.25377
781.6421,388.09085,156.31258
356.04932,1269.2975,117.5563
-732.5028,3184.9636,362.02866
-1901.7177,3498.436,462.03888
-2131.1455,3023.2927,494.22806
-1907.9086,2193.001,314.00766
-1233.2513,1062.3905,141.08362
-850.82245,307.60846,50.261967
-606.49585,-376.31094,-109.31079
-573.6218,-810.8265,-156.34697
-596.80536,-1019.4177,-211.76414
-787.60516,-838.0602,-168.81102
-849.70123,-556.0582,-82.0332
-973.5995,-111.5041,153.7464
-1610.3156,1208.0394,369.97406
-1846.0862,2302.9075,600.43695
-1579.828,3594.6313,830.4124
-645.02386,2170.9832,696.39905
-386.00528,1472.7361,515.2154
-61.437275,1085.2753,260.423
242.93454,707.8884,231.15482
630.4749,210.54659,233.86334
1043.1581,199.95421,323.1321
1083.4966,160.09349,302.4903
806.9591,452.7846,134.85294
321.2547,1427.4902,158.99017
-681.569,3145.0112,389.42825
-1594.9586,3583.2427,630.49475
-2065.4473,2917.7366,705.41125
-1988.6311,1818.4386,450.91782
-1665.4955,887.2664,249.03949
-1144.9016,-88.36826,-44.7135
-838.1125,-802.9639,-248.87798
-544.71716,-1430.8461,-386.6325
-600.28204,-1260.4662,-241.05034
-863.3241,-994.2929,-25.317913
-1167.0922,-93.317535,105.95835
-1961.5317,1199.9012,281.1732
-2437.1929,2744.6353,676.0955
-1839.3329,3291.9253,477.02634
-736.0572,2059.1562,326.4377
-264.24615,1538.0192,164.31152
196.89516,977.28503,9.996836
566.7591,790.4186,88.925865
979.26184,430.34857,173.18933
1106.7399,351.91028,112.429665
878.45807,406.0108,38.348835
521.263,759.78564,-132.73465
-306.45706,1878.6803,-501.55353
-1586.5647,3257.1372,-178.24953
-2054.5674,3018.6619,296.67575
-2200.6992,2593.0427,-19.990509
-1825.9993,1525.7544,-60.780415
-1049.469,555.1086,39.078682
-638.6925,-101.52784,18.160439
-421.24313,-824.5887,-100.52155
-412.7049,-1274.3202,-312.4488
-622.5181,-1193.2975,-230.88472
-991.0394,-725.33484,-26.520113
-1147.9005,-441.6864,-274.93945
-2048.1938,891.3688,-424.3202
-1951.8419,3038.7407,137.6086
-1481.9108,3090.0369,316.9728
-878.25885,2258.1804,-127.364944
-473.6827,1700.8433,-67.605225
-138.10419,1137.8872,139.11435
96.6424,690.3967,194.49965
669.6227,168.50307,48.8284
961.0469,160.22075,116.43048
997.8835,50.207375,144.24977
657.7138,102.80664,207.66182
412.71613,443.35773,-114.67769
-1673.4363,4046.3708,-1081.42
-3184.2214,4291.4214,-398.0043
-1893.2975,2478.2144,-418.23727
-1567.0725,1233.9491,-336.52164
-1020.7273,131.60654,-26.260557
-719.52167,-185.05266,-56.53907
-428.91037,-1123.7184,-170.57864
-283.73898,-1391.1453,-295.1122
-545.6908,-1033.9521,-184.73978
-985.87756,-720.81604,-188.43657
-1334.6647,137.47307,-84.88393
-1874.6521,1434.7236,-112.25393
-1831.5912,2376.277,436.0695
-1598.929,2528.5012,565.77
-861.9075,1997.795,276.34366
-430.73505,1547.0359,189.1125
-37.22546,916.7269,198.14534
370.0143,728.1511,139.24486
806.8871,459.66083,107.84627
962.46106,421.20612,144.19972
803.5328,416.98813,106.551384
620.06604,726.14655,-37.482513
-501.4563,2637.9163,-301.8763
-1705.5312,4432.214,-106.42841
-1971.9037,4031.3518,249.32687
-1801.8107,2359.929,85.37638
-1322.8593,875.77075,0.87499994
-1038.5197,100.86542,-79.0507
-829.4752,-837.53314,-242.38953
-744.5483,-1352.907,-347.11063
-789.3531,-1287.2561,-59.856358
-966.2409,-831.06116,-34.288902
-1036.8341,-151.35132,-329.78287
-1296.0541,398.94473,-53.44539
-2432.8071,1040.4541,1403.8799
-2290.9087,2891.338,1682.9485
-1256.2769,2803.427,1649.1772
-574.91034,1290.6211,1320.896
-159.91724,891.2888,746.88654
203.85678,701.8669,492.55017
505.41586,494.51367,396.83057
899.3851,136.90903,284.5627
984.05347,269.41364,196.1283
812.3429,596.5333,117.59761
291.2049,1302.6552,378.4903
-94.37991,2285.874,357.2932
-844.1537,3628.5881,533.9442
-2144.6428,3405.6145,924.87036
-1890.8259,2221.6538,428.7653
-1486.164,1080.033,331.0569
-1173.3179,125.2765,132.19412
-912.0086,-833.8715,-125.876884
-656.01306,-1266.8162,-293.03006
-704.6393,-1269.9911,-39.551468
-882.1494,-839.72766,51.064293
-1031.4991,-584.8289,96.9694
-1607.5927,844.5906,123.13158
-2193.9731,2227.4465,435.89233
-1929.2762,3373.2478,743.3086
-995.0753,2756.4548,675.7682
-310.2829,1463.6425,523.7135
-21.259468,1136.4645,327.17523
326.95792,693.74316,145.10922
504.83514,448.7811,89.49363
790.17346,104.02189,111.44502
881.6433,262.6551,67.16869
881.133,244.38039,-9.132908
588.4602,862.21936,-120.62226
-644.6453,3379.023,231.63121
-1512.1536,3756.6577,418.17194
-1915.5026,3228.3862,769.9385
-2016.0245,2202.7983,546.5659
-1322.7242,819.68463,1.1741514
-887.1123,172.82506,-117.99401
-607.9373,-403.11087,-123.58284
-512.5858,-662.5889,-237.30826
-532.2219,-949.1054,-364.35803
-981.95636,-597.442,-266.44214
-1013.3962,-662.5534,-128.65073
-1262.7896,192.6267,313.79034
-1639.0868,1674.2725,722.3943
-1653.2985,2815.7107,1321.6794
-1212.1116,3007.5742,1618.099
-501.83154,1609.1147,1203.0248
-44.878483,930.34503,733.89856
244.19638,540.18646,408.19046
502.17896,397.27203,243.04286
779.1263,374.48975,199.29622
981.48004,462.738,116.94743
844.44116,379.19162,2.7055027
846.424,521.8218,-114.17334
207.00804,1724.4237,429.35394
-648.2062,3488.1694,936.5469
-1849.3859,3942.9917,1340.827
-2186.6025,2633.7083,1197.6357
-1797.4059,1553.3577,684.5488
-1388.9575,642.3879,273.53296
-1045.6775,-379.16895,-120.55702
-784.04065,-1163.4032,-429.94473
-565.23096,-1256.7448,-452.6503
-746.817,-1003.445,-113.51852
-911.3753,-633.84094,-2.5089023
-1140.9896,-193.38051,56.957867
-1970.1327,1330.6654,695.03564
-2183.4197,2390.523,1063.2782
-1747.1931,3413.404,1003.1216
-788.95526,2222.6143,965.1642
-367.23288,1135.1327,529.7
88.46417,734.3063,353.6362
515.65106,471.73776,264.37357
1085.2976,253.75186,338.29477
1087.3573,82.76659,194.09155
856.6658,228.4215,128.6664
472.81705,238.07304,-20.758165
193.53745,1383.8749,-27.453197
-1101.9319,3907.7263,417.51062
-2390.8372,3743.6353,360.566
-1914.5928,2477.1052,213.17479
-1556.0222,1374.1425,209.12817
-1127.3323,453.0677,111.33113
-930.83136,-159.08446,-0.24773426
-615.9198,-831.2255,-206.22003
-485.55432,-1144.6969,-141.26959
-595.3884,-666.0594,48.99801
-698.9366,-601.7181,85.29099
-888.6879,-102.30275,127.71858
-1493.836,857.8057,295.6864
-1884.0718,2388.3706,613.11487
-1760.8104,3334.5818,611.76154
-1124.1969,2082.3047,372.12155
-566.7233,1155.0646,265.59625
-88.78873,593.9156,314.79825
315.68158,369.00793,262.1928
831.3924,1.0896033,195.77423
1031.0123,80.76603,276.83
784.10065,331.28918,286.1765
639.44366,417.3021,33.86743
-170.62569,1852.1211,26.01009
-1267.7738,3112.4607,401.57797
-1527.7656,2720.0266,326.31522
-2044.1243,2176.3135,414.90005
-2073.9485,1073.1293,85.22482
-1469.5232,464.9086,-71.02094
-782.8778,-350.24777,53.46785
-306.5308,-668.8543,84.21498
4.672773,-896.74536,-77.58161
-125.2338,-761.21375,-50.776665
-420.27838,-490.93655,-57.54077
-967.32324,-222.94075,60.901073
-1895.1921,183.25336,-262.05273
-2923.0854,1494.1583,443.06085
-2618.5027,2066.2354,1056.6724
-1569.9928,1840.4049,452.57806
-790.2798,1449.9814,480.0133
-332.0877,826.3287,535.54956
228.61276,632.1674,508.73743
669.4855,610.22894,538.8447
940.7075,385.3099,623.5946
896.4045,163.00336,348.60883
684.7942,479.07077,-162.04675
81.09007,1694.74,-223.89444
-815.73364,2654.6426,216.90758
-1846.6443,3305.0005,230.2358
-2541.8364,3124.5232,330.9955
-1983.0156,1874.7666,253.64465
-1514.6111,891.40015,279.5058
-1043.8999,-151.00888,13.338149
-800.6278,-968.366,-184.24986
-571.4081,-1440.525,-230.24928
-731.4888,-1291.3013,-24.196615
-915.20636,-717.9389,-53.37551
-1102.3654,-462.8689,162.82382
-1593.6006,439.8283,319.68655
-2197.4175,1437.5756,979.9783
-2335.4849,2820.2363,1103.9493
-1401.9116,2821.155,809.8495
-558.13916,1631.387,605.86816
-115.31669,888.6852,255.33037
332.29633,590.69965,41.311687
574.7339,330.37646,-33.86911
798.6583,48.86474,-64.889694
706.21356,209.9386,-45.241405
522.15814,400.9557,-61.892033
-332.3667,1690.5919,115.18262
-1176.2738,2858.8489,329.1226
-2007.3834,3262.9707,546.54224
-2017.1135,2719.4668,585.67834
-1520.4457,1673.3837,455.97696
-1128.6539,753.40186,381.4628
-875.5538,-369.62888,39.594303
-668.1005,-1385.6631,-277.37363
-618.78107,-1668.5444,-175.7584
-837.55426,-1233.4573,-130.30379
-1117.0732,-838.2361,-132.1209
-1658.2533,156.18727,31.79505
-2489.8625,1741.2397,661.1562
-2322.0837,3107.9355,922.5185
-1240.7009,2619.9756,753.96747
-485.93158,1286.383,607.26044
-70.09593,807.4314,409.9256
330.53128,567.09546,352.02634
673.7932,468.63068,366.26178
1039.3047,208.12038,224.4667
979.2838,324.42218,65.45861
747.5009,742.07367,102.244865
-38.698956,2016.2668,171.68564
-864.19476,2719.022,254.34033
-1853.4465,3630.8625,501.96997
-2412.8774,3125.119,565.1107
-1999.6461,1821.2795,253.24187
-1431.2056,716.463,99.12978
-1071.5936,-280.11218,-168.7729
-758.7154,-1403.3264,-567.8272
-510.78745,-1539.5797,-538.8275
-631.6238,-1183.9353,-173.52982
-810.86646,-673.5922,-135.36441
-1129.7496,-183.82588,131.84497
-2128.106,1075.5613,860.9893
-2241.1055,1773.0721,1342.2267
-1749.2008,2329.0398,940.7897
-856.06836,2102.3381,703.35706
-423.51785,1435.6603,566.763
-82.63089,985.51166,383.9117
208.77791,699.40497,220.14688
800.208,613.6146,282.30307
1065.3948,815.0768,205.18872
1036.9594,785.9424,-163.81567
460.03796,751.24023,-142.7131
-388.14343,2022.4609,636.0189
-1735.3765,3257.1716,863.8502
-2738.6667,2804.963,867.12415
-2169.7917,1885.4661,765.1773
-1584.1545,1312.8776,396.9733
-1134.5654,558.27014,21.080801
-846.04694,-134.46184,-165.5938
-573.7363,-637.71356,-381.31876
-530.65424,-863.2001,-406.89676
-618.0414,-853.45795,-209.37029
-692.08405,-770.57764,-117.42295
-714.8493,-258.55045,42.183136
-1372.7695,587.8715,527.291
-2125.118,1674.1869,1311.8368
-2109.6494,2651.6846,1827.841
-1134.2823,1794.8848,1329.4813
-477.15436,1059.647,1038.5475
-125.563095,741.3283,752.76025
291.85654,558.2337,493.4439
658.84326,383.22604,315.73984
1122.0956,251.50542,275.6329
1140.0831,230.52077,220.46837
944.21497,290.02222,121.060844
550.6674,987.9149,155.84357
-213.24588,2538.6858,501.04514
-2010.0004,4609.6274,878.01337
-2456.8264,3339.9893,621.1389
-1724.0382,1819.1583,272.4905
-1427.9185,899.64087,195.99002
-960.5673,132.80852,-77.160995
-749.06964,-552.0407,-218.4846
-569.2492,-952.7868,-304.84225
-614.3289,-905.31885,-168.63177
-708.64185,-790.7549,-56.267353
-794.26807,-569.7819,114.06203
-1103.091,320.72415,180.06087
-1872.4941,1501.3478,628.32556
-2013.7667,3067.2383,817.49304
-1286.5669,3047.4905,834.95526
-515.8867,1672.8297,715.1463
-266.20007,1102.7466,544.89166
213.72156,426.23083,312.90326
592.8775,406.81808,114.412094
802.9019,91.09661,178.04451
677.82056,420.842,331.08102
471.3007,414.28067,240.87448
109.87016,1265.3381,143.25554
-348.97043,2064.6187,266.8997
-743.0786,2796.7283,233.25983
-1659.1783,3511.0906,418.93835
-2264.0889,2722.1252,387.22623
-1838.7262,1407.7177,245.33092
-1319.0669,335.0188,13.030491
-791.47253,-526.2981,-263.88058
-686.6309,-1068.5188,-226.36833
-441.44797,-1240.3357,-135.88818
-629.44135,-977.1979,-11.39086
-914.2844,-780.7394,-68.353455
-1245.004,-61.557625,83.848755
-1831.187,1003.317,6.295742
-2402.3816,2213.564,507.9144
-2081.3013,3011.0164,756.9972
-984.06055,2177.4146,578.06335
-534.63434,1425.6423,554.51587
-36.91732,960.0221,465.08322
489.71237,516.4607,301.29932
969.42377,293.93268,346.835
1076.6385,60.077675,279.16342
956.95026,439.83774,201.53293
697.7088,46.117985,-358.4003
-422.09573,2668.5107,-47.683434
-1944.1913,3892.2268,484.79385
-2655.4465,3422.5024,172.66472
-2569.7659,2777.5574,-19.99412
-1881.5127,1214.0198,82.91787
-1320.6927,422.76294,-124.751945
-1053.5168,-197.14983,-193.09984
-902.32806,-554.6449,-104.50068
-519.2345,-1285.572,-241.78244
-504.7311,-1280.1929,-243.23138
-730.3254,-1047.1296,86.4112
-899.2928,-570.80914,149.82323
-1710.2821,1296.2129,402.32803
-2364.1453,2969.4255,590.1061
-1536.539,4042.83,1157.5049
-577.47687,2062.398,1175.7502
-167.52133,1316.4327,740.5906
158.20885,506.3782,496.2688
441.0113,48.308224,268.68036
856.92017,-31.659925,160.12991
1050.0371,176.74226,79.372475
806.54956,72.795135,74.73632
586.25433,300.03195,58.092426
164.2347,1106.6128,351.4505
-1206.3605,3340.2405,977.79236
-1884.9089,4004.6238,1154.5565
-1353.8593,2546.3193,1140.3855
-1202.9751,1785.0964,939.586
-1014.3476,826.53674,581.9725
-885.6381,113.89372,233.29216
-741.78894,-443.10605,-103.50322
-784.0138,-920.18115,-364.4219
-735.4073,-1156.8562,-472.386
-946.3368,-823.66547,-133.0324
-829.99896,-508.9652,264.6437
-1487.7087,966.7587,806.52783
-1570.8375,2568.9136,783.46246
-1729.2812,3667.5942,438.93246
-689.41327,2619.922,270.38132
21.977556,1208.7866,178.33374
194.18845,710.29443,127.72421
474.00677,438.45718,203.79347
666.4486,336.47876,183.3817
939.67633,121.73978,77.68852
881.399,105.5301,7.9090285
636.90015,151.39073,-171.64963
38.0106,1903.0127,-508.6873
-1286.132,3662.4897,22.851742
-2413.339,3501.8774,336.75183
-1954.5477,2399.5027,237.35367
-1666.5269,1298.4891,186.92905
-1140.2756,615.75714,87.68853
-827.695,-175.20485,61.966694
-538.111,-894.60205,5.558097
-480.2064,-1256.9828,-18.412811
-462.63077,-1004.7311,91.25761
-822.1642,-661.27234,39.038303
-953.64484,-218.33018,92.057625
-1692.373,1495.9805,34.843407
-1859.2998,2162.0552,313.75357
-1634.6495,2681.066,537.4353
-898.1157,2237.1572,277.8733
-518.9989,1772.3846,150.93628
-252.25589,1342.6719,118.18884
81.519554,590.0802,133.01968
399.49603,301.57257,17.081373
764.9189,74.98846,159.28087
962.06976,99.862,230.93253
755.47656,153.73938,276.14944
556.6523,363.6084,-15.492433
-293.69916,2190.2646,-2.8107471
-1633.1492,3429.9348,266.232
-2003.0186,2703.704,270.91068
-1548.3683,2014.7062,178.57957
-1367.9597,1095.7238,181.05026
-939.92554,331.68826,106.0683
-595.548,-548.63214,-88.05075
-305.49863,-931.00116,-124.23574
-367.15936,-990.69885,23.970673
-530.9245,-677.2368,-54.314297
-890.19495,-509.55658,6.159713
-1339.237,182.87003,-110.760216
-2190.0488,344.81256,183.47356
-3331.8245,2163.4736,311.0843
-2261.5608,3020.7551,-204.40538
-931.1029,2040.4196,-9.076912
-293.4976,1258.5684,-167.68666
210.49986,873.14435,-221.51044
618.28503,811.02594,-95.89703
932.6973,594.98364,181.57533
775.32983,584.7566,369.7158
666.6133,436.55862,272.65427
189.35063,986.4543,-200.17896
-491.83945,2254.9795,-208.92671
-1406.9802,2481.235,147.55148
-1997.5646,2758.5005,380.83334
-1682.9775,1848.3467,98.27124
-1406.0905,1052.8555,182.55188
-795.96356,-108.212204,-61.4568
-498.20078,-766.09845,-211.98929
-432.85138,-799.0823,-69.46242
-485.90167,-768.80566,-34.97683
-715.40405,-713.28284,-165.58499
-893.76514,-478.07315,-94.39727
-1451.396,172.54881,60.64329
-2203.4934,1542.4166,358.68277
-2473.3953,3142.7903,881.9949
-1510.2513,2310.2046,847.6429
-594.1513,1157.7013,657.3243
-150.60051,517.70844,475.65378
230.72783,384.42767,392.79257
474.6285,359.05826,390.739
741.27625,226.07985,333.84805
666.11346,216.35294,224.88321
537.1575,325.70056,57.463963
125.84328,1114.5828,-17.895905
-580.00415,2506.878,161.23384
-1489.621,3160.6887,222.76495
-2130.8933,2972.3508,226.44814
-1818.7369,2051.6348,122.522354
-1418.7482,1404.2203,139.46146
-894.24396,842.902,120.870705
-500.18753,-206.48152,-81.440186
-462.8336,-1351.1395,-359.2824
-530.89856,-1472.8232,-138.15288
-844.2613,-1230.4994,-95.266495
-1085.0404,-600.3612,48.688656
-1388.562,474.63995,103.280304
-1637.7284,1481.0277,325.58502
-1819.1202,3306.3308,997.9776
-1263.4036,2723.233,743.43195
-460.92026,1541.6875,631.6485
-121.578354,1073.8893,646.6315
199.89589,545.3751,626.6361
438.04077,27.42134,493.34982
564.00494,-228.77495,402.91296
514.4836,-82.789665,283.2069
378.01596,22.922794,196.03654
184.93266,198.85431,120.03695
-321.3525,1605.15,287.4606
-1394.1244,3268.9917,604.31335
-1777.4089,3248.9446,478.49463
-1745.9268,2647.345,503.50528
-1356.1831,1652.288,291.0428
-907.4672,600.9376,142.27159
-666.5528,-153.3104,-3.635944
-511.5488,-596.13617,-34.808353
-330.3424,-936.725,-167.0681
-458.5171,-846.06726,-86.761154
-749.8455,-702.0252,-94.65894
-890.6102,-475.3592,-68.33802
-1460.5057,449.7488,-66.1289
-2044.1274,2251.3083,469.5765
-1785.6107,2796.651,777.0039
-1077.3623,2469.8845,765.2527
-391.78482,1622.832,759.82776
-184.36307,1215.7727,658.5976
123.414024,522.3408,442.29453
407.45895,207.72743,252.3326
796.03674,7.83396,218.24901
776.87823,191.02863,181.98282
670.30096,4.821477,120.26958
224.72208,1057.6543,212.14853
-616.8141,2671.782,648.4492
-1844.3617,3585.7852,1143.0406
-1901.4401,2864.846,983.59283
-1392.349,1808.2373,399.4219
-1014.5859,940.067,180.05225
-766.2859,255.58426,58.83447
-630.6062,-302.00238,-75.59776
-539.1687,-874.40076,-234.2358
-543.4305,-1068.5138,-301.04282
-721.1173,-859.05164,-258.21442
-914.7749,-693.4107,-14.801428
-1454.4432,543.135,199.95776
-1993.4459,2119.6035,615.4305
-1743.9486,3211.8599,1000.3142
-887.36743,2613.294,894.696
-227.71468,1387.1799,598.4102
89.54327,1079.6476,470.43335
424.32986,627.658,360.98337
683.3671,303.44714,199.74469
933.166,-40.386967,107.874916
760.98505,208.8734,100.62919
647.8344,228.50943,83.1481
342.65933,985.0704,158.81851
-312.92294,2915.7832,433.28036
-1489.0591,3968.4993,586.3326
-1980.0245,2911.0117,710.1184
-1499.9937,1873.058,357.8351
-1037.4963,820.1328,208.40918
-645.7048,235.96536,51.2547
-509.75644,-387.6943,-44.48974
-427.85602,-632.9193,-103.39458
-537.63696,-755.70264,-127.10395
-700.46747,-630.4752,-188.93459
-938.4969,-405.2646,-84.15906
-1322.145,1211.9735,308.1786
-1447.5826,2229.6113,1015.11163
-1044.221,3041.171,1157.9379
-406.89465,2364.727,1058.9788
76.363625,1362.777,733.6944
329.85016,982.6895,416.1143
504.8457,558.9183,249.28941
552.29517,174.35101,122.150475
585.07135,10.909841,16.358862
589.1874,-63.878757,-66.69288
593.1198,92.00713,-29.450312
682.2274,290.93155,-1.8883913
711.2027,1685.9075,250.72302
299.31738,3419.567,624.63055
-545.1063,3445.8088,938.4117
-831.238,2538.9104,813.36884
-684.7034,1382.7012,565.2388
-620.6737,596.34265,391.2295
-605.439,-70.61512,214.53047
-528.2834,-415.85635,81.97403
-457.72208,-556.6998,31.997349
-660.696,-405.1897,13.462978
-728.4653,-287.01196,119.948135
-752.3497,1075.0951,422.22568
-848.7033,1918.7101,678.83496
-591.7716,2845.8967,965.30066
-164.11902,2980.1177,911.88055
170.95212,1566.5757,683.4612
370.22177,959.94495,354.38864
499.3603,431.4721,210.11742
586.6531,237.98601,78.59798
655.2226,-139.61333,-43.900757
811.2573,-50.102085,-120.99741
730.858,-141.65808,-78.140175
782.53796,301.59964,-102.44204
604.7647,2027.8876,575.3802
36.17399,3771.3704,1011.738
-730.5651,3802.3848,1102.1652
-882.62476,2207.687,847.2421
-785.5925,1089.0989,520.9922
-570.6813,410.45654,252.06236
-546.32007,-151.23982,-34.29668
-533.4996,-487.6343,-151.8476
-499.6282,-802.6141,-219.3774
-712.0289,-630.07355,-195.93909
-808.2386,-372.64062,59.02863
-937.6275,1130.074,595.86566
-1170.5118,2237.1025,1073.5022
-560.48553,3477.9868,1119.0393
-130.69792,2981.1174,1089.0493
80.652016,1463.8114,681.9702
189.00226,753.04895,448.44482
375.99634,368.38004,324.2594
434.00708,107.724815,165.16759
459.59473,-290.7894,65.894936
531.9579,-348.8156,-56.43896
702.9281,-359.0653,-114.21342
696.49457,-135.01787,-191.75075
685.6772,1394.6694,138.73589
-31.770048,4217.9067,512.5493
-872.3951,4546.8276,846.1391
-914.24384,2607.4045,666.45184
-942.70374,1274.949,409.3871
-685.91846,249.43741,258.48035
-528.0379,-367.1054,90.54506
-481.95108,-630.74176,97.57641
-569.3969,-646.53314,282.63138
-667.3814,-534.6123,285.44852
-733.0357,-509.93124,126.219864
-1013.5282,299.2444,274.36423
-1614.9094,1493.9464,163.93661
-1536.4565,3415.3926,-1046.35
-840.2603,3526.3862,-1082.265
79.15394,2300.1965,-646.69196
226.01575,1319.3673,-271.6449
405.35257,630.3164,-36.063267
635.8694,38.009018,-100.15909
815.221,-376.5943,-41.557293
657.1634,-243.71825,147.78287
632.007,-43.2693,131.59404
575.4289,170.80124,-290.27634
322.53323,1896.1733,-398.39694
-527.5152,4195.046,-219.13733
-1203.6807,3727.3696,-9.324041
