# PAMAP2 dataset (wrist-mounted sensor)

acc_x[mg],acc_y[mg],acc_z[mg]
-803.61444,-499.83548,-99.188515
-1060.1527,-350.77823,41.615513
-1164.2566,-16.566225,18.663464
-2899.6543,2020.4385,459.06464
-3458.6619,5010.2925,835.97565
-1295.038,3287.0564,302.3127
-296.2767,1721.0562,225.25603
411.08545,1126.9669,58.231895
693.7917,341.76834,65.63459
780.92114,295.10776,2.1220226
649.97754,274.16714,57.839195
663.463,368.6826,-16.821264
589.0067,293.3622,-25.343628
471.78632,700.6819,-72.12529
332.22473,1207.8312,-118.76768
-49.964787,3080.0852,-300.0341
-1144.1759,4225.876,-283.49713
-1573.0787,3162.574,-113.82094
-1518.2678,2008.1903,-50.081608
-1219.3607,1062.655,-53.21729
-1054.4344,412.46426,-13.5890255
-923.162,-105.88002,-33.574417
-1010.85986,-382.84424,-21.701946
-969.0058,-545.32355,-25.969488
-974.36115,-581.4366,-19.980808
-831.7839,-594.1199,-17.242466
-1116.5057,-201.84831,132.08493
-1195.9462,58.932064,77.72296
-3181.9958,2671.552,368.004
-2831.222,5744.247,426.9422
-799.9613,2757.987,96.7353
-43.580864,1633.874,32.356842
428.98618,860.46173,-21.211164
579.64886,356.36325,-21.88721
750.4199,124.570244,-73.05402
655.9286,347.62772,-34.620377
590.8079,545.3646,-62.99976
528.6921,864.0372,-54.615498
451.3078,781.425,-170.43092
492.301,999.679,36.564476
274.81204,2986.8567,-167.80556
-912.7858,4885.0854,-201.30824
-1435.2957,2855.567,-16.422028
-1058.7539,1292.3584,-6.689553
-1058.6195,614.5288,-29.004
-1032.3262,212.64445,-15.886777
-1033.9957,-53.39979,31.232971
-874.4452,-119.08486,-40.833817
-912.71674,-309.65982,50.73854
-707.6771,-515.1689,31.341282
-942.9,-556.58716,131.68863
-875.74927,141.7577,98.47815
-1935.6324,1134.5746,298.31024
-3095.9119,4763.054,611.73517
-1473.358,4181.637,289.1624
-168.3924,1898.6808,124.09518
424.75647,1274.5236,72.65336
647.73444,514.7806,49.822662
844.5698,226.84389,-26.309118
806.0241,95.22249,-3.1011367
671.0776,254.38503,-4.0238943
593.6612,349.75986,16.38483
469.3937,642.6002,-50.46877
464.06128,1462.6315,-131.56416
-32.895115,3811.5723,-292.37158
-905.1594,4123.3164,-315.82642
-1439.1113,3064.277,-145.88025
-1389.4789,1889.6003,-132.97453
-1091.0402,764.38635,-82.1742
-924.6274,145.26044,-58.829716
-862.7993,-307.18915,-52.11376
-904.7336,-350.1172,5.685107
-1026.3304,-561.44006,79.43736
-938.07697,-479.7363,47.306816
-1035.496,-391.34076,78.981964
-1074.6492,-97.93932,57.094833
-1824.0553,564.53796,52.198135
-3514.489,4196.016,635.5817
-1884.7366,4958.4473,394.0742
-369.99643,2181.11,148.59041
215.13193,1430.107,160.34084
525.67993,550.56305,101.029564
675.5087,306.04376,35.65684
658.8743,189.4048,27.00382
631.1058,283.0603,79.88316
597.0154,264.3818,34.18951
570.5222,578.4328,-6.645329
412.518,875.6559,-93.29165
359.93695,2353.4934,-143.23982
-431.1919,4153.6616,-293.20535
-1371.8278,3589.9585,-130.43298
-1421.8452,2327.7488,-53.19572
-1170.4059,1326.6067,-51.665314
-1082.5975,580.11597,-6.3847275
-959.4484,-56.663822,-1.2732594
-898.98584,-396.61362,-66.27926
-756.5581,-505.07373,-63.3284
-899.36096,-558.0144,30.520792
-800.2732,-444.1324,38.24197
-1022.3678,-177.60054,207.42235
-953.91095,-59.275425,35.24172
-2650.572,1928.9976,386.91946
-3075.7087,5416.505,831.18134
-971.36774,3334.2815,303.18015
-111.05553,1647.8583,316.19733
367.0611,1078.5826,169.85886
458.6958,330.66403,131.86717
608.1153,121.365204,-44.71221
619.63043,11.195181,7.4389033
668.21655,128.73349,-41.86133
648.86395,216.8184,50.680595
572.46954,475.20142,-73.6867
544.3944,1011.6551,-127.38324
19.880953,3543.9792,-388.7624
-1021.74866,4210.9727,-367.64307
-1310.0763,2969.9116,-101.36866
-1293.9573,1998.8746,-30.045605
-1039.401,868.86053,43.55015
-975.09546,291.88773,65.70894
-875.99945,-213.90547,-25.03283
-1004.332,-340.39438,68.979485
-857.42334,-615.3987,26.519548
-989.2691,-485.1628,-8.279613
-897.2763,-387.90652,14.757542
-1216.7883,-149.87311,260.32462
-1385.8456,207.35893,59.878082
-3220.6594,2980.1711,377.1164
-2534.9268,5404.403,529.69244
-525.6424,2682.8442,150.15503
51.540924,1736.912,153.45332
517.8342,718.7272,112.34298
591.71155,291.4424,73.405464
689.50836,28.587101,-15.430319
619.8851,128.26431,-2.9864554
640.3425,108.32241,8.528659
568.9298,400.69635,-12.094489
565.86835,679.5569,-137.92273
255.611,2666.7017,-252.01418
-625.46075,4053.5713,-484.87048
-1214.3248,3291.2512,-224.2287
-1353.8352,2491.8516,-58.887466
-1187.8496,1286.5884,35.017643
-998.82904,470.83694,71.80424
-896.92096,-57.473713,48.054077
-871.21344,-353.6711,56.704643
-804.01166,-417.26553,53.855072
-873.91986,-562.332,51.137234
-774.74915,-517.5106,-33.51629
-1020.02155,-247.7764,73.79949
-1212.9749,249.57553,10.435476
-2762.7969,2223.1816,369.10632
-2791.4583,4883.993,654.94196
-814.06146,2954.6262,246.5463
-173.47679,1625.0723,145.33273
291.2667,932.62177,79.96922
461.93613,400.1353,110.522
598.73175,268.54794,-3.8489108
594.5209,238.958,109.99317
624.24225,206.53348,63.597176
554.95776,254.37991,102.29358
499.67697,397.1079,1.8220829
417.3849,1295.6125,-70.24518
22.936163,3311.2026,-327.32587
-975.0627,3945.5867,-448.0879
-1369.0109,2937.7297,-282.6795
-1236.687,1790.247,-201.4611
-1029.5641,760.2292,-91.183556
-878.7697,275.22168,-73.240074
-758.826,-85.21113,-67.510445
-883.7031,-224.97525,-47.670708
-908.3551,-599.1419,-2.897832
-917.191,-397.64612,22.370468
-965.5403,-450.53217,71.00216
-1089.1195,18.906633,118.63124
-1558.667,125.424225,157.6267
-3608.7927,3672.4685,774.1099
-2371.2996,4529.275,528.3246
-655.38324,1894.3723,131.68323
56.242466,1740.8096,11.597489
466.43616,831.95856,-52.63569
631.8197,458.6557,-50.95527
777.90045,143.15565,-94.80708
695.16486,346.48315,-35.72586
642.699,331.54092,-20.032808
565.04626,572.88477,-12.59249
349.35147,860.6101,-145.60307
225.50037,2042.1738,-126.37463
-468.98245,3790.8196,-82.1042
-1115.3158,3520.751,86.02795
-1134.6355,2559.2869,263.1989
-1097.8,1527.8896,227.07962
-1029.1086,658.21204,172.6752
-1048.5875,26.17838,70.8662
-1059.951,-346.7623,196.37425
-959.11,-505.58255,259.96686
-888.39624,-520.9579,155.28062
-881.98175,-459.27933,-38.109394
-1042.5431,-277.88583,79.24165
-1174.8298,-47.38669,5.5376277
-2571.1646,2202.1965,151.85007
-2927.5854,4753.7866,553.25793
-1020.1147,3164.0867,143.05917
-202.14622,1955.3724,166.61584
278.74368,1207.5641,55.795372
502.0493,500.9943,53.916378
688.24677,169.97432,-34.328075
627.20874,237.45026,23.818075
672.1414,295.5666,41.759754
548.26373,358.21616,115.872284
463.22223,631.2315,17.098778
328.51437,1230.9562,-89.87439
-153.19281,3245.5552,-261.007
-1246.51,3854.8013,-211.56923
-1443.307,2762.4124,-146.40529
-1401.4443,1766.8406,-58.366375
-1055.7483,834.24176,23.149755
-923.465,436.46585,9.194396
-739.47565,5.984116,-15.707721
-797.5391,-287.20712,22.570217
-773.90045,-531.5669,10.082981
-865.8407,-428.7318,-10.853489
-783.177,-498.69275,-69.28762
-1059.0981,-107.472,105.905205
-1055.556,193.25298,-39.08724
-2921.0056,3045.546,555.8688
-2266.0835,5042.3354,508.8873
-569.77795,2195.5386,31.358517
51.79893,1482.2886,101.68433
427.22372,790.1138,65.70871
445.1425,371.2136,89.34216
642.59155,-15.104382,-25.473785
656.0447,51.637028,41.67726
658.83685,105.737724,8.119655
611.51776,393.28107,78.74846
463.35678,656.99457,17.431044
389.68588,2039.898,-154.58354
-420.04584,3964.1736,-274.6349
-1430.0602,3790.029,-61.158012
-1436.455,2312.6082,122.55817
-1240.9945,1372.9824,209.89586
-1027.1309,609.263,70.19307
-862.0652,136.62332,-106.76694
-826.48553,-326.15292,-180.63817
-703.8738,-412.79114,-250.77817
-778.90625,-600.0584,-231.60178
-707.4221,-363.788,-166.5478
-989.36346,-346.4511,117.482414
-1149.1638,38.937065,132.14929
-2176.8242,778.3838,415.32785
-3512.233,4114.869,1104.2891
-1466.6932,4313.849,351.84958
-331.95,1780.2937,302.27264
294.55197,972.2256,163.23705
732.5977,310.90158,71.646194
869.8198,179.98137,-55.60638
793.93286,150.19615,-84.34874
590.7813,317.70392,-93.178635
518.5663,201.34486,9.261079
429.1024,587.12476,-83.271774
424.1285,2107.0957,-141.71191
-705.3957,4115.604,-274.23288
-1250.0842,3436.7122,-98.958
-1013.7743,2295.9985,46.443798
-1122.3689,1634.2104,117.43973
-1111.3922,672.6897,134.54265
-1016.0396,108.56663,70.15991
-865.951,-406.82794,-82.739334
-817.0284,-505.82755,-72.74145
-846.8094,-512.94794,8.812818
-792.8305,-363.63962,-66.53645
-876.6738,-113.13657,-72.10469
-889.25104,61.712055,-58.91434
-1881.0021,1156.4901,163.56714
-3041.165,4346.1274,774.72125
-1491.4078,3686.8877,325.90723
-380.24457,1707.2738,56.070526
254.88263,1306.777,-15.731444
369.17633,645.6582,66.8916
639.168,283.30814,-9.183912
667.42444,76.35482,-58.20378
694.67725,217.1973,-114.9979
634.0582,353.15186,-65.65871
592.11676,432.1368,-58.66767
403.57892,1341.7195,-109.5401
-185.37958,3506.841,-312.75952
-1335.3666,3790.7542,-197.5947
-1410.7135,2636.002,-61.600037
-1303.7153,1836.645,23.39462
-1179.9673,969.4103,47.547195
-1104.0505,325.46353,-64.86194
-989.62177,-242.97844,-121.27596
-906.452,-234.56631,-62.184986
-787.1156,-305.71356,-29.933584
-813.03094,-71.35449,-97.71187
-792.8699,-338.75327,-44.830242
-799.52435,-342.2528,31.842218
-1019.14734,-58.26415,247.62267
-2972.8833,3448.3274,950.5252
-1967.9834,5281.813,799.481
-569.8793,1823.1686,312.8402
100.627945,1268.4686,129.00421
461.58136,449.74088,6.2251053
608.4183,260.795,-39.04955
703.1635,-68.04154,-49.12977
717.78455,158.67323,-113.39466
667.6121,154.04506,-69.4276
665.5339,339.1567,-102.93814
514.7228,836.0605,-131.66516
294.51114,3090.5774,-387.70493
-335.77295,4479.51,-374.10333
-793.1087,3549.8928,-67.31034
-1089.4297,1969.2261,-12.747116
-1000.0566,866.41437,59.701355
-923.00183,486.7588,89.78845
-882.866,128.04218,0.59499186
-993.5958,-133.72282,-53.957893
-919.2108,-409.59412,-63.714146
-972.06104,-452.4847,-6.1431284
-839.8027,-440.9568,9.116052
-945.6047,-141.3072,120.61644
-1195.9308,282.91287,-32.232704
-2999.6611,3354.1553,389.22266
-2277.3796,5219.892,483.74774
-562.9584,2314.7375,163.32799
107.77343,1464.3016,109.88791
447.23526,606.0164,55.411385
516.4756,238.13745,54.578564
624.8587,-30.570387,-22.717922
621.868,60.982292,1.569041
598.9108,86.78911,-18.254953
672.5529,291.293,13.851489
521.12933,477.98117,-39.65179
504.77435,1880.6172,-150.82642
-198.33795,4123.1387,-392.3667
-1169.784,3821.5793,-256.51764
-1325.0007,2423.6904,-55.941833
-1192.0205,1485.5325,31.599373
-1137.2561,636.73016,103.21723
-1014.30853,149.57019,65.78003
-969.95355,-256.4415,16.401978
-765.5791,-392.52814,38.764618
-807.7925,-549.9082,18.43959
-710.4438,-410.90536,6.299097
-921.5783,-238.75406,67.30379
-781.04767,14.891594,-45.742188
-2138.8352,1585.8369,231.66707
-2994.4966,5291.8403,723.89856
-1085.3688,3136.4016,247.87227
-142.11917,1560.8094,78.435
440.09314,1120.4193,-0.55771637
583.28577,293.6279,25.263268
763.36847,94.91422,0.83012223
669.8939,39.73902,1.9092257
630.5,179.323,-31.789375
586.7026,239.27359,37.04579
501.89444,475.31915,0.46347904
462.57434,1494.4812,-123.33332
-142.10223,3967.8848,-391.0486
-1338.9723,4123.724,-347.03522
-1274.664,2472.1296,-185.97037
-1217.9019,1639.2977,-72.64732
-990.0812,791.9949,24.227266
-934.93494,310.75583,59.691257
-834.2026,-204.79298,-29.320477
-906.8007,-367.86377,44.863537
-865.86444,-642.3987,105.97557
-945.3848,-493.93097,75.40511
-902.0871,-383.64453,12.917154
-1100.5054,-30.327888,69.62214
-1392.4128,202.59875,36.732914
-3669.6624,3627.5369,604.4581
-2495.107,5438.1133,350.09058
-629.59906,2172.7676,47.48174
116.88721,1339.9506,15.111178
480.41306,491.23627,-49.546574
612.04315,233.01312,-62.591427
682.952,63.248047,-110.56014
680.65155,193.42662,-72.082344
613.4121,171.78418,-47.26581
552.4727,459.32465,24.999043
388.65244,698.2153,-78.99441
361.36044,2016.0854,-206.12654
-408.5465,4206.845,-290.26996
-1411.7175,4468.5474,-282.84546
-1514.4768,2590.1897,-149.38297
-1168.0732,1392.8085,-63.249866
-1086.309,528.0257,-94.63755
-984.8659,-69.37703,-115.16961
-1028.2032,-404.52838,-103.036865
-794.1329,-571.8455,-17.731056
-927.6386,-708.03937,-24.749454
-883.64685,-434.0818,-65.68552
-1228.8159,-196.81488,96.267105
-1093.806,26.656609,-15.363559
-2585.87,1607.2538,158.57898
-3407.2195,5437.9204,638.795
-1347.6375,3456.2302,203.16156
-196.68121,1586.3619,113.19998
402.1427,1085.3357,25.247026
550.4542,449.70248,46.296238
688.2213,277.21082,-13.127025
642.5637,258.72165,-25.006992
687.3752,259.69775,0.1521329
602.20374,452.3871,99.295334
418.16327,871.3055,44.082245
238.7753,1731.8472,-80.99869
-225.27296,3293.3357,-214.23622
-821.09644,3721.4717,-239.10956
-1199.0255,3063.8452,-212.03389
-1183.4917,1772.6368,-130.20773
-980.92456,855.63666,-134.3851
-940.91345,321.95377,-171.13158
-963.34314,-210.82951,-209.87988
-924.77,-522.9118,-174.50987
-889.0022,-690.61414,-162.16219
-901.21655,-542.11194,-98.43455
-994.9166,-408.44952,-20.62327
-1027.4244,-19.116348,94.348564
-1901.8287,1000.02496,84.86783
-3109.601,3826.8408,718.01
-1900.6285,3783.294,608.9775
-855.12256,2016.1316,288.54102
-54.90804,1505.6447,45.56182
354.3244,916.324,-27.308554
696.4316,662.6238,-20.75877
833.0628,594.7931,-131.98984
763.3494,561.3646,-227.9099
583.35297,507.06583,-184.41556
356.57663,966.9619,-137.9181
20.952211,1947.7957,-169.11797
-543.74756,2464.1318,-101.563965
-882.3749,2444.0986,47.078827
-1132.1833,2897.683,270.91977
-1352.8181,2133.7478,244.1154
-1152.7756,873.92944,169.35263
-1158.7847,134.51762,156.09526
-1074.6307,-314.2145,134.99313
-962.68744,-430.23254,61.778824
-957.44324,-624.2073,-7.947422
-1012.30347,-375.548,-24.479778
-1096.2699,-295.40158,-11.910342
-1112.4608,-31.194275,-45.36157
-2123.684,702.60706,113.80577
-3573.0198,3925.766,762.13245
-1909.008,3827.333,410.13403
-603.7676,1869.9097,139.50145
272.17023,1432.7587,25.380186
659.5542,570.224,-27.310364
875.3886,444.3112,-20.632956
841.79816,406.7458,151.16362
787.32214,409.20792,-53.31356
580.42444,279.03815,-82.09476
437.39212,580.9753,-60.769894
180.13214,1239.9252,-316.56195
135.57166,2770.468,-612.0283
-873.18976,4213.452,-662.26794
-1338.1505,3757.3347,-725.50116
-1430.1564,2254.3784,-449.14328
-1190.7234,1210.417,-160.22147
-993.27545,378.9763,-189.05617
-930.0611,-293.88116,-239.5804
-870.7669,-842.57544,-120.572556
-951.53644,-756.49774,-63.263386
-1026.712,-425.56305,-39.335114
-1093.9943,-289.4239,-93.936516
-1234.5217,-153.72678,20.260298
-1941.0236,451.77844,-5.0962744
-3730.7158,4053.581,878.5547
-2266.6143,4423.905,679.75867
-724.13007,2362.7769,118.896194
93.131134,1797.1644,236.15921
554.6063,640.57806,36.497948
837.23816,376.95474,-25.871674
819.6006,282.15237,-110.279465
786.47095,534.8462,-72.13815
647.66095,390.41818,-35.056534
572.066,639.5361,-74.72047
392.0633,996.2529,-138.03525
152.7074,2908.523,-254.08633
-727.3904,4473.9644,-372.72458
-1293.696,4095.3953,-202.58327
-1441.1642,2376.1294,-79.06776
-1179.8431,1059.4697,23.58295
-1158.9841,276.83606,-25.2236
-968.6344,-249.62584,-70.25787
-1023.80096,-544.58136,-131.23346
-939.5995,-638.18866,-71.67147
-1016.0962,-599.6486,22.394964
-946.6507,-349.8094,10.507427
-1218.9229,-136.6521,-12.91181
-1481.8256,209.32779,-117.93889
-3749.4543,3217.6394,370.0279
-3052.463,5769.6475,405.2539
-747.1969,2679.2473,30.38954
120.24799,1725.6791,-25.150686
589.4027,829.8588,-50.378414
752.24695,348.6624,-10.54579
893.5532,181.49544,-72.782646
831.78973,507.96442,-60.03263
744.2403,385.428,-65.926056
608.0354,619.6061,-7.254276
412.05048,792.77045,-90.375206
246.81618,2479.622,-96.726875
-226.30432,3691.5378,-391.19748
-762.04486,3869.917,-219.62558
-1191.8728,3429.1147,-79.159256
-1147.4329,1630.8187,-78.618225
-1036.6433,600.69476,-42.40982
-996.6583,-119.78278,-24.619526
-1101.8917,-509.85852,-46.085915
-947.98773,-715.423,-44.585476
-1020.57666,-610.92993,33.44208
-989.9044,-375.50848,17.01924
-1237.1781,-61.38612,23.969547
-1525.5792,92.69872,-203.64905
-3347.6768,3011.0469,406.92322
-2867.6697,5373.638,661.96014
-874.14294,2742.8037,64.90219
62.063557,1912.1848,116.99776
532.88165,1117.2642,-101.66476
731.63257,575.78815,-48.03882
834.9012,304.94235,-146.21555
849.03,339.3634,-156.47548
748.254,314.4378,-173.88666
602.61365,720.2699,-31.190084
492.63965,860.3695,-168.14749
328.28574,1750.4987,-175.08684
-432.16397,3828.6033,-386.73453
-1078.334,4233.7627,-290.13037
-1444.4415,3015.2886,-214.12994
-1419.1943,1611.1522,-118.955246
-1172.0115,504.9971,-67.70316
-1002.77893,108.40487,-60.735825
-1087.0668,-348.87772,-83.776566
-1005.3584,-330.97992,-15.229739
-999.20526,-567.4781,-10.095651
-943.9947,-396.68433,-3.841711
-1042.5112,-361.7749,62.168316
-1016.0718,74.72044,19.313196
-2065.121,650.7027,141.79485
-3732.0806,4700.609,496.9045
-1939.966,4581.523,181.59447
-466.60162,1966.4198,-15.270486
419.80197,1457.9812,-51.755722
572.58386,538.1543,16.2161
812.88605,259.7249,-32.86872
786.62573,86.98516,-27.120438
719.4067,297.47226,-57.44032
643.3791,344.44775,35.556057
588.25977,645.04614,-43.45227
404.59058,1252.9719,-177.6914
87.27532,3290.2988,-381.0693
-1113.3584,4488.9478,-420.82874
-1619.8446,3406.2056,-263.95987
-1484.35,2007.1573,-93.99358
-1305.6509,862.5387,-115.15991
-1128.3807,114.877625,-15.47248
-1055.5055,-333.0429,-33.819954
-1020.0294,-390.21896,-9.6016655
-950.3482,-575.16864,50.7492
-970.5964,-507.45993,141.49728
-983.7937,-403.60114,164.8128
-1078.0775,-225.00432,177.66695
-1666.2587,435.57782,-129.24973
-3582.832,4108.2153,915.45593
-2413.6416,4633.7827,805.5789
-671.0794,2366.6914,48.91038
165.02942,1883.0771,4.905327
573.7521,656.84,-67.534325
839.05225,271.06528,-107.25816
874.58466,203.49342,-172.19218
800.8086,491.27112,-172.41881
752.6443,387.0393,-118.51459
646.60583,600.44116,-130.00267
497.64658,1177.3479,-135.74863
-0.21945897,3110.08,-237.69057
-1110.4818,4141.6826,-219.02176
-1561.0004,3163.6035,-68.02171
-1294.047,1850.9651,-34.554665
-953.2048,1032.5428,-6.730667
-894.02747,375.37646,-48.061638
-874.6906,-113.27581,-57.58794
-897.97815,-416.73026,-153.75023
-915.5392,-564.30756,-117.88511
-995.1867,-443.35126,-84.95847
-968.361,-410.0022,-13.49457
-1114.9098,-198.21053,-12.386601
-1661.0831,404.43817,-78.3351
-3367.5735,3459.7957,514.08514
-2369.6313,4599.165,439.07007
-696.5631,2276.001,73.499344
151.59917,1428.959,-66.95672
595.30176,716.0451,-35.488945
791.23956,465.38104,14.051455
811.28827,221.68202,3.3099847
683.6024,440.05823,-17.141584
570.7468,454.43933,82.916756
462.0552,601.94324,96.4157
433.49594,878.96814,-81.27389
265.84335,2763.6619,-410.87015
-722.41296,4461.7603,-568.3512
-1443.3956,3726.7417,-399.7899
-1491.9843,2200.2039,-291.50946
-1187.706,986.768,-109.623276
-1061.3835,325.47775,-33.23292
-990.8038,-190.76068,1.5606544
-1056.0139,-427.9584,-22.840408
-903.6891,-564.9338,-0.2737971
-992.2499,-495.92966,16.0513
-901.56665,-278.7116,30.904646
-1018.6788,-101.366264,159.18323
-1042.7931,248.664,-28.711517
-2751.9165,2669.756,341.7827
-2652.1194,5055.543,630.5206
-817.31836,2788.3923,159.29337
24.970572,1608.7235,55.53062
368.4636,969.557,69.029686
640.48566,435.9738,84.85041
778.1919,252.51727,-1.1314263
622.1444,248.33476,4.029126
721.4133,304.07382,-6.357714
692.82715,561.65015,6.120023
571.8661,908.42664,-90.423775
352.60352,2221.0884,-269.04852
-422.07877,4092.261,-421.18173
-978.36487,3726.8394,-151.821
-1038.6332,2669.762,23.747528
-1077.5675,1598.0199,58.47785
-1173.4363,712.1182,-48.353
-1244.4365,152.24641,-103.70414
-1167.1393,-229.27435,-159.98029
-1089.4152,-246.25308,-77.80684
-1047.4624,-317.93634,21.393581
-970.8799,-369.65475,-34.561256
-1140.4009,-379.43335,1.0579695
-1071.8188,-151.31264,-58.09793
-2183.0242,1470.3647,-12.923568
-3213.1262,5117.7383,498.5089
-1520.2695,4249.8813,182.94547
-300.78583,1952.4746,5.027178
598.83246,1304.0365,-17.67795
824.4544,567.1779,26.455757
950.1587,325.13126,18.724888
836.9967,178.0493,11.9387045
701.62225,386.04932,20.751593
532.3322,476.12872,104.74178
368.7928,782.2897,28.573538
145.8176,1387.1627,-149.11919
-99.36053,3228.5557,-219.15492
-1212.4406,4371.7686,-145.94351
-1504.9923,3267.6465,-129.49872
-1366.1779,1843.6318,-42.715595
-1039.0211,1016.95465,-2.5917993
-985.70715,363.5394,48.89222
-829.08124,-108.16057,7.1693397
-956.27203,-366.61014,38.562565
-873.56476,-594.9797,69.78058
-992.1354,-534.67084,37.628475
-911.8989,-338.6445,5.391987
-1101.4233,-53.882587,125.599075
-1136.4784,13.812365,-67.216736
-3149.64,2856.123,531.25226
-2878.4482,5701.5625,784.059
-812.92334,2532.8115,117.00294
47.382362,1785.137,168.5075
479.2239,1021.50323,19.09256
563.0235,313.69058,11.235013
818.56647,73.03328,-20.181927
686.0086,259.82745,25.441225
683.74664,275.35153,25.187963
592.7342,495.71848,114.28261
452.54858,607.89435,-16.335102
304.87036,1535.9838,-88.35579
-141.42653,3300.7446,-342.17145
-1065.9537,4220.1997,-317.5668
-1563.0121,3106.7961,-264.00974
-1408.7213,1563.2263,-264.007
-1072.6797,785.6362,-204.91995
-967.31305,360.32013,-129.44519
-872.6699,-100.42744,-97.70979
-819.42596,-273.47736,-45.16024
-841.838,-460.98224,35.33849
-893.20044,-444.14627,-1.2425141
-877.171,-452.69806,13.495003
-871.555,-132.44763,99.422485
-1150.0098,227.09335,-13.3241415
-3080.5317,3387.9136,459.1943
-2234.7263,4936.8433,362.6465
-638.02057,2121.6343,-9.747598
153.35237,1581.3685,45.82686
438.30325,723.13354,57.98746
616.78577,288.88077,48.37341
700.5076,-20.529202,29.684856
704.81384,206.79329,53.78522
721.8787,260.4165,0.7007583
717.4341,429.82724,-30.92956
519.7263,663.57837,-82.714066
322.85895,2695.941,-229.80566
-773.2126,4350.3403,-424.91577
-1609.1296,3630.2646,-259.4694
-1708.5515,2540.54,-91.46431
-1381.4463,1232.3729,-65.69209
-1172.6378,415.19623,-56.0665
-1033.4686,-201.64006,-142.54446
-872.82367,-499.9137,-96.18555
-670.56647,-620.8737,-90.01865
-734.64813,-545.2777,-113.44065
-822.74915,-432.32278,-49.179104
-1018.4697,-271.55856,-16.932798
-983.4559,-27.227348,-199.77663
-2859.79,1807.6532,286.8865
-3239.5635,4738.1133,562.06433
-1466.4541,3373.5505,189.41014
-262.17355,1822.1318,150.192
304.6882,989.8548,-4.7886868
690.868,465.49527,77.19775
812.66003,379.23163,31.378193
832.0645,385.4701,78.494156
780.2263,286.11337,-22.125145
667.3616,417.18277,8.853356
420.56305,805.98206,-52.06572
372.05417,1936.4722,-237.20787
-419.55447,3852.0012,-609.11755
-1510.1897,3990.8496,-416.47934
-1586.2079,2715.7285,-194.60413
-1374.5009,1577.174,-186.43935
-1098.7877,621.7032,-156.13202
-848.9055,66.00928,-100.50233
-851.52954,-380.6776,-45.58278
-814.4266,-544.9585,-88.75325
-809.5324,-685.0129,-121.04869
-786.72894,-438.85684,-144.4079
-1046.8911,-391.10043,21.50874
-1036.0465,-84.37979,-49.57966
-2397.127,1408.1422,107.20033
-3437.4631,5135.5884,830.9748
-1442.5582,3824.1665,300.68842
-225.1888,1525.3647,143.1855
415.18982,1060.1702,69.212364
550.9932,430.36322,110.4126
775.3964,256.2659,9.176033
688.11755,165.39734,66.83599
654.3638,323.01624,84.255615
555.0592,352.31924,172.63943
518.6596,549.5041,93.69513
360.35657,1337.2262,-20.326223
70.266304,3638.2488,-386.1462
-1094.7684,4413.9443,-326.2007
-1633.1876,3241.796,-101.82186
-1408.6615,1809.0165,-120.18596
-1231.4165,832.3633,-59.371067
-1093.4702,200.66599,38.130894
-1002.95,-291.18555,-11.615681
-885.2881,-484.81433,-104.68215
-810.21124,-638.6441,-117.6814
-810.75366,-555.2072,-98.56665
-897.9083,-391.7578,19.276045
-968.28455,-163.10252,30.850784
-1788.6481,755.05896,-80.38995
-3437.1233,4553.6006,106.00361
-1685.8112,4910.903,156.06276
-208.74075,2294.3699,89.53931
462.4666,1400.2324,-30.193594
754.1133,340.67282,-34.995617
693.40814,108.12118,-61.495453
712.6868,-33.713364,-62.9702
590.65027,211.59253,-50.984615
539.0753,248.99924,11.7494335
494.88852,607.502,-102.722595
502.85144,1385.7198,-244.54903
177.73195,3149.595,-714.5099
-335.75558,3783.1184,-819.3251
-668.1526,3337.1245,-566.85126
-1134.5199,2271.2595,-343.71524
-1001.956,1099.0659,-211.29718
-999.63995,333.1244,-200.29437
-942.9556,-129.80774,-163.80347
-1035.2025,-273.23642,-3.9634788
-1002.6468,-384.90063,137.83147
-1077.8939,-452.6485,109.62007
-975.5969,-404.45245,3.3026152
-1083.4323,-165.95442,-7.105834
-1547.7867,413.2457,-62.81684
-3591.881,3990.032,722.5283
-2364.1753,5173.609,542.5673
-527.3317,2183.2734,28.352564
318.528,1674.5648,-8.426568
636.23083,741.949,-61.693153
812.9244,377.24884,-60.14798
791.0667,208.76186,-86.32593
758.82263,402.68936,-58.40887
676.9229,195.23694,-37.638523
589.9673,426.19745,-23.618408
348.9036,794.8177,5.0726943
347.49106,2440.3083,-166.2704
-335.56552,3882.9775,-360.91086
-811.79205,3805.0862,-130.18773
-965.7466,2801.1287,-42.349686
-1015.63434,1770.2162,-60.18461
-1078.371,842.88837,-57.60891
-1098.602,208.76442,-70.4072
-1147.5894,-402.32245,-150.66507
-933.53345,-589.15564,-170.09921
-1071.0432,-702.6805,-40.36653
-934.0496,-362.0364,14.941826
-1148.645,-134.98492,72.316315
-1019.1845,-36.99199,4.349967
-2617.0962,1715.2014,305.3471
-3427.4512,6113.9224,571.1962
-1169.959,3347.2478,121.42981
-36.931522,1611.538,77.26565
535.46814,1223.9796,-33.749393
699.21594,436.84116,-12.708542
846.5492,183.4227,4.7070336
777.50433,214.79782,42.012043
739.4582,285.6224,-11.528058
640.97125,423.61377,50.675823
536.1133,601.17993,-9.95089
379.37817,1473.9135,-65.56983
-31.846672,3642.0044,-302.0579
-892.53296,4522.8237,-319.38544
-1371.0111,3391.7534,-198.43704
-1295.5287,1826.4753,-150.4931
-1033.381,823.6476,-78.56603
-904.5225,182.0997,-137.41217
-868.9114,-315.5094,-163.08562
-908.94995,-415.19684,-68.67745
-983.7076,-558.6567,6.573447
-1021.952,-502.35028,-53.498177
-1086.7798,-387.7402,-43.321594
-1102.6576,-123.3184,-10.378444
-1912.4133,871.1802,41.61739
-3330.282,4907.847,470.61697
-1635.3457,4782.744,191.82458
-214.10893,2054.246,40.67241
392.505,1450.2251,20.769741
568.82745,424.51492,-1.4270334
749.78766,208.71552,-17.095804
732.5339,33.650986,-70.91672
722.73944,265.9995,-5.449645
645.16406,176.15367,44.257797
571.166,477.85892,115.100494
381.12262,657.05725,95.37465
437.64624,2597.3967,-90.88947
-718.3069,4650.134,-64.15289
-1220.0829,3350.2178,228.07336
-1147.5967,2210.096,240.52422
-1052.0944,1291.4155,153.05179
-858.5226,496.52637,102.602234
-791.8909,-105.47753,-13.808165
-796.90265,-455.0746,-162.66167
-827.83295,-629.20056,-164.65167
-855.7556,-450.29617,-18.332962
-866.4336,-362.07892,5.438396
-1051.4314,-127.33791,36.666428
-1276.0028,186.6609,-179.16927
-3139.0972,3469.86,329.78708
-2172.3892,5453.479,466.92963
-458.79367,2372.0684,160.31642
168.7884,1480.4017,184.6708
620.8976,500.99854,84.65234
779.284,166.90364,147.20045
742.70056,-17.536974,63.196224
684.30945,250.39473,125.08493
666.00055,174.67404,122.71114
582.9096,356.8741,176.34662
367.0268,630.449,71.97642
398.1754,2290.6558,-94.43001
-239.04672,4108.5933,-257.1734
-1111.347,4049.244,-147.49974
-1478.0154,2832.1743,-134.87099
-1360.6683,1280.9907,-4.112663
-977.253,536.221,-43.88758
-785.27686,106.07427,-41.26975
-679.3728,-207.59482,-145.62596
-625.9937,-300.22107,-160.45642
-627.0722,-466.81595,-237.11267
-668.7046,-333.7521,-132.73076
-789.02826,-233.19885,-9.1776285
-913.98157,143.97751,86.90988
-1449.4976,436.75723,-128.00848
-3333.7498,3865.4321,757.0659
-1875.4425,4895.2544,562.37054
-335.7991,2194.2166,207.54045
320.3926,1658.1707,236.83887
635.2947,548.57404,20.38068
928.0286,168.06996,-44.816708
915.6192,35.73618,-145.95738
851.4219,362.12784,-114.641525
746.93475,371.3298,-113.58689
585.2216,635.11505,-27.752848
349.67383,959.3763,-169.26004
122.399864,2899.8901,-267.1296
-914.8181,4422.9614,-342.15067
-1373.6891,3630.0996,-216.8622
-1296.6793,2334.9185,-94.01411
-1072.1663,1368.8385,-84.48952
-983.5444,475.45862,-123.18395
-860.7879,-100.36782,-187.0873
-885.3737,-356.97717,-105.22579
-768.1994,-425.32712,-70.22391
-952.4029,-498.90616,-14.388972
-868.87317,-412.1683,-19.79115
-1152.7458,-182.65567,122.36563
-1045.3599,-123.32803,34.036533
-3070.8442,2396.496,175.96968
-3098.8213,5894.9443,532.52966
-919.5048,2888.9485,134.21751
26.755722,1631.7823,-27.695919
596.7492,972.1982,-76.5802
747.9698,413.46713,-4.2515154
794.7883,208.46365,-33.452972
701.6979,347.1744,-32.612877
697.58795,313.82324,-4.7678075
606.2213,458.0278,24.622364
500.3474,556.6918,-112.23273
400.1353,1765.8881,-185.59142
-250.74202,3842.622,-434.63474
-1113.2625,4011.692,-578.3698
-1277.4578,2742.0188,-402.74527
-1148.9951,1684.8934,-174.27959
-1094.5858,818.8377,-123.686356
-888.2515,220.7895,-130.47272
-874.2128,-260.9031,-89.437164
-964.48553,-253.38391,-53.728767
-1006.2854,-758.97174,-29.106361
-872.4766,-729.91113,-52.624783
-1159.6697,-409.31775,36.330864
-969.65076,-38.39788,63.221703
-2330.2805,1027.7335,479.2296
-3364.5376,5050.466,840.87067
-1380.4944,4251.177,287.47305
-324.3549,1918.8258,146.67575
369.5504,1372.8928,45.88139
559.12506,600.33887,40.22481
823.0266,291.1587,-40.82045
826.2007,128.98987,-66.60436
725.5189,390.4722,-42.324486
591.0949,534.2293,25.327486
478.3473,816.232,-40.16237
370.06677,1026.0598,-231.84714
346.38373,2475.694,-308.7588
-545.1697,4263.372,-386.42175
-1246.1989,3325.3809,-257.44025
-1266.2972,1973.0996,-87.51804
-1127.1724,1244.6722,-55.762123
-1010.06396,559.31104,-44.964237
-1001.538,26.430178,-36.059475
-937.51886,-389.73926,-76.83723
-950.3324,-585.25586,-60.982605
-928.021,-527.7758,47.41771
-993.495,-353.0912,107.498085
-1026.539,-118.83384,107.995834
-1774.0339,738.8154,-50.848118
-3292.8801,4103.5,561.78094
-1721.7971,4587.4355,224.32782
-328.30978,2173.1182,5.6604924
346.62598,1356.9366,-109.05599
556.72974,657.5894,-109.99478
723.6752,323.8266,-136.12639
746.8298,254.69888,-119.77923
712.0643,376.5652,-98.696594
673.8237,321.40515,-38.365196
608.74146,548.73706,-39.332195
460.2165,1220.2285,-85.12757
256.4933,2872.7957,-245.97166
-502.3167,4006.3774,-293.81546
-1316.5654,3494.6514,-198.6992
-1403.665,1870.3308,-192.12953
-1045.6456,873.6113,-58.66514
-841.01746,376.41162,15.778516
-844.3738,-10.18678,-47.755653
-839.6897,-351.05783,-67.98534
-924.3062,-560.0015,-16.152382
-901.42053,-517.7438,38.654285
-1008.36975,-382.91815,37.37996
-1026.0391,-122.312584,87.12484
-1655.6683,590.32465,89.01414
-3099.4834,4250.3184,881.16785
-1748.3081,4433.655,707.53595
-436.6482,2208.6782,199.26468
226.71227,1624.29,102.188286
480.7285,549.80115,61.84042
647.39636,254.85934,15.295701
715.86255,-13.3406105,-0.4098703
773.2745,223.83554,47.725815
654.2704,347.0349,72.03224
505.29453,657.9776,193.24577
293.53668,691.21893,206.35353
401.7944,2303.6064,3.2686124
-389.87744,4313.597,-155.0657
-1224.8223,3796.7217,149.77333
-1408.9785,2326.141,202.1617
-1002.3028,1206.7186,151.9308
-1104.0465,576.6743,85.184265
-1098.5247,-21.025114,158.71796
-1077.8884,-323.0576,23.540632
-750.7084,-742.91144,-190.20312
-831.5932,-660.4081,-12.740452
-877.4293,-276.14337,57.93986
-1078.7186,-95.06152,225.2285
-1109.7319,8.828311,133.8256
-3155.9836,2574.0984,953.6916
-2808.142,5352.342,967.53156
-772.92316,2675.98,302.76328
-60.852554,1635.8195,197.08049
482.39532,932.8327,-16.409872
597.74615,463.10376,0.3085385
767.4726,209.64908,-50.72524
706.7398,267.18246,-36.200043
666.15155,238.5318,-82.37115
673.45703,357.66113,18.44088
561.1285,624.36676,-94.07081
428.5637,1966.2377,0.037652798
-313.14578,4213.99,-61.570816
-1365.6484,4167.476,-108.20673
-1492.9984,2544.1628,-15.336879
-1280.6241,1417.3176,-5.199758
-1135.4362,483.41382,-60.256714
-1006.9154,0.5729916,-98.60174
-978.9177,-363.60995,-109.69798
-974.01697,-418.6294,43.3243
-1022.54517,-476.28912,112.198586
-950.6776,-266.1305,95.60323
-1116.9827,-314.78186,132.89728
-1014.7556,-130.43997,126.08173
-2333.8909,1145.8878,200.05678
-3488.9214,4887.9536,840.65283
-1560.8462,4109.423,330.75925
-316.4986,1909.4404,117.04798
301.483,1383.1559,19.957668
507.3118,546.3191,-1.4112222
772.6916,217.65485,-41.596275
787.21704,98.91363,-61.81407
661.09753,232.07625,-90.90421
592.9473,285.7192,0.6149485
502.97116,550.96606,-52.23085
459.22256,1187.187,-108.66892
-65.1371,3329.993,-261.85648
-1115.8994,4385.508,-353.35855
-1542.3911,3371.1826,-164.53609
-1381.3745,2125.9194,-91.62943
-1176.6707,967.7653,-48.972233
-1121.0752,257.57654,-82.33005
-1076.5372,-378.82056,-107.274155
-1069.0272,-477.4081,-95.10494
-988.97156,-600.437,-10.858884
-893.85944,-458.0587,35.134766
-952.727,-405.80887,87.36117
-997.06195,-109.94194,115.33258
-1566.0111,538.1866,62.796314
-3478.355,4465.3374,900.55304
-1966.8352,4577.142,625.35486
-387.19324,1868.2645,165.84761
322.36877,1587.1005,207.10246
569.46533,580.24615,134.4976
759.8273,286.38666,59.781147
737.3722,46.54077,-8.722811
741.23846,180.40846,26.040695
619.27185,159.40761,4.193244
575.8909,643.494,10.771649
484.25937,669.18475,-141.6957
418.71512,2154.9626,-284.41827
-332.25684,4252.726,-367.2264
-1277.7524,3943.6091,-212.9542
-1471.6947,2490.9875,-33.438293
-1086.3531,1463.6951,40.595333
-1089.1532,786.328,82.32009
-936.1382,65.21459,69.26153
-1009.4734,-344.88303,66.5753
-993.27246,-591.8101,-1.100684
-1181.521,-400.95538,52.60459
-961.1036,-482.4519,71.14102
-1192.4141,-199.33673,268.29443
-943.1116,-19.06845,124.49671
-2628.7246,1903.0719,772.2511
-2752.4316,5565.988,1120.0363
-1025.6423,2588.4531,532.0182
-280.63403,1899.7264,425.4958
415.5641,1238.6371,178.05852
560.8038,414.9998,132.50482
750.91296,120.00232,-7.0559254
696.44775,202.04536,20.821468
673.70074,378.7333,-34.51031
626.83826,401.49252,15.864593
510.66278,602.7024,-27.83216
313.52567,1494.537,81.41458
-186.91576,3489.884,26.143118
-1242.8063,3964.6873,9.791344
-1535.8514,2812.8958,174.16824
-1301.7351,1862.0392,91.73865
-1144.0525,968.1509,84.51713
-999.89435,353.46713,44.242893
-943.3108,-229.21173,20.462894
-932.95844,-398.98,-25.293425
-998.73773,-578.1279,-18.465918
-970.2007,-492.91824,-15.981044
-1003.9777,-453.39523,104.11367
-1014.6694,-62.362595,176.4316
-1585.2267,336.44846,128.50264
-3553.7302,4081.5315,860.30255
-2023.4264,4993.446,625.6071
-416.81015,1643.0885,179.38733
225.77379,1422.0153,113.01286
541.3436,448.8454,79.89936
610.3759,343.52728,54.23044
675.5818,84.719086,-10.042435
624.8187,351.12643,10.241722
596.5946,128.75798,-8.820176
499.03378,462.76416,-17.670382
435.06464,582.19147,-84.30185
189.86916,2698.0203,-150.59581
-725.0198,4266.717,-406.9359
-1242.37,3362.3184,-238.62236
-1344.1256,2529.0322,-117.00146
-1240.0707,1612.1475,-44.177357
-1231.5295,603.4481,-35.70092
-1144.9426,3.6092863,-126.46961
-1074.1556,-462.1202,-146.60623
-835.72864,-432.46558,-11.166966
-837.2511,-747.7521,27.024975
-777.63617,-411.6234,-95.63749
-1147.818,-271.77673,150.44951
-1032.1287,155.46309,137.73586
-2411.8005,1124.7933,226.53754
-3749.5725,5305.0674,708.9887
-1446.7638,3679.7292,252.619
-281.85883,1591.4624,46.434254
411.88364,1298.3346,-72.36917
735.1569,379.4817,-41.018974
927.5641,192.51694,-128.40378
782.98615,205.65918,-91.06035
775.22797,368.63953,-102.08429
623.8056,488.27985,-81.33802
504.4668,711.45636,-133.94818
262.977,1740.7018,-196.15567
-322.36557,3601.9797,-375.85187
-1220.0674,3931.342,-252.40298
-1461.5647,3115.3538,-169.6411
-1322.1249,1746.0375,-64.56271
-1054.6027,683.92664,-93.4798
-923.65045,-55.180843,-44.888622
-856.47107,-202.74196,-5.476378
-824.2301,-178.50082,70.061745
-877.239,-269.80487,71.38446
-928.75714,-275.4132,68.3003
-867.44543,-334.5114,-25.24929
-1075.3439,-106.52305,76.29159
-1246.519,96.41996,-171.35768
-3220.0452,3461.077,372.3151
-2289.7239,5263.718,510.61426
-598.5001,2147.7954,24.979223
128.4626,1542.308,32.7647
444.3813,786.514,7.4650826
596.94006,408.38977,44.203083
723.91705,56.834095,-26.415506
674.2509,229.06891,40.348236
671.5388,244.46187,42.518635
545.253,614.2306,97.75237
425.89813,991.19495,-65.057915
208.54033,2435.3884,-271.12033
-434.29736,3755.8315,-321.46005
-1309.232,3836.9446,-257.47156
-1534.0044,2473.0864,-226.14389
-1269.3641,1324.9377,-120.30094
-1106.9154,552.77405,-105.88895
-1028.8981,-37.26621,-49.924267
-970.8997,-361.67218,-49.763165
-869.3134,-450.71194,-78.40464
-986.56104,-573.6149,-23.843658
-887.4348,-368.0282,50.420135
-1051.0531,-230.30478,176.01877
-1074.7433,74.26022,-48.672005
-2562.3865,2202.2202,225.41418
-2917.3735,4755.4497,695.8553
-1170.5076,3310.8433,132.71548
-61.828964,1777.3746,21.89914
350.593,1023.3658,-13.865788
618.7625,489.6045,58.48722
703.18,244.29054,-9.1378145
678.5449,219.82343,-27.97375
609.05615,272.57562,-33.467636
592.38074,392.21713,27.107244
467.18134,544.97314,-40.99584
390.03342,1754.3252,-174.10509
-255.53523,3701.2283,-397.58743
-1113.4075,3897.632,-294.96658
-1408.2661,2735.8022,-210.87367
-1158.2212,1378.8192,-136.65703
-1030.307,695.11597,-85.147995
-887.38043,156.88971,-12.526674
-876.84033,-133.96962,-63.457386
-877.68756,-374.87976,-36.798973
-942.8274,-467.33255,-3.357123
-913.80273,-478.1813,9.50781
-1063.7069,-240.37042,101.95185
-946.29004,-193.7011,119.22805
-1877.0735,1186.7661,58.33086
-2873.9167,4090.7424,956.5877
-1981.2908,3817.509,1054.9545
-760.2563,2414.0947,351.10266
115.018486,1410.8785,255.83333
448.19315,624.99133,113.251
726.7748,383.13623,116.43439
809.04144,239.04898,37.87127
867.0754,183.2914,58.675594
698.2312,333.81607,28.73336
592.72107,618.8792,-2.1499195
457.25537,756.32434,-93.16045
366.52072,2682.7793,-282.50922
-514.26495,4261.801,-563.84973
-1237.8501,3411.6765,-283.37494
-1401.7632,2394.296,-130.28603
-1253.3682,1295.2134,-88.337975
-1140.3777,573.7116,-27.228418
-1068.6697,-234.43665,-33.033413
-994.31537,-502.02747,11.770744
-854.7788,-589.79565,42.40583
-895.60864,-526.16833,64.56072
-759.04095,-479.66638,45.598972
-1000.27795,-131.87062,82.10938
-1250.4395,170.02927,-14.749509
-3465.0215,2768.917,632.18726
-2888.0146,5039.303,640.6233
-884.8529,2590.872,284.64798
-69.606995,1571.7792,311.26163
414.94214,851.3998,214.4311
578.67865,321.77066,115.73695
602.5576,331.18207,-27.411997
633.9117,266.79022,103.80709
645.0099,315.03983,45.190414
618.37445,489.2271,46.624596
550.0959,577.8196,-126.001076
479.03836,1117.2695,-166.48805
151.9094,3476.506,-563.77515
-1112.832,4519.7573,-731.3828
-1364.1735,2728.9385,-416.28732
-1099.3219,1932.3672,-279.96124
-1077.8997,1025.6886,-187.55264
-950.6034,365.27606,-107.45578
-1046.955,-164.1863,-106.71405
-1082.4904,-349.30188,-24.696447
-1160.2334,-472.93973,46.573997
-1020.74054,-394.0307,74.480034
-1122.4946,-501.50247,91.4942
-1050.6976,-37.202877,118.71547
-1982.7697,656.85675,304.96252
-3501.851,4552.1406,894.11615
-1704.0692,4296.934,442.15054
-418.93216,1877.186,167.06929
282.8201,1554.2983,43.7154
565.84143,524.2981,-17.260323
758.02686,261.6555,-62.593807
701.8217,123.50734,-72.254036
592.6523,404.396,-61.95075
555.7667,297.2506,-50.997543
457.66888,589.9709,-104.9844
311.33643,1423.1317,-176.62486
-14.555159,3164.3552,-362.08914
-934.68225,3885.4392,-327.3981
-1431.3496,3242.603,-125.24748
-1418.1078,1955.3353,-54.12548
-1182.3824,894.651,-48.15026
-977.2982,279.3866,-51.941578
-1025.883,-120.16766,-44.506073
-1071.8684,-266.85788,-11.676422
-910.1314,-375.48605,70.61809
-872.6432,-347.8635,89.864685
-855.4996,-371.06204,62.409016
-1079.633,-90.24437,135.69087
-1442.2218,300.3853,63.76138
-3264.9685,3771.2773,589.8975
-1991.7898,4816.868,373.88437
-396.8227,1941.5491,109.72228
228.70255,1658.5538,30.16045
605.8587,549.1083,4.2392726
690.2917,284.0537,-16.965666
709.1959,-8.749736,-49.661526
658.0719,211.97379,-37.17224
636.6775,97.82608,-32.25551
528.17596,500.20316,-28.347397
430.75974,1044.9672,-61.09825
-84.0505,3367.3289,-252.95477
-1079.5422,3868.4392,-250.73428
-1263.4442,2792.5674,-94.569725
-1325.033,1951.0006,8.427662
-1082.6411,1051.1118,77.32934
-896.83325,494.47897,38.5597
-712.7145,157.62302,-82.97746
-785.1631,-181.44453,-97.03045
-826.7997,-431.4493,-5.829701
-1047.8522,-604.9243,67.07081
-896.77264,-432.55975,-10.600861
-1137.1019,-221.72765,88.56456
-1016.89,14.645957,23.652607
-2792.1318,1946.7892,464.1344
-3083.056,5658.822,691.4133
-978.4381,3189.3926,136.80453
-69.020744,1611.6901,16.217018
527.6235,954.07526,-65.36064
613.15875,270.96393,-34.32713
785.798,116.525375,-54.316204
661.27484,177.27893,-36.16411
626.3564,352.87192,-69.69897
566.4173,571.1973,-31.195538
490.28702,857.9518,-51.414803
408.59326,1400.6344,-86.664635
-89.650185,3167.4185,-117.62297
-1090.7195,4133.358,-78.7584
-1115.0204,2626.0405,-18.038889
-885.8075,1348.7728,2.1232831
-829.82776,568.1734,-104.09596
-998.7546,-79.53081,-42.301548
-931.83734,-397.81818,-26.63049
-868.37805,-505.84756,19.5928
-865.1788,-373.54062,55.944683
-959.8711,-401.72293,32.55588
-1064.2173,-208.65436,95.849625
-1330.952,163.07367,-27.191025
-3148.0994,3389.6116,401.3155
-2314.0,4958.1133,297.25775
-597.4006,2052.7056,68.65647
3.8621159,1757.6962,51.040337
496.6661,775.40045,9.038501
608.94275,367.36734,13.869447
783.7613,75.49836,-31.403328
704.9638,302.9457,22.698858
731.49133,231.83589,81.8883
580.8387,569.0143,72.120316
479.6023,1014.32043,-65.170235
-0.7217667,3069.603,-135.28568
-623.9885,3733.8496,-203.9748
-1116.0521,3101.7974,-265.7734
-1419.1543,2381.2388,-316.63983
-1233.9087,1118.5691,-239.80994
-975.0023,407.12183,-195.57253
-943.64136,-95.19017,-160.5422
-931.82086,-455.14328,-62.1412
-1000.1918,-606.3164,-35.587578
-997.7862,-740.5127,-103.6972
-1061.7865,-559.1559,-52.1464
-1095.5114,-209.54266,113.19998
-1805.4998,690.4794,94.46618
-3034.6584,3367.5852,325.44708
-2049.6143,4027.9255,374.1229
-932.8544,2251.119,164.67484
-191.29546,1646.2916,60.26202
270.67953,1005.26746,4.183026
614.90137,722.296,14.335221
830.5937,467.5391,-44.046368
814.63025,543.1768,-28.843353
762.26385,520.59265,14.4362135
499.7396,934.20483,-46.97946
374.76657,1306.2069,-119.16495
-132.40182,2694.4521,-148.02307
-841.9548,3066.7935,-157.88991
-1236.6024,2962.3452,-13.14968
-1668.9199,2541.9446,-52.207314
-1463.9304,1174.1464,-57.765614
-1237.1315,216.63538,-37.107216
-1091.8014,-341.5226,28.679989
-893.9043,-554.7272,20.905628
-920.6,-585.7935,-120.01675
-906.0199,-484.9779,-84.43694
-1024.7664,-275.32043,49.922417
-938.3971,-162.09589,129.2187
-1992.856,1037.3961,40.423088
-3289.1973,3813.5183,580.97504
-1800.7866,3569.9526,465.71857
-526.3726,2009.5887,88.60864
100.7123,1580.393,34.48121
495.80527,678.542,10.885427
604.0818,461.68314,84.849464
587.7482,471.7709,8.089045
594.4378,567.1581,21.561823
539.7272,453.30658,-9.341541
437.80222,639.1465,38.88283
339.47238,1101.6888,-0.48234946
66.17657,2627.5554,-151.01874
-1081.5679,4004.588,-253.90976
-1477.7156,3266.3904,-159.34846
-1270.8391,1870.0795,-195.12965
-1042.2406,985.28705,-105.66013
-840.79535,311.31467,-117.128784
-862.3555,-72.74581,-112.3755
-846.8194,-488.20172,-145.77661
-1028.7804,-614.4522,-89.26261
-977.0754,-593.2789,-170.28093
-1073.3385,-473.6167,-79.72228
-934.998,-485.2129,23.307755
-2249.8035,1366.8922,314.82034
-3656.0793,5060.9863,925.76666
-1641.6587,3793.697,334.00735
-175.30325,1588.2047,73.11665
357.1272,1069.9285,131.60074
536.7999,398.35153,157.97946
648.5032,198.87439,84.93306
650.19073,16.323092,14.434183
622.2759,243.12404,10.033968
661.40753,357.2085,62.46349
548.9074,707.2665,61.92412
492.43677,1422.6119,-62.998577
-149.10521,3734.4446,-266.99863
-1107.3293,3800.9717,-264.78168
-1219.2014,2419.397,-135.05063
-1009.63135,1312.5286,-108.42418
-869.92645,754.8271,-6.9435835
-853.48126,175.10075,8.943885
-857.1938,-120.68394,-82.26962
-960.8468,-514.87067,-103.40586
-971.3488,-369.739,-65.35709
-866.7365,-559.92255,-50.374413
-1040.5537,-184.05902,-100.326744
-1153.9764,-120.804794,-34.904125
-3041.3518,3233.1091,373.12308
-2712.0942,5416.8,480.3704
-579.50024,2248.3074,57.809326
205.85553,1220.4023,-87.039665
614.6375,713.7691,-66.292244
588.3933,267.7684,-57.171124
747.3544,69.46456,-105.35258
716.5985,-14.029779,-139.47116
764.3817,114.804535,-74.94918
628.9531,520.75635,-74.66483
602.6494,1183.3162,-179.62067
311.18762,2743.4941,-258.46204
-413.59674,4492.155,-197.07883
-1265.3678,4031.7236,-62.250294
-1395.6587,2316.2878,43.757145
-1324.0791,1069.0586,54.925877
-1149.5903,288.1046,105.99698
-1084.6707,-351.69153,0.43709442
-976.9236,-577.4401,-75.77838
-874.00464,-765.66064,-98.212875
-795.9977,-536.8173,-35.652126
-942.6871,-262.73206,16.72929
-1035.6346,-50.26001,110.01172
-1721.649,611.1251,107.52299
-3436.8823,3928.6956,654.43024
-2329.2087,4691.352,437.18933
-556.7102,2466.244,74.775894
159.98253,1453.8688,-11.524322
561.86426,517.26105,-33.076103
663.0062,174.52141,-31.557459
839.00226,224.79988,-17.946825
801.73157,259.14465,-48.828102
862.328,135.07208,-77.31496
692.87085,293.946,-39.90721
631.46045,912.55365,5.785222
252.47466,3006.214,-188.78983
-668.1354,4560.856,-262.39688
-1373.3376,3720.3433,-66.59681
-1439.5591,2217.5032,-29.724903
-1302.535,905.7235,31.938667
-1113.4084,317.16705,25.544703
-1020.9496,-248.56657,-84.18003
-874.542,-452.83066,-153.70624
-906.6403,-732.4533,-63.57222
-774.2757,-503.3135,-4.414382
-919.6312,-372.85,-21.89751
-958.70795,-2.8945117,-51.586666
-1780.6478,677.5721,89.61511
-3355.681,4982.9487,506.5065
-1534.7778,4511.0654,343.63516
-166.8122,1719.327,139.47447
448.58066,1357.3658,35.484573
721.9748,346.07666,58.02773
773.0088,197.15675,46.73663
737.20953,72.09955,86.16109
663.1683,179.21304,81.4853
749.57025,34.020676,98.20119
607.34424,353.27075,86.08092
480.4647,983.53253,52.925793
204.34679,3440.1113,-151.91187
-924.0033,4784.7124,-126.99691
-1425.1942,3616.477,65.87365
-1363.3536,2014.5559,-6.6833844
-1147.7599,747.73236,-5.5827785
-1010.21265,178.11377,-0.2332172
-938.66724,-244.42818,-70.25619
-785.3616,-357.05087,-61.879986
-844.26794,-754.46027,-82.251854
-873.57886,-566.5689,-90.415184
-1041.913,-350.227,-85.57323
-1202.6293,-101.023315,38.306892
-1561.5444,261.30307,-109.69835
-3582.7913,3679.1946,439.01178
-2509.8555,5204.8745,395.18143
-597.6904,2532.2246,45.069717
41.722267,1473.1617,64.4859
541.53485,454.718,-96.88598
702.3002,167.68127,-26.710932
773.93,128.35268,-91.5873
706.92163,267.7176,-38.953876
770.0185,150.30344,-52.882298
667.14905,424.5231,4.354309
556.4284,682.9216,-84.40807
191.4876,3053.2979,-197.54623
-868.8254,4719.8984,-329.8505
-1678.5524,3564.3604,-115.89026
-1498.1881,2275.4407,-46.272923
-1293.1362,925.48224,26.922594
-998.07886,238.80531,-77.90364
-937.0913,-342.64673,-118.2232
-792.884,-421.7003,-160.38309
-882.3962,-669.8457,-126.4207
-945.8862,-472.5008,-180.53731
-1153.8147,-496.78958,-118.68666
-1091.2068,-74.621056,-141.19167
-1990.972,512.1437,138.58931
-3634.5112,4460.3975,752.412
-1760.4495,4842.4683,285.91162
-318.8902,1723.0693,126.55552
345.54205,1180.4839,76.89321
666.8987,250.26588,38.42832
654.04834,352.44162,58.407883
604.1328,432.98016,130.24652
601.18695,490.7977,74.95506
715.3853,51.34896,48.54807
555.8515,228.01372,84.48855
591.73315,466.55392,30.770298
536.0486,2938.816,-281.33197
-665.2995,5286.3286,-646.1398
-1167.2289,3570.9536,-422.02554
-1058.9421,1983.5641,-183.11296
-1034.7375,1008.3843,-10.540155
-1084.2866,383.45685,22.397585
-1086.2568,-124.82891,-92.51625
-1037.6166,-389.2456,-83.73096
-1077.3296,-722.3957,-67.62522
-1050.0897,-409.07187,-172.05653
-1180.9298,-311.1104,-105.559746
-1238.5016,22.273655,-4.170462
-2068.1724,805.60236,-0.070605285
-3727.078,4781.5933,238.80109
-2090.5916,4872.0967,49.344624
-319.08978,1742.2744,-113.35212
335.22296,1390.6731,-112.957184
709.9483,443.25412,-96.91189
881.519,257.69626,-70.04282
881.26697,124.00955,-65.71831
765.80597,406.28308,-95.77135
815.7688,330.6553,-57.605247
624.497,598.2458,-111.393776
544.1889,1463.9554,-182.389
-2.541501,3536.0635,-385.02628
-791.3681,4045.7117,-314.33026
-1429.9133,3361.872,-172.87753
-1282.817,1667.1396,-100.93177
-1081.1522,706.2567,-16.318436
-839.9423,105.67298,13.417392
-981.49805,-126.55606,16.29184
-979.3316,-483.31644,-53.88508
-1087.9105,-478.19034,-9.036539
-1009.15436,-499.6551,-99.3764
-1200.8198,-308.5254,-28.56869
-1151.541,-191.99648,-72.21748
-2605.2136,1728.4011,258.74216
-3304.3064,5444.981,700.73035
-1255.8171,3463.7654,289.29382
-178.79224,1809.9487,46.83859
537.89386,1272.1107,88.655464
772.25745,359.8809,127.21712
897.2775,176.09218,99.11746
790.98474,52.06571,26.205147
724.94385,303.1616,34.89731
645.3744,416.76468,62.666985
427.2438,775.1217,-2.1323805
321.3426,1790.2042,-139.22707
-256.7768,3915.181,-358.9012
-1123.105,3880.2698,-329.59393
-1365.8674,2963.5767,-144.92972
-1273.4414,1605.955,-70.75337
-1302.7471,759.8786,16.076782
-1260.9604,-106.75143,32.26811
-1163.0358,-381.79007,109.942535
-1150.4432,-679.7281,66.15228
-1056.4265,-554.25287,96.21636
-1097.849,-531.44806,16.510185
-1117.7225,-106.04829,140.25433
-1533.1212,260.09818,-30.483046
-3252.6848,3814.5508,618.0365
-2355.4485,4641.5894,751.3456
-582.35803,2222.6223,138.35939
149.21414,1753.6302,127.64462
645.4022,863.22327,89.64001
845.82983,343.21973,141.13753
817.74585,197.97867,26.10076
677.78265,343.1347,5.665639
762.63684,357.61295,-17.770126
597.1878,745.2077,25.343803
481.49503,1267.3004,-134.56378
256.78293,2329.094,-262.08606
-399.62805,3686.9985,-361.39246
-1367.2534,3659.689,-305.1146
-1401.6561,2364.3826,-182.55812
-1124.006,1203.0095,-137.73795
-975.1563,589.32806,-97.860825
-965.6076,3.9499722,-141.23154
-1149.7748,-297.2011,-127.186424
-1178.8281,-566.57886,-71.68785
-1196.457,-297.36615,-115.04449
-1209.3004,-418.91443,-75.059006
-1262.2386,-57.91192,129.39081
-1336.7081,99.52251,96.312874
-3122.442,3230.4624,647.4588
-2331.835,5339.1836,678.1315
-617.017,2374.2124,164.97739
110.69389,1681.7415,32.373024
607.1522,808.90546,-75.087654
648.03436,417.33038,-29.562323
856.64343,83.12975,-102.11882
747.115,210.43633,-138.19519
796.7449,343.3428,-76.195305
532.21686,712.13995,-20.057299
442.92477,1364.4724,-69.26955
-211.9441,3291.8655,-197.90073
-1192.978,4468.491,-131.69786
-1438.2562,3192.3699,39.29353
-1309.3945,1859.4592,39.81339
-1172.1421,866.08923,28.242474
-1102.1976,86.10694,-122.89467
-1182.6621,-329.43872,-177.31804
-971.0191,-459.77884,-206.58917
-1092.2455,-531.5581,-108.99391
-1112.138,-488.94168,-150.8596
-1243.7252,-271.02087,-81.48976
-1208.5304,-2.646461,-113.204605
-2844.5322,1894.7953,144.99738
-3429.6519,5622.3345,535.87384
-1004.9828,3558.005,142.1352
-13.982544,1672.3978,32.097523
708.37854,991.7277,10.325219
856.3958,188.21323,47.369377
890.2688,117.55375,-26.102047
806.8842,196.80608,-34.521626
861.7142,208.148,-76.11841
767.9224,273.7236,-36.16925
652.69037,586.5872,3.5303335
446.4806,2181.36,60.439716
-536.2038,4550.373,-199.41011
-1474.5504,3884.1084,-8.061071
-1398.3113,2484.7698,146.27827
-1166.8385,1618.5328,55.573017
-1150.3181,731.46484,23.742718
-1047.6798,32.855537,28.358017
-1041.5973,-444.65607,-106.05704
-950.0577,-513.9348,-149.03085
-978.8141,-627.48486,-80.64266
-874.01306,-390.57455,-38.59588
-980.17554,-301.8502,71.98558
-942.0997,65.58298,79.94766
-1768.9845,544.4738,258.7476
-3583.7385,4445.579,924.76984
-1993.1855,4774.945,596.1476
-461.88785,1746.4407,288.2745
206.94733,1453.4789,314.04016
672.8857,397.4121,149.63925
988.49347,269.52374,79.82099
976.13605,75.81263,16.825506
853.37286,441.89777,-63.214417
855.13416,278.44394,-200.8158
723.08026,669.5972,-300.15683
517.7342,1752.6613,-339.1923
-134.18652,4059.1475,-747.02356
-1251.3552,3912.22,-622.06134
-1412.4376,2928.6765,-129.81294
-1276.3458,1908.8092,-113.80002
-1179.7849,910.709,-54.018574
-1138.1045,-29.119295,-80.541756
-1075.8217,-334.29385,4.0300193
-1077.1099,-576.9064,-31.578485
-1129.6232,-440.81253,24.684338
-1004.6582,-530.8642,-177.02798
-1268.2534,-143.44543,48.12708
-1119.8151,-140.28894,1.9466145
-2888.1414,2640.0835,453.5149
-3034.801,5471.833,956.1231
-810.7842,2454.0525,324.62338
30.143215,1640.0377,278.63968
660.5798,1105.5978,220.71422
744.23755,277.7062,198.23232
830.3546,140.91269,19.080265
603.5008,187.24135,40.99007
751.49774,291.15613,-10.752534
737.9675,555.06946,-68.191315
613.84534,1125.3419,-202.56357
451.08444,2257.49,-278.2439
-364.9494,4678.5874,-609.8908
-1745.9485,4149.3755,-368.51404
-1411.2192,2145.1838,-96.922516
-1239.8628,1258.8845,-107.42653
-1143.0852,518.8619,47.36477
-1195.3604,-211.17842,20.535288
-1076.834,-540.09796,-51.305042
-1158.8182,-772.7818,-30.238506
-1031.3004,-544.8798,-64.4238
-1218.2665,-320.41324,-1.4815036
-1095.631,75.459526,94.94008
-2103.9585,771.87744,227.7075
-3547.5745,5233.7856,751.6897
-1498.5287,4335.071,382.22403
-129.76357,1686.833,236.85654
340.5366,1425.3439,95.96612
749.39294,262.44293,44.835403
839.00323,231.92961,-11.991254
721.11194,231.22234,10.841239
709.5401,421.657,46.83592
757.24054,275.23706,19.002901
683.8187,641.2868,-86.00564
667.56494,1116.2063,-190.1646
181.80586,3554.8806,-456.5491
-965.7691,4553.102,-686.09283
-1554.7559,3083.5876,-329.54565
-1306.6663,2051.1228,-212.55191
-1312.1678,962.2177,-130.46829
-1131.22,193.35818,-109.64344
-1086.907,-306.0511,-80.442894
-1038.1951,-468.57275,-101.98207
-1149.7935,-526.5802,-34.12172
-989.45154,-316.31277,-48.293232
-1123.313,-189.19789,127.64501
-935.5936,-11.517456,109.067154
-1816.3762,642.69653,144.68365
-3457.9116,4499.6772,876.91907
-1770.827,4470.367,404.67316
-328.75574,1848.4402,126.809
297.72952,1446.8035,90.1385
515.413,451.418,84.444534
617.2856,267.63248,2.5318363
783.4167,25.535978,-42.2175
701.74695,201.7202,-16.346056
813.81946,296.91995,-11.406032
772.89453,664.5684,-85.74017
538.5578,1212.0283,-140.9895
45.922405,3636.9092,-423.41684
-776.46045,4513.493,-620.4813
-1441.5845,3603.5454,-323.32724
-1240.8004,2075.3103,-150.15848
-1328.211,913.5417,-113.66344
-1324.2908,47.867447,-120.740555
-1318.6864,-426.97076,-85.791725
-1112.5378,-462.96402,-107.82018
-1166.7994,-496.32736,-42.547344
-949.3302,-623.2838,-36.189507
-1106.616,-510.4689,58.66179
-1101.7312,-350.34976,134.9768
-2561.5068,1422.1016,395.18646
-3166.3586,4645.659,530.26917
-1543.7986,3886.5115,280.575
-406.10336,1893.9797,167.1967
215.5717,1247.1375,14.167866
458.47235,739.2248,21.764116
688.6609,392.0714,-82.19932
738.0697,390.78232,-101.15878
672.18976,514.8505,-29.849098
660.77704,642.3969,-54.604893
539.13446,981.5157,-222.10307
291.8026,1987.96,-294.01328
-618.76276,3341.2246,-345.7599
-1070.1808,2915.4207,-254.8763
-1437.3376,2621.6992,-17.868523
-1545.9939,1695.7448,-109.676155
-1312.1727,539.95703,-55.335014
-1082.7688,-133.90094,-73.67976
-1044.3239,-343.26373,26.249767
-1054.6213,-456.90393,-6.3168764
-1119.4868,-518.6107,-87.12033
-1045.7253,-499.34604,-176.00919
-1128.4836,-295.80954,9.922794
-1105.8682,-39.878967,14.176373
-2566.3901,1775.259,236.17067
-3008.8918,4045.9307,695.73486
-1410.4552,3324.3618,379.85413
-427.5376,2036.5044,306.57776
300.2501,1445.9489,255.81407
718.4933,484.44107,267.43768
852.11115,255.0764,132.34834
778.4717,222.16309,33.975735
561.49524,408.0867,-77.32086
474.58997,417.63898,92.91241
484.42615,980.8657,-173.00717
454.86127,1793.1063,-318.4214
-586.3746,4250.2114,-216.3235
-1621.2678,4465.3896,-468.3687
-1942.8945,2827.8113,-95.13108
-1556.3973,1763.2513,-53.2357
-1480.488,641.9659,-50.775806
-1242.1287,-271.15085,-216.93266
-1145.1543,-371.52228,-34.49958
-972.86847,-454.7258,-65.06347
-1096.3267,-690.4944,5.846342
-908.3045,-494.82245,-73.12833
-1214.0409,-139.75244,167.92502
-1053.1066,-253.2588,37.123013
-3063.729,2319.5542,899.77234
-2919.0974,5472.329,1432.4935
-982.2765,2582.914,478.9351
-89.84959,1495.341,351.86682
591.45074,1199.605,75.03438
795.119,590.96063,35.111637
970.11255,263.15247,-23.352608
904.2232,211.59938,-89.91246
854.9446,198.86467,-148.6982
687.3297,302.90936,-95.20133
437.14478,965.9153,-35.68135
211.54211,2484.111,-197.39763
-586.325,4049.7173,-364.12805
-1563.0916,3721.2344,-119.176216
-1502.4858,2670.4841,0.8067857
-1322.1401,1471.8402,42.325214
-1148.824,680.5021,49.431393
-1044.8921,-0.42094672,76.057846
-1035.1871,-392.9242,30.024748
-1038.734,-496.1318,-28.704794
-1131.1575,-528.3999,66.14404
-1039.3275,-399.65613,40.702515
-1189.9927,-227.70808,150.33585
-1039.8505,-49.321556,83.53447
-2748.2217,1804.301,489.94055
-3150.4883,5384.1323,733.7204
-1105.6334,3330.9497,221.12654
-167.94456,1615.0052,116.9144
383.1589,1165.9636,7.2570424
608.5566,514.1741,-45.30153
841.71674,228.92972,-146.72429
741.16064,-14.404547,-168.06776
721.101,171.69847,-157.03754
618.3198,424.53134,-53.64416
588.3492,716.8659,-90.70924
317.74576,1940.5348,-149.13899
-473.65942,4274.4097,-296.2996
-1359.5802,3944.0652,-260.40768
-1485.4528,2610.5786,-122.021355
-1359.6945,1389.1335,-129.95915
-1155.9281,612.77997,-73.097145
-999.1064,21.097338,-92.044525
-972.3245,-262.5335,-105.88572
-976.1,-487.10355,-112.03484
-1165.3209,-438.63623,-16.829226
-995.9215,-429.19205,-26.221098
-1241.3584,-195.17459,82.89056
-1192.2614,-123.47228,-96.571396
-2749.4106,1624.2316,310.62323
-3265.9412,5184.9175,810.4536
-1306.8362,3320.453,133.12885
-339.59744,1597.1553,12.785955
437.2148,1323.5944,9.645892
564.9582,614.55383,49.584362
941.15765,243.66473,31.944147
794.4713,109.29161,99.389175
791.47943,471.95248,109.01295
650.9261,570.90845,155.78464
569.7227,897.4759,21.679976
220.24522,2302.7764,-177.85568
-297.0634,4458.2505,-302.7065
-1145.7278,4179.3384,-456.11887
-1603.521,2820.724,-349.77896
-1595.8464,1140.2756,-359.01758
-1505.6434,326.32086,-303.30237
-1185.316,-308.90103,-81.02371
-956.22327,-430.06104,399.36682
-895.4832,-806.6881,427.03366
-1018.94434,-676.853,-25.416231
-1231.3705,-371.0537,74.1414
-1453.9556,149.09233,76.98714
-2109.2463,438.47968,20.863045
-3694.4473,4390.459,287.17242
-2280.6682,4456.385,272.2766
-569.1922,1888.2074,155.30864
184.94261,1743.2849,103.43911
878.95654,659.5536,1.4391191
1009.668,278.4475,27.049028
937.9666,265.53497,18.885912
794.5317,526.16833,2.1607537
748.46985,574.4134,-55.151062
588.8437,794.7533,-136.41626
344.07397,1238.9423,-244.57059
-217.16814,3042.1729,-376.5497
-1257.99,4402.8604,-557.99054
-1709.3269,3759.9717,-292.1801
-1656.8102,2645.9023,-177.35866
-1453.8292,975.4634,-98.50931
-1287.7749,128.03621,-20.716082
-1126.5101,-385.69516,-11.988618
-1118.4403,-529.66846,-13.114644
-1094.2378,-758.7569,-62.779438
-1040.619,-495.0037,-32.640705
-1099.3418,-438.4981,-55.761417
-1279.2113,-49.956184,128.11676
-1708.1744,257.17154,-101.286835
-3772.7683,4041.9546,287.22662
-2480.8442,5726.9814,294.16428
-486.42136,2238.2869,-26.806967
145.92102,1476.0383,3.4712257
689.2201,562.3995,-39.05682
814.04315,254.32092,43.54858
859.93256,151.5383,-40.388245
665.7014,351.00745,-16.728907
672.934,336.46964,-26.029806
522.87256,616.8693,18.642757
438.60556,911.53595,-82.481094
46.43186,2863.2122,-143.05688
-1001.1505,4541.291,-292.80823
-1574.8632,3582.1257,-113.0185
-1405.6986,2479.7468,-38.59699
-1223.1045,1071.264,18.30834
-1096.1125,245.72946,11.261154
-1091.1868,-422.71442,-9.40892
-893.04663,-525.90924,-50.73375
-947.53033,-676.5747,-86.70707
-984.8265,-515.53625,-77.18385
-1173.809,-308.21475,-24.341345
-1167.1392,-59.15257,27.61727
-1801.655,315.52307,-99.58228
-3469.9666,4556.774,551.0774
-2003.3743,5006.3726,413.1373
-420.94302,1838.1282,63.600887
257.03772,1332.649,70.34827
630.12866,409.16907,-10.8715725
656.0698,204.69238,-1.1205795
738.64197,126.690475,-35.969673
672.1987,335.21655,24.767181
770.0976,268.03394,19.812922
629.4619,601.55994,75.504906
432.62476,1018.33264,-44.859825
252.01477,2672.0627,-54.814415
-644.02057,4600.6484,-150.71074
-1579.103,3890.85,-271.8435
-1372.934,2154.548,-109.57228
-1064.0011,1173.3026,-46.38833
-986.678,440.05292,-185.59975
-1024.368,-364.60748,-242.21388
-820.0059,-736.8932,-353.07483
-995.5127,-928.47327,-343.6654
-898.47644,-583.08777,-172.90459
-1087.465,-291.91824,128.13379
-1127.8594,-24.314653,123.26016
-2155.363,432.05423,185.99834
-4009.8264,4540.533,633.3463
-1972.9708,4689.764,380.41782
-461.54926,1811.9287,224.4105
217.7881,1388.6982,0.95823395
721.82916,256.17972,-223.93199
882.2947,326.51303,-214.23373
854.16943,424.87933,-198.96579
890.764,467.90186,-154.062
896.0734,430.9538,-174.14917
658.5415,968.0279,-148.74866
445.11368,1628.3662,-281.68304
7.583002,3705.732,-433.4228
-947.1121,4607.128,-448.53885
-1535.0326,3773.2651,-271.25742
-1403.3577,1831.5013,-125.21814
-1190.1855,790.0097,8.171619
-1070.8307,-44.48778,-151.19354
-1113.1202,-325.6629,-172.70006
-1051.2906,-510.67795,-86.171745
-1087.3442,-644.10364,-108.43984
-1111.4343,-471.5898,-137.58716
-1376.4443,-131.1587,-64.10281
-1469.4702,54.780235,26.446548
-2565.8845,1277.0403,67.69288
-3859.6099,5005.235,645.2406
-1992.4487,4311.2407,280.3383
-393.5141,2082.1929,-65.280556
535.56647,1661.1251,-113.40821
849.1207,653.62714,-119.068436
1215.926,420.0902,-122.76625
1049.7941,375.54398,-276.7534
905.61145,654.61273,-126.351746
704.9044,661.3741,-194.58585
392.43512,1175.1705,-200.2139
30.503242,2633.8564,-47.39074
-848.9102,4665.7373,-233.04407
-1436.424,4019.15,-187.76279
-1663.7919,3199.8188,-81.75016
-1502.4061,1220.2104,-84.10179
-1147.5449,300.52512,-72.518295
-1164.364,-416.31927,-226.59048
-956.37286,-795.5259,-157.02426
-1028.4639,-956.37195,-184.00143
-1177.5765,-442.28802,-2.2333806
-1282.4204,-225.16193,-46.40666
-1368.6313,18.297968,33.384872
-2286.3438,705.66846,-34.268456
-3788.8948,4623.8076,395.28278
-2376.4634,4791.827,224.48282
-594.9905,2186.2847,63.62926
270.4314,1521.2555,-10.522844
757.8322,879.00696,-100.241425
934.3206,538.8623,-132.92743
1027.3291,526.0514,-204.23865
908.6811,298.2476,-201.5485
738.7992,721.187,-88.41808
506.22726,981.0821,-35.385895
321.9044,1348.4333,-28.582369
42.81055,2797.1042,-91.28851
-705.06036,4396.3774,-103.29224
-1296.337,3768.5935,-17.836805
-1185.0878,2295.7488,-19.171953
-996.6381,929.6326,-33.881386
-993.906,332.57797,18.234726
-1175.0393,-439.51712,-62.51955
-1074.9655,-688.3267,-86.8703
-1166.3844,-694.7668,11.038067
-1207.6635,-381.5892,82.49604
-1157.8317,-290.0502,47.907036
-1398.8734,-34.475124,56.99234
-2092.291,406.87836,-96.830696
-4128.3506,4264.247,426.78003
-2666.6096,5398.95,209.6673
-742.42834,2193.697,-86.237755
93.4717,1397.5809,-157.68509
621.37604,743.58636,-104.551704
869.82916,582.24475,-81.81603
1003.2349,344.7648,-154.75883
889.57544,328.15027,-176.11601
821.1421,542.56757,-75.65475
560.85626,1062.1914,-89.81001
396.2603,1326.5103,-210.80629
100.9425,2719.9854,-245.47928
-753.04474,4889.9272,-314.27713
-1768.7896,4348.502,-246.26344
-1785.2317,2252.1284,-33.64205
-1480.6237,1041.1255,-33.027523
-1417.8274,391.07208,26.421679
-1395.9174,-502.61752,-93.96288
-1068.6444,-909.31134,-150.79065
-988.08105,-851.8694,-112.61533
-1110.1437,-500.50293,42.70004
-1198.015,-253.56638,-19.56901
-1434.5227,-163.29213,99.02516
-1823.2958,-6.794104,-92.15803
-3730.2961,2622.1755,505.34708
-3498.8572,4443.061,707.74457
-1757.4622,2773.656,119.96515
-597.4475,1889.8904,-14.047015
258.33218,1428.5592,-140.07521
719.1417,1003.1311,-51.05924
1134.5382,728.72144,-157.805
1056.2202,714.37134,-137.49513
882.4388,1057.2842,-8.477333
498.17996,1156.1614,-79.2246
95.264534,2128.203,-211.87355
-1064.4348,3464.8464,-370.1968
-1981.8694,4161.2534,-372.7213
-2344.544,4405.4873,-214.34596
-2486.318,2829.2292,-253.2968
-1977.1449,522.3795,-244.2948
-1589.8865,-547.8367,78.06766
-1370.6097,-799.64764,94.813644
-964.37866,-911.589,-92.71091
-1031.5967,-865.2472,-236.46754
-1319.0151,-358.47662,-328.8506
-1515.8939,28.572588,-272.63907
-1573.0148,204.17056,-43.572666
-2665.8342,1342.1293,-263.4085
-3615.596,3978.1636,359.54318
-2296.7087,3840.4653,418.49707
-1192.5814,2588.7002,216.85445
-265.48703,1925.8406,124.762184
554.6885,1139.0461,36.692608
880.16925,1022.769,-56.342396
1006.9192,878.97485,-176.8727
870.30347,778.56903,-179.1651
636.87506,1075.6771,-118.06639
379.62582,1235.633,-197.61021
189.91951,1430.5378,-229.28635
-539.4999,3206.391,-234.5358
-1479.4128,4013.7756,-314.5298
-1823.8011,3725.399,-106.82254
-1965.1245,2906.452,-214.5844
-1615.2015,1134.397,-172.98459
-1535.4441,206.08353,-231.44823
-1345.4207,-446.78333,-277.21655
-1030.598,-870.2447,-350.26877
-1116.6571,-1138.2986,-217.30882
-1312.8035,-476.57632,-130.20366
-1613.7799,-197.49886,19.212198
-1611.491,137.99965,210.09805
-2682.7603,1136.4763,13.228274
-3662.5693,4097.836,230.52162
-2078.4734,3952.6343,203.1258
-967.5332,2589.3306,91.07
123.21977,1845.4249,78.86304
658.52576,989.69934,26.699963
932.08856,811.70703,50.45798
979.716,614.4612,75.9758
880.8571,635.0583,33.543827
614.1176,751.62897,-6.479236
301.01645,863.0404,-67.12165
2.1827178,1563.5171,-169.38911
-863.92175,3908.6572,-142.20064
-1785.6749,4043.5864,-147.1204
-1947.4918,3028.918,-80.31821
-1923.6458,2388.4375,-22.281418
-1564.7688,950.7388,-41.55195
-1386.6212,143.79918,-131.59746
-1172.5127,-587.8895,-116.60775
-987.11066,-618.65515,-74.87418
-922.75464,-959.2808,-96.471344
-882.31506,-661.49976,-182.16542
-1202.3888,-424.104,-140.00781
-1265.6847,-13.349276,-81.11305
-2101.448,503.72623,9.904837
-4221.5474,4771.71,741.28784
-2352.6318,5058.6455,347.67648
-557.92725,2066.9756,108.324646
330.13754,1363.9634,55.887577
801.40027,389.07822,20.683119
919.8805,265.4835,11.841541
787.66437,223.50052,-62.331707
686.1931,362.49448,-45.05982
626.294,421.98407,19.153324
562.78973,772.725,-99.08134
435.09772,1336.2272,-155.0946
-64.70496,3666.2808,-322.09912
-1550.4333,4795.891,-324.3604
-1819.6466,3133.815,-112.643196
-1483.3387,1749.5348,18.378143
-1309.6696,870.1852,65.57523
-1085.7914,154.81213,-45.12497
-881.38696,-330.94452,-110.21345
-923.7805,-543.71265,-234.20496
-1013.0541,-842.0503,-257.24557
-1071.7389,-451.13162,-163.03227
-1163.4542,-334.90186,-61.381443
-1214.8374,-86.996735,-22.93444
-1761.0571,240.76884,-63.175438
-3842.4978,3735.3145,478.58292
-2572.964,5504.9062,362.53906
-790.29144,2443.76,90.7076
105.75919,1509.376,17.971811
644.61554,574.2827,23.748915
948.24304,448.44965,51.785107
1054.2987,251.67532,-4.015047
864.1324,337.8471,-40.608288
684.0579,288.84933,-40.010666
468.70145,678.19696,-2.5950122
276.3386,1250.3209,-129.76044
-70.34876,3351.2532,-222.95798
-1605.8813,4847.2095,-253.82126
-1984.0743,3085.8281,-88.29804
-1552.8887,1856.1339,-5.1324067
-1427.9043,1098.0508,2.6652055
-1147.9011,288.78946,-37.303864
-1151.2347,-362.7496,-101.67587
-1001.8324,-631.9341,-134.17503
-1088.9954,-658.1035,-2.4588196
-948.4273,-514.5575,32.466545
-1133.8896,-338.0143,80.23086
-1100.0676,-100.78575,73.32406
-2092.068,819.9344,-101.89652
-3610.213,4643.5615,371.6348
-1800.2334,4318.5996,248.74231
-474.97607,1841.7449,-69.21609
358.92422,1295.919,-132.48105
591.08105,580.0515,-68.67342
803.8236,421.52795,-50.548405
872.5342,327.58325,-120.79757
836.02625,361.67346,-114.460106
692.99365,494.3501,8.5526085
533.2855,1053.4446,-144.35757
349.7878,1963.0416,-303.52628
-246.40982,3699.8728,-285.80447
-1099.1051,4232.1255,-275.7807
-1639.9967,3220.5771,-95.206505
-1368.4587,1436.5371,-52.423794
-1190.499,599.89966,-49.268394
-1089.785,8.063584,-151.66676
-1199.7227,-299.91824,-229.28021
-990.41675,-556.42004,-241.12686
-1070.3136,-507.36124,-119.05329
-984.2877,-393.63672,-55.195053
-1225.5026,-206.22952,187.21623
-1181.4708,-55.323757,47.17849
-2652.183,1523.879,128.10895
-3923.1445,5262.549,865.4974
-1641.43,3882.9282,251.93903
-272.21,1790.3423,65.98742
460.18268,1324.2448,-52.300713
824.6043,442.01675,-90.244255
1044.5775,224.07716,-40.293808
951.56036,156.80772,-76.0417
837.35034,396.8617,-89.28197
669.39374,527.71906,10.55647
509.4982,983.9594,-97.37206
231.35258,1896.8048,-210.28757
-571.1775,3965.472,-394.2391
-1230.6139,4435.4946,-422.85297
-1747.272,3651.5461,-279.47452
-1701.4309,1830.0039,-184.8566
-1424.4204,698.2151,-91.425705
-1275.9017,33.18717,-40.393612
-1182.6782,-436.06564,-96.504074
-1095.1367,-924.71954,-134.90819
-1049.4191,-935.8724,-53.10867
-1122.9591,-547.5593,4.9248075
-1288.8267,-242.04034,89.33997
-1428.19,-183.00127,-54.82889
-2545.7551,808.143,72.88288
-4099.1855,4091.3228,588.7159
-2553.174,3990.2346,279.01205
-1275.4458,2346.3438,81.33206
-81.60921,1765.939,-55.675663
377.38684,850.8841,-100.87943
844.5259,739.1292,-125.715454
904.8682,536.4393,-129.61926
743.86566,875.8901,-95.7161
550.992,844.4399,7.6947656
412.6657,1312.701,1.6349225
165.96468,1489.9537,-118.755264
-435.0448,2628.1938,-215.33665
-1853.4811,3533.0618,-127.14181
-1920.6515,2980.0562,-85.91753
-2064.5698,2239.2925,-69.93656
-1658.6598,1250.0415,-30.034803
-1472.7527,140.22298,34.527122
-1130.3644,-512.16174,-40.97098
-1052.7479,-903.9654,-210.81052
-969.61414,-884.37506,-278.50333
-1270.7561,-835.1657,-193.05144
-1250.126,-355.37964,-188.79297
-1344.5654,-290.19986,-27.755125
-2070.4436,785.17957,-91.204994
-3387.2666,2783.5024,54.800053
-2397.1985,3783.5537,208.14964
-1155.1355,2834.4158,71.32525
-215.98395,1838.6228,32.04572
198.51694,1255.5841,8.084263
535.8655,848.77484,49.59754
610.51874,681.6507,21.239517
730.0703,600.30896,50.004406
493.66516,530.2945,43.93103
425.22632,666.57837,128.63231
40.722523,1102.8535,-9.752569
180.73433,1811.4879,-122.23227
-805.28674,3927.433,-208.19614
-1629.6471,4365.691,-312.60535
-1916.8899,2949.1392,-306.92404
-1568.603,1546.3545,-220.40883
-1344.6635,353.15225,-170.16817
-1120.9437,-175.22507,-222.92444
-1071.8182,-789.3386,-209.94972
-954.821,-1031.0999,-213.76845
-1026.4008,-756.6836,-164.5607
-969.4817,-274.90677,-102.325325
-1350.6812,-247.65097,57.718063
-1273.9845,17.517681,-95.59418
-3271.1018,1325.1906,138.65869
-4496.962,5368.517,654.24927
-1780.2551,3820.0552,97.00272
-474.95084,1651.6046,44.382206
383.90182,1160.6744,-100.82876
721.99805,500.82123,-23.333197
905.988,414.3178,-96.10053
855.01044,467.16907,-174.41672
743.57056,419.94604,-164.69032
579.221,604.27405,-37.817543
376.16553,1177.5084,-82.681076
49.8848,2156.6526,-110.93382
-887.01276,3731.8616,-301.52252
-1817.9087,4120.7207,-130.68051
-1955.5471,2689.7021,-92.15838
-1658.1609,1258.8501,-43.334286
-1195.5209,390.72186,-37.898556
-960.87897,-98.10118,-60.668865
-898.7045,-369.6117,-121.07651
-851.8562,-445.69223,-107.62848
-897.96356,-531.9427,-86.2937
-826.0048,-553.33307,-129.58818
-1147.8248,-378.4031,-109.57383
-1106.1039,-116.52612,-161.59518
-2680.1204,1459.6694,296.66553
-3709.5098,5376.84,932.76526
-1510.848,3840.6868,234.41846
-332.08255,1758.9043,56.354538
492.06842,1187.5579,-64.60315
648.7739,415.70007,-62.375282
946.087,217.61888,10.129307
948.89014,315.20477,-89.1033
881.91034,455.43246,-138.91104
690.3254,400.83173,-32.76387
555.2081,718.0933,-124.05167
222.26793,1703.4846,-217.97041
-362.74756,3612.1096,-237.49141
-1401.0255,4171.7915,-123.09404
-1739.2953,3322.3328,61.321323
-1696.7471,2242.9426,70.0745
-1410.3579,1176.6681,49.58298
-1277.9193,291.27582,17.91357
-1088.3024,-261.43832,-15.422573
-1044.013,-539.3938,-6.147668
-1008.32544,-676.7087,-3.1088836
-1022.9217,-667.97687,-7.324051
-956.63403,-391.8653,-40.05686
-1112.9314,-210.48901,18.879854
-1410.2025,199.28812,-119.98878
-3463.4048,2774.9836,454.4701
-3397.4692,5403.1675,708.76215
-1237.9746,3123.6587,98.865105
-23.448664,1606.602,29.184904
611.08295,913.7895,-61.401855
845.504,440.79507,-44.69163
1071.9878,193.28015,-221.91946
1004.2252,393.6888,-187.0057
790.657,723.7467,-113.79909
576.9161,719.86884,-105.06361
345.39856,1021.0851,-254.259
157.48154,2346.8237,-404.9142
-1060.473,4461.6846,-678.77515
-1967.6119,4348.2466,-408.85095
-1932.5787,3082.529,-114.375145
-1766.8298,1771.8883,-48.84089
-1380.1531,477.54034,-33.21034
-1245.4048,-121.073006,-15.73375
-1034.7887,-550.02704,-93.35059
-1001.38367,-809.07886,-140.74352
-814.05286,-918.8156,-123.4509
-831.7847,-449.9234,-48.078403
-921.788,-166.03381,46.85435
-871.03375,-12.912697,-7.7772512
-1794.0774,791.3799,-24.125597
-3394.8845,3084.4087,676.1094
-2813.534,3149.6953,849.7417
-1795.1333,2001.1707,519.3447
-940.0987,1671.5736,381.3783
-496.3677,1068.1023,232.30945
-12.167035,637.7423,61.706333
207.97832,486.0219,-105.76985
453.25662,463.29324,-95.89503
372.61636,569.7233,42.530563
412.36893,750.9033,146.34319
-24.303886,947.2199,117.73046
-174.12576,1007.7829,-23.244692
-2290.1472,1833.4037,439.98914
-3028.2642,1345.8378,414.2915
-2389.013,402.4627,53.71256
-2395.4268,491.4633,211.35239
-1938.3988,383.90405,240.19656
-1750.1394,220.88373,236.32977
-1263.9388,86.03671,11.725653
-1019.2667,196.68489,-33.36108
-996.12396,126.20248,-11.59595
-798.6726,84.25245,29.378017
-680.04407,91.62147,-50.02843
-678.48425,24.368038,31.175034
-563.77716,-0.63803506,119.29745
-535.426,144.36049,185.55518
-517.37634,302.9567,178.97867
-522.978,578.37085,374.84894
-806.1332,1187.0109,447.98315
-1029.5554,1534.087,491.9082
-992.68134,1150.5535,602.51587
-973.4266,1148.9851,633.76685
-666.9627,1042.5826,394.1336
-491.7302,838.26404,354.80063
-331.85684,649.3957,300.4628
-367.74173,459.60825,330.32886
-391.86618,454.91168,266.52222
-565.77637,620.7264,368.3701
-670.2759,713.8731,379.65018
-811.6063,669.1173,447.81848
