# PAMAP2 dataset (wrist-mounted sensor)

acc_x[mg],acc_y[mg],acc_z[mg]
-1096.7502,2746.8386,215.64279
-323.76288,1725.8907,99.37849
275.38797,986.4333,21.221138
642.12964,557.7856,-2.5096886
807.61676,309.29538,-51.309296
779.6608,415.82407,6.0136275
647.1144,492.10858,95.56115
542.935,578.6342,118.490036
318.94513,842.18207,29.423037
248.85495,1604.5938,-47.98113
-453.09473,3708.3489,-177.51245
-1327.3116,4211.475,-184.66049
-1588.6189,2790.278,-106.28877
-1439.7201,1501.7784,-54.5554
-1186.5151,470.89954,-15.941426
-999.5052,62.796112,-50.8114
-846.7169,-387.22046,-136.64134
-779.98065,-585.5722,-169.24887
-816.5457,-664.4899,-107.83555
-845.68774,-357.2677,-59.348034
-923.31573,-241.98717,40.436592
-1059.637,21.697117,-95.87675
-2376.9055,923.8851,79.59382
-3881.6406,4688.452,634.6652
-1922.9059,3947.4475,342.5047
-546.12933,1808.2411,107.03232
308.09247,1292.4652,-35.67931
646.1338,493.99725,-35.04563
893.7184,312.30438,-42.23597
747.6715,264.93616,-0.8613769
776.7044,448.72623,-14.373853
590.4784,497.52057,32.875187
528.2873,819.75287,-9.4244175
344.6028,1374.6812,-48.661736
-15.923386,3003.3696,-84.67401
-1214.4154,4350.7437,-213.85481
-1616.7544,3386.9683,-107.18347
-1439.6417,1938.0739,-12.278773
-1135.1259,1112.7305,6.4181924
-1002.17114,308.44638,-21.54008
-785.39545,-48.827255,-104.84416
-878.0266,-401.6346,-112.51446
-741.74786,-470.6622,-84.052055
-884.2429,-566.9362,26.986406
-715.286,-310.8186,126.0997
-1081.8033,-301.86887,123.390434
-1065.5756,-12.520876,-71.24492
-2510.2544,892.85114,56.362175
-3695.096,4939.1006,192.42657
-1712.0128,4522.642,83.53688
-418.88797,1873.5261,37.834938
279.9218,1135.0283,-111.62693
536.8282,325.10934,-77.84379
798.39526,235.83574,-143.18275
754.61884,263.6779,-88.01367
726.83484,490.11252,5.939716
638.22266,468.2973,113.88229
469.78217,841.7688,54.95255
262.28372,1412.6725,-34.744053
-133.16577,3061.2078,-171.03203
-868.22845,4125.839,-142.57193
-1553.4757,3602.3228,-17.724073
-1553.7318,1946.9711,37.066277
-1273.7471,985.8651,37.693794
-1155.3809,379.4759,90.231125
-982.3144,-79.87323,-47.377853
-825.4037,-485.7358,-140.29652
-674.7231,-649.1341,-98.30497
-821.2462,-561.10345,-65.210335
-815.6713,-241.28783,-4.4603443
-1054.8241,-151.8751,123.832214
-1058.0468,9.693545,4.769147
-2789.2517,1951.4259,167.25966
-3075.4026,5215.3955,431.45135
-1137.7775,3548.6523,149.86443
-193.04977,1753.451,78.95931
450.63196,949.5744,-17.984106
684.6596,420.39447,33.548195
869.75195,271.994,-23.82879
748.3078,381.34814,56.408714
623.7421,406.4672,104.34256
451.96835,492.0971,146.99725
314.99106,755.14496,46.88962
104.064125,1846.3695,-12.21739
-290.13147,3363.108,-190.81319
-1070.9019,3992.4482,-213.33847
-1428.9336,3118.5872,-131.67476
-1332.3411,1528.3163,-80.42456
-1027.8375,707.7308,-59.937836
-941.9518,270.18375,-101.90776
-844.321,-164.91989,-182.52386
-948.2767,-293.6526,-172.99712
-822.9115,-651.5652,-250.93813
-948.368,-597.55475,-82.30489
-901.3415,-175.2092,14.466748
-1098.2839,-100.985634,195.74481
-1140.2861,113.4721,19.591227
-3212.8816,2143.7466,492.9162
-3051.7437,5356.829,710.2401
-1172.7726,3009.7998,300.032
-103.18557,1557.4834,184.36662
502.0187,1071.1562,109.14253
742.6301,647.4291,130.79987
930.3826,312.9392,-2.4576752
781.44006,395.22983,4.6571507
635.2556,491.16644,41.968174
499.80515,538.3826,67.195625
197.18353,1014.78687,-36.200485
67.94084,2257.173,-107.35137
-930.3623,3741.2974,-150.2686
-1654.1454,3449.0037,-58.20598
-1534.7002,2114.4973,-63.233196
-1334.6466,1387.5629,23.720018
-970.879,532.1217,15.510793
-820.62537,22.950111,36.17101
-718.5577,-289.688,-53.30347
-765.25903,-363.18503,28.597391
-826.7404,-501.3461,75.418175
-827.06,-408.97733,21.483316
-952.0193,-408.73666,43.03762
-1099.6979,14.25283,-21.842648
-2244.2537,1025.5654,190.67464
-3445.855,4295.193,627.64514
-1759.0491,4114.0537,239.22873
-526.9298,1803.2109,8.401044
254.36584,1292.7545,-101.46627
476.8653,667.15594,-32.392464
778.2736,482.6618,-66.19757
843.089,333.25165,-118.81993
779.6191,381.36124,-129.46413
621.6442,433.52182,-47.12427
523.26776,763.17523,-114.71327
344.0046,1691.0151,-169.24033
-246.8097,3389.9229,-264.6945
-1103.25,3966.3022,-190.68878
-1306.0084,3021.6318,-70.020645
-1392.5764,1634.2344,-31.804083
-1155.8871,701.17633,12.574854
-1126.8795,152.26047,14.214192
-1055.7155,-179.763,-79.77794
-961.61505,-345.9884,-71.42843
-793.3685,-501.3554,-93.54185
-765.833,-473.38446,-93.254166
-827.7815,-244.78735,36.13426
-996.95374,22.32426,146.88747
-1548.7588,444.08118,4.608274
-3344.1719,3405.314,290.5238
-2142.1016,4763.151,281.3178
-607.4924,2363.2175,132.22511
130.97926,1585.8444,-77.37353
546.46674,822.9439,-70.52437
819.7563,511.21252,-90.73075
864.0852,340.24707,-131.39441
732.0435,541.1671,-78.206245
614.5556,454.8651,-8.307283
452.56882,679.8676,-59.319153
275.9998,1286.3384,-91.11084
-112.153175,2873.7185,-191.86406
-1149.096,3931.0698,-211.6493
-1559.3136,3403.7566,-162.06268
-1488.1729,1924.5732,-98.52458
-1154.5908,1015.0859,-15.699714
-1043.3158,271.16943,-26.411268
-896.7964,-195.45148,-66.65376
-904.4976,-408.39667,-57.10503
-814.24,-385.59912,-0.72413486
-932.35754,-508.3342,26.253975
-880.40594,-353.67755,-9.527441
-1087.7156,-230.84944,62.753506
-1190.002,127.23527,-65.8969
-2813.3025,2235.6516,144.9964
-2819.39,5023.9595,371.55502
-1029.266,3260.6003,88.79642
-62.652798,1876.8672,37.01268
493.93594,1126.7073,8.040495
803.3105,618.1524,54.57668
979.8898,286.76984,-36.8775
816.2485,394.1766,55.625687
622.67004,396.12222,112.149445
455.72852,665.2518,134.3175
315.5234,844.6562,-41.498207
147.65602,1954.1438,-129.87047
-653.30725,3721.3389,-261.50424
-1633.7034,3921.2498,-282.05884
-1649.1305,2425.8728,-156.15738
-1322.6349,1406.2253,-98.94677
-1125.235,588.4646,-48.69498
-962.9329,126.240395,-9.685039
-898.4384,-355.2917,-38.69862
-820.90607,-418.67935,-51.393894
-869.22626,-647.68805,20.185057
-759.8216,-458.2999,29.227009
-1034.7719,-367.63516,116.86758
-1032.5956,-49.690323,-19.586555
-2303.0635,749.10736,200.11002
-3902.0625,4652.153,856.5816
-1713.1353,4274.3486,335.2903
-415.26877,1995.4481,42.51647
386.74854,1231.8583,-98.7254
730.7137,485.9537,-97.36948
907.2133,385.23477,-72.9692
841.1175,443.5652,-80.18597
791.4963,400.1509,-106.180275
608.7436,427.80258,-5.4719176
448.152,831.6775,-55.361748
267.1021,1462.5333,-169.99567
-249.89746,3324.902,-337.75967
-974.3686,3911.8499,-220.97992
-1217.3348,3258.0115,-39.87625
-1550.3385,2119.3628,-86.87392
-1206.9253,944.7315,-40.288
-1137.8174,553.4753,-4.148099
-961.5277,143.71939,-65.08046
-966.2101,-419.35596,-181.9113
-745.65106,-919.4957,-30.533968
-849.6312,-749.6821,83.85156
-863.805,-587.43054,189.75407
-1187.8226,-159.92897,37.03485
-1644.5475,281.06064,233.9399
-3552.6733,2859.4912,494.4287
-2647.4167,5364.8506,263.4276
-947.3872,2802.1038,337.16202
57.68054,1449.2441,-46.908867
461.9503,988.1753,-124.07168
713.1325,661.8592,-165.2222
785.13794,582.27716,-190.18562
893.791,323.27582,-231.89264
689.1258,397.99835,-116.624954
734.39667,340.28714,-129.35233
405.34467,623.10565,51.280155
581.3673,704.2973,-35.73117
-1507.9413,4578.559,40.878906
-2602.9368,4771.913,56.851643
-1583.2417,1996.2526,153.92542
-1443.2705,1813.919,102.629616
-1175.338,543.5007,43.657116
-1263.4904,-32.05466,-17.079119
-1084.3861,-886.25885,-208.93326
-923.0076,-789.7847,200.51106
-885.7833,-542.257,480.9212
-844.8978,-595.4712,142.60803
-1069.7175,-770.3255,168.47755
-1249.827,-357.03915,53.364994
-2574.2524,1382.4631,449.33643
-3321.6033,5412.117,1102.9827
-1457.4891,2999.8154,545.24146
-687.5783,1852.7157,508.81848
217.67038,1587.5734,290.54605
557.0476,645.81744,139.44604
898.35504,258.03693,-13.774906
797.05853,236.21329,-110.809525
915.4607,397.6204,-215.1474
618.8259,565.07446,-87.26616
447.96,832.4468,-1.0065333
111.880325,1303.738,201.09209
-106.63564,2715.8071,81.02198
-1159.8434,4038.2046,-230.41537
-1800.0579,3592.3025,-85.50615
-1614.8236,2056.0513,-74.11395
-1245.0354,1075.6929,7.405113
-1087.502,264.11957,33.19567
-949.9456,-123.591644,9.489138
-952.634,-466.7268,-46.335976
-841.2217,-463.8871,15.330096
-953.92334,-425.5566,89.31903
-763.23566,-376.4531,42.05521
-1009.1956,-286.16824,83.26114
-1045.2728,-59.33217,-29.025791
-2400.5562,1336.3844,143.66026
-3603.7441,4925.9976,633.8117
-1628.7024,3655.6511,302.99124
-400.4344,1660.475,41.1496
237.49269,1170.5225,-94.50507
568.6409,551.6273,-101.85672
780.0115,329.9682,-116.42611
741.90356,310.1977,-40.56116
678.47,363.28708,-69.13319
577.3427,411.23242,37.5404
417.96017,671.49304,5.992951
239.60078,1453.5963,-79.84099
-333.8886,2985.9448,-247.73822
-1306.6477,3971.613,-161.48369
-1552.8284,3168.1348,-79.21523
-1401.9019,1814.1359,18.764559
-1176.9316,770.2291,59.989475
-1073.9227,121.62717,49.47916
-939.07806,-381.40637,-2.5459845
-894.16437,-476.25504,-0.26663816
-897.69135,-554.8477,31.169827
-847.3704,-514.10486,-28.769806
-941.9973,-359.09653,-38.81723
-999.2796,-9.240756,37.717525
-1699.0645,419.05548,84.868645
-3491.826,3846.5483,908.6262
-2071.4775,4283.8096,636.58777
-607.4035,1646.6637,229.93887
221.97142,1475.9493,191.05766
670.2176,558.2389,74.85204
882.1169,293.03345,41.461567
756.90857,194.18964,-8.395142
643.2863,417.75198,46.91383
539.64343,321.63818,52.959454
400.18878,665.8556,8.539882
308.7325,1316.0771,-147.29361
-297.9299,3720.432,-234.26384
-993.9324,3792.0405,-210.27782
-1123.5194,2909.244,29.920406
-1201.7568,2088.8748,30.062462
-1047.3223,977.55304,99.437744
-988.4704,300.1845,54.774284
-1031.1482,-251.39352,38.782784
-1080.0603,-437.4106,82.91833
-1084.462,-441.314,119.18157
-1049.0822,-385.16602,75.746956
-909.75195,-184.03183,-3.8138459
-1066.8668,26.061827,-62.243107
-1623.504,553.86646,-142.54079
-3193.3967,3352.6736,294.06653
-2134.4746,4888.232,73.498024
-566.24207,2488.022,-110.060974
224.84099,1704.3442,-80.94602
554.3987,895.183,-165.43915
722.74347,472.15945,-140.29019
781.3423,321.85724,-106.367584
796.70825,341.6266,-34.90356
817.78723,86.307526,-26.07447
690.4301,445.7534,-32.712906
458.48563,793.9517,-76.65678
-162.3623,2875.0303,-68.64697
-1462.5562,4493.8184,-225.33244
-1602.7189,3123.7527,-93.94277
-1481.1068,2272.6829,-151.65866
-1149.8386,1120.8094,-174.13773
-1092.7445,522.38965,-9.875899
-981.3204,-55.210823,132.45052
-922.9683,-358.44266,62.895077
-842.37286,-660.64685,161.32066
-938.478,-620.3662,83.5065
-911.2724,-405.20645,64.387314
-1162.7959,-180.94864,23.940111
-1214.0294,-63.809605,-127.30645
-2564.7944,2457.9102,-406.7318
-2816.7117,4845.1895,-141.78333
-1288.0259,2996.943,30.952818
-232.40102,1794.5543,-96.67845
389.07162,1204.0859,-1.0729035
751.47626,492.15485,-18.99475
819.4721,148.80807,-14.505001
703.7101,145.51295,16.655111
548.6154,352.48422,12.716213
497.2614,524.1541,52.07207
413.4089,722.9203,-75.4361
411.89502,983.5424,-281.0354
-5.407415,2999.9446,-398.16003
-1139.1887,4433.0225,-495.85898
-1585.6862,3170.5747,-177.6036
-1445.7031,1937.0948,-70.38578
-1171.3604,832.5307,26.52509
-1013.01996,225.30508,66.943504
-927.7876,-257.43066,50.936153
-970.3244,-432.55054,-32.378777
-870.4914,-513.82275,26.003536
-858.23505,-428.9019,24.13015
-781.8485,-399.2303,56.522232
-1051.1653,-48.996,41.93822
-1267.1427,285.35886,-76.65526
-2985.4587,2745.0007,394.20673
-2520.73,4728.968,423.31204
-879.3769,2355.0383,83.11416
-95.89014,1570.5134,46.908985
364.38278,980.14514,-51.631844
540.70233,504.92627,-2.1954198
704.7787,190.8418,-88.51568
609.3403,314.62238,13.392354
650.2384,306.3324,35.141705
500.09433,508.1455,43.22537
458.14008,723.1461,-97.111336
192.63408,2112.0288,-185.40059
-638.9627,3942.5627,-373.19983
-1390.8054,3873.3943,-244.58481
-1459.1989,2522.9355,-93.4598
-1308.2643,1318.4772,-18.798103
-1197.9054,551.85815,-32.12611
-1043.2719,-14.497107,21.517769
-927.81915,-327.9449,-38.420013
-812.88666,-323.98465,-27.059414
-748.8862,-580.86523,-45.925606
-700.7571,-447.59674,-23.555279
-850.6324,-340.22202,12.981086
-931.36646,59.570602,37.994038
-1457.5046,440.24457,75.054375
-3476.01,3893.619,662.28766
-2155.7002,4813.519,473.77383
-619.9758,1860.1165,153.53131
67.101265,1381.2935,106.41774
550.83344,464.35397,78.877914
839.8121,277.78342,-0.37729198
789.2433,66.24834,-42.573677
704.77106,398.7623,-26.531466
613.63086,373.01303,6.850112
508.4492,623.64014,-35.2652
365.02072,961.5862,-98.39782
0.2806982,2977.3164,-261.59903
-1225.0038,4052.5273,-330.57748
-1529.4102,3150.7837,-111.448006
-1511.9474,2137.9863,-45.736496
-1219.1217,1139.6123,36.472412
-1058.7815,352.72324,27.747839
-834.9986,-222.80124,27.768505
-929.32666,-520.8311,-3.2983031
-830.77356,-501.15466,-14.456533
-893.24225,-508.7261,26.606531
-727.63116,-369.22446,-6.1708837
-1015.32227,-111.72873,121.88105
-1021.14026,220.8199,-35.007008
-3105.4753,2026.2725,677.98944
-3088.4048,5109.874,579.39655
-1031.4948,2751.883,120.29497
-154.14316,1352.6714,115.80176
533.63367,828.843,-43.70298
636.7377,435.96432,1.8219552
805.07806,221.53282,-67.128975
712.98267,237.13177,-0.40035808
617.78625,286.3377,36.255398
469.9514,529.95636,128.44098
309.2004,882.8557,69.29381
201.29231,2013.6903,-144.25291
-754.07794,4088.492,-289.60947
-1603.868,3701.263,-334.97205
-1442.0912,2411.9524,-268.45706
-1280.1915,1653.6581,-27.165323
-1183.3436,654.31616,-16.950148
-1034.4844,-6.8436284,-3.941609
-862.5144,-588.8351,-34.581043
-834.98956,-680.81744,-19.211266
-898.1566,-603.38745,21.325464
-833.1861,-189.06981,-10.944933
-975.87213,-284.4373,35.051567
-957.1834,-57.50085,-69.104324
-2116.0537,874.19604,244.25876
-3686.5234,4608.3237,709.92334
-1788.862,4250.1875,185.2573
-532.48956,1842.0836,40.495953
329.9619,1443.3363,-75.71392
598.99475,506.2149,-64.47746
856.2615,304.9991,-77.08751
794.0368,169.40622,-67.666084
731.2941,364.00455,-61.194607
630.60376,279.8215,23.059101
560.6725,563.9002,-49.27188
411.03516,942.88574,-79.635216
28.536043,2905.7063,-245.22713
-1289.7535,4382.004,-337.9319
-1556.5409,3132.2583,-118.832184
-1450.0793,2022.7212,-51.161312
-1184.6243,1175.3884,-38.20952
-1017.2055,325.44714,-26.302147
-874.14716,-93.42627,-40.733677
-878.11224,-204.98462,-111.89509
-679.6336,-109.99576,-56.232487
-894.8932,-288.05106,-38.637657
-653.2213,-349.6459,16.958113
-995.11536,-385.59882,39.08778
-764.1449,45.08939,-36.671448
-2343.7883,1291.0465,459.9311
-3187.6182,5363.594,368.19614
-1260.9226,3683.6355,81.3652
-91.9507,1290.2349,20.414211
552.4305,1245.0951,-99.29049
584.5718,572.6215,-49.901215
798.6063,298.7135,-32.271954
815.3568,89.32379,-46.692997
721.74805,264.2136,-35.89907
630.9798,383.68463,-35.064285
458.67697,744.17163,-104.99685
276.9539,1966.6626,-172.37866
-441.73825,3885.199,-354.17126
-1416.8857,3852.809,-201.44351
-1515.1145,2601.8516,-28.942698
-1313.1543,1436.0674,103.08576
-1136.6339,714.08185,50.8661
-1045.7354,-26.186357,9.626522
-913.1882,-326.2057,-37.59425
-825.2187,-409.96323,-27.566608
-786.1413,-328.66788,18.209492
-707.3809,-369.37842,51.44015
-906.6179,-251.52048,91.38582
-845.2777,-117.23919,31.474293
-1536.3219,869.23706,-10.519838
-3064.0007,4400.7144,823.3764
-1584.6534,4040.514,525.04407
-426.88574,1664.1434,168.42584
235.52245,1413.6259,95.5404
473.6521,649.0995,35.416798
744.9002,375.97305,19.392365
722.3078,58.184853,-28.297787
666.4987,308.0535,25.981462
528.0286,307.3308,82.07147
450.5504,614.30707,122.04376
264.21347,800.1579,6.7497864
50.624676,2438.6433,-107.45255
-1143.3812,4044.485,-145.40428
-1499.8904,3425.5166,-35.172092
-1404.5588,2118.597,-8.6568985
-1161.602,1263.1166,42.821793
-974.21545,431.45276,36.908443
-828.90985,80.633415,17.07723
-886.6735,-306.84976,-41.410717
-888.8288,-316.1263,-28.194891
-916.6817,-564.0841,-31.47306
-800.0705,-451.58832,-5.399567
-1029.7262,-362.7119,86.7308
-839.2813,167.29312,15.948402
-2361.1973,1474.155,289.82217
-2961.2659,5272.004,419.08212
-1002.60834,3644.1958,122.55878
-89.0543,1588.8784,46.856598
464.63687,969.6543,17.060202
743.75104,313.7227,60.594666
871.989,120.123314,-55.816193
787.1093,87.205986,-48.09971
704.6386,203.27003,-37.566742
578.39526,424.497,-1.0207505
433.12128,700.5394,-16.821896
199.31091,2366.4631,-184.42572
-734.7106,3924.0642,-282.59018
-1258.007,3167.8435,-17.15464
-1274.734,2442.0833,75.8815
-1241.8158,1518.0862,119.01289
-1005.0097,685.9833,99.760895
-915.34906,173.77925,106.7934
-846.8843,-255.7956,-1.1851954
-803.42175,-377.325,-49.533894
-771.45154,-521.3394,-18.521887
-788.3475,-435.2895,4.316213
-850.52124,-343.65833,43.71114
-827.41956,-12.730117,-32.351665
-1749.6089,797.081,127.02027
-3405.7727,4309.111,661.0539
-1828.6929,4053.6243,412.6567
-531.36774,1740.3362,219.2026
258.14935,1448.8895,184.19112
634.53925,634.482,120.52636
822.58844,312.4498,59.353626
765.09766,128.82782,37.245564
694.3409,379.88147,82.15821
588.0403,370.60834,111.32644
524.71136,596.2115,19.391367
347.4255,1356.8048,-146.99284
-133.05951,3113.4348,-435.82553
-960.5135,3841.1926,-461.46152
-1418.3007,3549.1025,-248.69824
-1567.4031,2253.5842,-130.95163
-1211.7837,973.7863,-23.034033
-1161.0729,258.48648,-5.9628873
-1001.92224,-211.18214,48.060253
-1036.9608,-383.37317,55.408195
-871.81573,-603.78235,32.619514
-952.19196,-593.96906,60.62677
-910.8414,-334.79303,221.96587
-1205.8281,-33.55435,241.33517
-1098.7537,192.16223,4.5344834
-2861.1548,1752.42,484.67834
-3199.396,4833.983,763.84546
-1387.8878,3357.9106,298.2359
-295.4255,1886.2809,160.0762
311.44522,1185.0867,85.52176
514.906,656.89844,-18.314915
722.2241,390.40073,-199.23143
679.2615,396.8125,-135.14749
676.1385,539.23236,-78.60178
663.1167,471.25278,-73.63353
519.21655,692.8506,-200.48387
424.9489,1029.1736,-184.41881
4.8605056,2893.078,-381.52985
-1384.0598,4428.089,-551.2754
-1656.6873,3039.0176,-212.76683
-1295.9368,1903.088,-109.985596
-1227.7198,918.92065,-31.686218
-1163.2677,99.64882,23.063623
-1013.1874,-392.6319,1.0353954
-903.29254,-420.15674,4.250063
-931.7128,-511.7414,110.51917
-890.8502,-385.1653,170.37553
-933.61224,-341.76,159.22177
-1014.88464,-105.25777,159.83713
-1802.4504,880.5134,171.85179
-3067.4902,4036.694,729.5503
-1676.0674,4061.1782,457.144
-376.04163,1978.3369,206.02597
254.95213,1536.0042,128.07315
491.85718,782.0354,65.31681
688.33936,385.93253,-53.12508
610.383,317.92645,-100.92436
604.84406,482.97818,-24.89939
572.37897,429.5686,2.0978796
594.25793,674.2563,-123.14127
464.82352,1002.81067,-210.89067
237.6789,2351.6294,-206.98254
-754.3614,3941.8916,-532.5495
-1568.2253,3677.2231,-317.02072
-1434.5709,2491.0889,-113.9083
-1226.4126,1531.1919,-132.2115
-1048.4409,479.46524,-105.57772
-917.0937,-166.84943,-130.56401
-979.1518,-562.3596,-15.0172415
-1006.36444,-422.37024,171.53008
-903.774,-446.5089,215.90833
-810.82355,-295.53574,126.95346
-1027.6385,-306.86716,193.47029
-1037.1942,26.950651,85.14276
-2405.363,1187.2258,321.81537
-3570.2449,4422.2812,875.3055
-1804.8457,3823.8933,467.69485
-588.25555,2032.8197,313.2786
173.58257,1213.5369,284.99924
565.3542,505.6482,183.96303
794.66754,324.57083,47.47394
659.0146,412.34668,59.842144
633.89496,553.16675,77.06883
503.50116,603.2898,-1.6815734
465.3528,732.5581,-219.6993
224.183,1756.0282,-203.05475
-248.73932,3240.907,-420.08768
-1374.5728,3703.7573,-511.9831
-1493.1143,2863.9343,-222.80618
-1268.2468,1830.1387,-191.5172
-1031.2076,885.4431,-125.214294
-897.11206,230.763,-125.149155
-855.40155,-207.80702,-40.15969
-936.2665,-372.70837,-39.909344
-1000.04114,-498.18372,6.7883787
-1021.18054,-357.91452,36.5007
-1021.0026,-364.64996,168.49896
-1144.069,-17.59415,76.82667
-1667.9525,452.2794,152.85669
-3408.3508,3235.388,537.5772
-2273.4014,4663.9243,384.65778
-798.2231,2157.1863,246.45508
65.99909,1433.2814,93.59706
359.77353,789.79254,80.22145
564.86127,455.28342,-20.53413
624.10205,197.50076,-54.94904
572.83936,329.14932,-7.354095
488.41605,322.71844,-20.802322
446.4839,496.57095,-57.724293
237.61858,815.528,-172.08768
168.2768,2027.9088,-251.01239
-657.7881,3875.283,-443.72192
-1625.2919,3892.73,-514.522
-1546.5907,2577.709,-273.3067
-1428.0422,1515.4894,-168.85016
-1210.2625,507.85318,-73.98881
-1046.3661,-68.94632,-101.594154
-955.7393,-382.5517,23.262035
-835.7561,-516.47876,71.00886
-883.1593,-588.2467,121.499794
-844.5272,-446.97342,67.05016
-1108.5004,-202.91408,164.0824
-1001.2413,-88.49743,67.72431
-2353.3984,1191.1023,231.9629
-3149.7395,3777.4897,726.90643
-1848.206,2990.931,378.6747
-875.06323,1861.6155,195.96786
-42.797874,1266.564,76.72017
233.64839,784.5026,43.151783
559.7065,500.9446,-96.73061
548.07794,524.64044,-87.83876
505.58743,600.1897,-43.16944
504.69232,541.19916,-71.707466
356.41638,838.68414,-132.05276
96.10866,1595.8667,-107.25154
-354.67505,2602.6536,-107.10172
-1302.281,3103.9878,-78.45059
-1784.0398,2948.811,-58.21505
-1869.257,2001.8491,-126.98386
-1470.0806,960.0115,-72.51144
-1175.1067,112.25706,-117.990685
-943.28,-465.88336,-60.016922
-882.0744,-541.7508,-3.442689
-768.73615,-597.1522,-55.3283
-896.3666,-532.8593,-117.24269
-973.83307,-322.20154,-86.32043
-974.0403,-190.85483,91.38813
-1588.5385,720.1891,17.463825
-2899.6243,2931.1033,459.98257
-1908.726,3310.0068,563.22546
-842.65936,2208.2727,286.16428
-260.90164,1771.8021,312.1121
256.4535,1019.4928,205.57243
645.16,514.4558,213.21623
763.7012,309.31924,54.74056
771.1071,498.16718,102.239334
521.3105,626.2821,133.4323
409.0195,697.5169,133.97092
138.09593,915.0448,-81.94444
100.303986,1973.0841,-89.8534
-686.16504,3573.1145,-278.00684
-1452.7238,3393.418,-377.59973
-1473.3522,2339.7637,-196.66743
-1303.4417,1584.2671,-24.302479
-1138.5482,648.57916,11.500188
-958.03284,65.63856,43.149994
-842.1856,-261.9343,28.725306
-778.305,-310.60696,79.94611
-874.69354,-471.3397,54.64311
-752.73694,-326.18155,41.08624
-995.6874,-303.3776,104.26346
-888.05975,72.11479,-15.717232
-1838.6854,735.0522,81.30591
-3318.3137,4818.6064,585.5124
-1491.9789,4231.734,381.2583
-264.29788,1682.7047,145.88579
460.9529,1367.8383,93.85672
672.06976,436.97916,59.021614
850.516,192.4306,3.8845577
731.79584,14.508816,10.223558
642.837,231.98912,39.55864
533.1091,261.8452,80.83665
475.66644,610.6393,38.006355
350.85046,1272.2236,-71.96269
-56.450626,3121.9807,-339.83694
-936.6949,4016.7407,-362.61166
-1610.896,3698.9163,-79.31984
-1497.8755,1853.1062,-24.398275
-1171.9622,820.2528,51.46293
-1137.347,373.72263,152.78923
-1026.4275,-188.86403,102.87367
-1011.72296,-432.24463,30.644135
-847.69507,-498.386,93.23332
-843.5093,-515.6236,88.4375
-747.2641,-416.28497,86.1046
-947.2261,-86.11718,125.33135
-1069.618,127.93621,28.187786
-3017.039,2921.9812,523.8828
-2482.0286,5031.612,610.7354
-847.377,2438.906,255.04189
-119.3708,1803.896,179.92177
336.7018,867.6599,63.33367
594.0713,447.46555,48.738087
775.6593,99.919,-43.536476
750.35156,176.9027,5.727726
659.6126,302.68478,1.9887915
629.1429,660.194,59.55152
495.33966,776.2574,-94.9978
355.35806,1664.4269,-238.14981
-56.40032,3189.6345,-356.4917
-956.6117,4052.5144,-338.00894
-1500.738,2980.1917,-193.5595
-1296.7405,1761.19,-61.908623
-1109.7637,711.09814,-32.16025
-951.3417,221.68857,-12.246331
-903.77106,-305.9352,-26.795996
-881.3682,-348.94308,-52.25698
-1019.5494,-613.8257,-61.80039
-862.6237,-347.33292,-21.593277
-1068.9476,-357.40707,123.079056
-955.96606,106.99562,78.83961
-1991.3108,581.58374,180.5875
-3683.5806,4671.3325,690.76166
-1674.086,4282.6777,414.80923
-376.0449,1715.2468,185.75233
336.6615,1374.7357,126.09676
554.30176,523.1853,115.376144
834.38855,320.77942,12.245773
751.7772,205.8702,-13.647048
715.1422,394.89597,15.071665
633.0111,379.9019,32.828926
610.82635,650.41534,-71.46954
356.65887,1094.0524,-173.15009
242.3738,2520.2227,-203.42368
-698.0868,4388.2476,-402.3121
-1612.7037,3723.8137,-252.57323
-1439.3806,2173.1548,-48.94792
-1222.2612,1219.0138,-47.530006
-1111.3423,464.12222,32.28249
-1029.9471,-166.13368,-11.311757
-1024.3473,-392.89233,-40.627895
-926.1027,-569.19214,-27.308699
-951.1705,-573.3688,64.96496
-843.851,-522.0125,84.79058
-1042.8373,-174.859,134.97348
-1225.2567,-60.644497,87.51232
-3435.2656,2999.75,669.4847
-2768.2314,5156.3486,734.0929
-901.1972,2497.444,340.5572
-95.236084,1800.4177,342.60455
536.74255,797.3787,132.8675
840.7458,340.39447,77.24683
821.4858,154.4467,-13.038642
662.7424,418.48187,34.769466
577.2855,486.64813,4.405563
526.8978,525.4533,21.23843
434.98648,752.4284,-150.92624
322.44708,1457.0028,-223.93721
-230.96849,3450.213,-370.54016
-1331.1534,4311.5576,-428.61203
-1687.7902,2781.0576,-118.18559
-1418.7026,1872.3698,-36.804947
-1248.2523,721.51917,17.987154
-1032.9492,197.10805,62.01843
-1015.8684,-250.72435,68.59078
-992.88916,-273.0942,46.93964
-1002.44025,-568.004,23.221167
-874.87476,-419.48898,13.631178
-966.6351,-405.82605,137.16937
-985.4258,-15.9669,85.59508
-1699.919,386.65207,166.87196
-3448.1348,4026.1484,786.34204
-1954.6143,4413.16,589.14624
-520.9698,1903.6357,228.77702
229.46721,1549.6659,144.64944
481.27957,749.2853,92.256
672.8532,388.94843,16.031849
672.8415,167.2497,-71.14514
587.68677,443.70953,-17.905283
506.5295,409.7359,20.721289
564.79584,479.21585,-57.74825
386.12527,762.77264,-154.04442
301.60745,2055.1096,-182.21805
-727.12,4045.266,-535.85516
-1603.4762,3730.3547,-397.78082
-1449.767,2292.4072,-203.95789
-1204.5677,1325.838,-178.77846
-1038.7953,509.49545,-89.152824
-957.87317,33.27182,-80.365555
-984.77295,-342.92795,-63.54072
-865.89264,-442.4449,-49.017574
-961.4332,-516.1843,35.274433
-840.4716,-459.7076,90.5525
-1055.5237,-272.9069,184.9532
-857.64514,-5.033754,127.161
-2528.0757,1509.5027,410.85107
-3350.0269,5359.186,776.3188
-1150.3412,3112.273,375.98032
-306.8416,1564.6102,234.54144
393.14868,1156.0013,76.06855
667.8408,345.29602,54.07024
794.02795,151.80713,-19.616938
645.0948,179.165,-40.126976
620.18726,270.84088,-6.7073355
489.34476,354.18378,47.4376
468.3747,614.3726,-8.282635
293.47406,1370.4297,-187.11728
-330.5283,3850.127,-405.2641
-1238.5074,4147.4014,-383.3177
-1464.9163,2987.0593,-158.86714
-1447.4048,1859.2557,-50.99466
-1166.1941,591.2437,9.64939
-965.84106,-43.056393,-11.504084
-830.64026,-364.47,52.767544
-977.18134,-345.4196,88.28187
-920.7976,-404.76062,91.495605
-1009.09283,-300.85364,35.422028
-930.4544,-364.65213,12.79736
-1201.5884,-35.183258,67.9529
-1542.2479,260.1049,14.519017
-3505.155,3079.7214,512.9915
-2518.8848,4881.6943,372.95062
-777.53986,2264.57,117.0855
-10.527566,1535.473,68.19814
346.6021,803.3789,16.952827
557.40436,368.04642,-10.117529
649.54193,177.38058,-63.34945
670.4743,384.6839,-7.322941
640.14886,298.0655,4.0543036
558.40125,467.50067,-1.8085101
423.39554,683.55096,-99.05331
225.50777,2300.339,-172.02966
-672.0755,4212.1626,-219.73514
-1294.7645,3794.6006,-59.952137
-1517.5765,2626.8467,15.144611
-1206.853,1238.402,11.052491
-1054.2577,352.28613,46.06951
-899.3286,-151.20894,63.276176
-945.2351,-385.80432,3.6270435
-750.8812,-584.2835,-46.25026
-895.6883,-541.7662,31.073053
-742.7808,-384.90787,-7.3649073
-1057.876,-100.65405,60.81911
-972.36957,-117.111626,-128.62697
-3030.8613,2276.339,309.44037
-3076.79,5378.1343,478.15714
-920.5391,2714.2378,84.45802
-188.30185,1841.8221,157.60475
394.11273,999.428,-27.688057
637.2396,307.50266,-22.374016
765.92065,126.757675,-86.83561
691.34045,326.84277,-61.88169
693.82715,350.38855,-68.83092
558.5585,596.02905,63.442978
476.35913,700.57465,-13.232372
335.8211,1754.9036,-138.87141
-306.31503,3854.414,-223.62437
-1130.5948,4100.586,-122.799095
-1439.1223,2758.5542,-130.6944
-1167.4514,1413.9528,-63.142597
-927.30035,558.0208,16.855844
-799.56683,112.34445,-27.886894
-853.378,-283.77646,-91.76079
-787.5271,-468.80728,-144.60896
-865.33356,-546.538,-113.58042
-843.1542,-302.48633,-104.624725
-1029.2356,-184.29115,11.713538
-890.82104,6.066112,20.753107
-1991.3064,970.8878,142.42645
-3230.766,4844.777,659.4122
-1429.3917,4325.761,293.08145
-242.25462,1656.0059,153.02673
357.97638,1117.039,3.5326946
614.4374,340.27814,21.227848
752.1124,252.12012,29.364277
743.407,144.10483,22.275434
682.2683,263.40527,-31.570066
666.7185,292.36298,27.512781
537.4265,564.7293,-7.9763827
442.47534,1346.9493,-121.608665
122.4928,3391.496,-338.1908
-886.15045,4346.6484,-301.10516
-1484.2201,3519.1853,-147.72417
-1326.5377,1788.6927,-4.8059945
-1092.6753,634.34955,58.11199
-949.5182,-77.172905,-22.052258
-924.92944,-387.32788,-76.048965
-741.91174,-582.2492,-170.14708
-833.6707,-555.4258,-158.6274
-827.94403,-417.11084,-136.7638
-1154.2611,-130.81125,-2.5673919
-1003.0193,-96.94534,-92.77967
-2968.5605,2028.7281,255.93466
-3151.2722,5455.874,527.9512
-914.8843,3036.062,242.83806
-109.78341,1586.617,226.71947
629.1994,892.00366,35.25221
857.3951,293.26303,86.59527
891.6299,224.96996,-15.712744
723.4922,438.83334,2.1579335
678.8725,386.4319,11.711233
507.89258,539.8742,113.57555
309.24283,888.58704,34.107452
221.82948,1753.898,-44.73987
-388.56015,4034.2012,-192.70187
-1209.5126,4410.9043,-263.5894
-1360.9111,2930.773,-266.19473
-1379.1245,1430.9666,-59.6303
-1134.3693,507.58182,-109.33336
-1044.214,-103.77222,-193.30542
-895.4517,-584.91956,-213.74887
-880.1901,-429.28217,-130.34158
-890.7601,-457.93448,-53.108875
-876.21356,-315.5244,-49.558647
-989.4211,-258.41177,-15.37654
-1140.2681,54.206547,70.21759
-2268.549,1428.1708,-6.847049
-3592.699,4914.8193,465.86804
-1772.0571,4137.095,285.69556
-528.1899,2006.5,26.895891
263.2759,1338.0221,-136.37141
690.60596,525.9211,-65.325645
908.04126,386.9578,-97.37172
882.8154,286.06067,-131.63817
853.93115,339.8833,-136.14508
629.3444,522.85645,-22.331861
516.60626,848.7986,-57.945255
260.31363,1429.4827,-137.13542
-95.02638,3396.5754,-157.99304
-1303.3219,4434.305,-182.96844
-1679.764,3179.1743,-53.947025
-1515.9677,1777.8077,67.20278
-1133.6008,849.1925,15.576755
-1060.8301,171.51022,-92.50349
-842.2979,-316.14658,-214.89478
-817.3091,-445.30865,-154.6401
-746.14954,-599.1128,-158.77731
-807.4949,-445.76566,-75.83065
-856.99744,-351.44498,27.640913
-1115.9703,-25.066431,95.24469
-1448.2418,247.26375,57.533436
-3633.0999,3651.8286,613.1877
-2396.5137,5247.5176,416.94003
-751.35693,2210.336,174.28757
84.319405,1513.3092,34.82577
571.7881,601.4164,-24.187962
825.14264,327.6522,-67.06512
868.328,143.18788,-77.01862
777.89734,355.5516,-143.99574
672.7478,330.34174,-80.70309
578.7806,587.67804,-74.57806
394.39325,1241.0883,-120.156395
-94.384575,3229.0964,-290.5622
-989.601,3994.2588,-283.07126
-1429.6559,3381.9685,-168.39398
-1589.5022,2203.712,-145.66939
-1139.4991,854.5122,-76.24085
-977.1944,264.59348,-65.59915
-785.8402,-133.70108,-60.03908
-914.62103,-317.74817,-10.85064
-792.74396,-624.89233,-15.385671
-974.6329,-490.24628,-34.363506
-921.3205,-415.26355,21.660458
-1243.2196,-77.66352,77.5005
-1291.6544,-91.26815,23.777872
-3434.3633,2940.586,601.85944
-2676.6245,5740.5566,667.0455
-852.6339,2503.3909,269.34262
-41.608845,1758.4452,51.471138
590.4389,913.78876,-52.0535
827.24286,508.68665,-17.063156
910.1673,159.20459,-74.56112
806.9508,370.10535,-101.77999
615.9085,530.88965,-47.187847
520.1182,767.7109,0.6836894
283.54828,1069.9642,-55.86346
130.34972,2393.9924,-125.32677
-817.09686,4030.3376,-136.27234
-1687.7837,3937.5098,-93.582405
-1700.9545,2249.936,-40.138817
-1270.8018,1095.2136,1.7649875
-1090.02,305.47733,-44.552128
-886.36316,-184.00723,-47.42844
-867.81146,-492.31528,-94.94777
-765.0168,-581.2455,-102.11476
-1004.2486,-517.77966,-32.782433
-935.8213,-306.2059,-31.88711
-1099.8019,-110.48263,94.89911
-1177.5906,115.59507,-44.047455
-2999.1553,2676.0764,479.865
-2818.378,5146.9927,728.41254
-959.04626,2684.821,191.11554
18.583769,1796.9725,65.047874
701.8503,1091.2896,-21.601526
875.949,510.3508,55.63275
894.733,193.77895,0.730375
700.5344,399.41614,-34.239395
557.4205,429.69452,22.031271
441.4518,591.1997,48.416973
248.4956,1135.1467,-8.64265
-80.299904,2876.4995,-104.706985
-819.0929,3875.8235,-107.99372
-1419.1278,3763.7498,-23.614483
-1497.3184,2086.09,-27.511196
-1115.7343,800.41174,-28.325563
-976.39636,180.69894,27.297825
-811.30743,-86.67357,-12.755797
-808.1279,-362.65726,-107.15446
-741.6518,-507.56094,-125.08321
-967.02545,-642.3036,-69.01216
-879.215,-392.5622,-50.623707
-1119.5244,-196.69275,3.6399584
-986.5596,172.8503,-101.30623
-2932.4084,1761.9288,321.80167
-3504.7854,5235.939,412.65326
-1258.2212,3754.349,121.75391
-272.6284,1758.0074,114.94497
384.41052,928.17194,-62.06492
691.86804,263.94363,-5.4526386
896.96204,167.68315,-93.88564
816.1621,257.47638,-77.50273
723.0199,370.07187,-76.67692
567.28253,494.3628,48.4232
367.68628,847.2386,-90.767235
147.76372,2256.4824,-164.78014
-721.5307,4052.5085,-171.78801
-1432.3735,4063.271,-109.79523
-1528.1758,2642.1807,-46.175106
-1285.3707,1373.5763,42.841366
-1124.1376,505.77173,11.175511
-979.0687,-95.28492,-137.02219
-973.959,-576.5942,-175.90543
-863.5434,-685.4447,-175.34637
-920.3758,-612.0327,-91.742386
-851.406,-466.97073,-110.01882
-1092.6066,-254.17038,23.961075
-1170.5562,-15.00259,-13.371748
-2716.673,1782.7295,179.62856
-3206.3389,4951.844,572.01544
-1294.9219,3482.2166,291.44467
-277.55768,1865.4548,206.84508
388.29135,1153.996,141.49927
642.5976,567.4075,153.13885
854.8191,227.93071,-18.01063
730.34705,223.90573,26.82506
624.1011,323.5702,12.974584
502.05453,620.29034,121.21887
354.12732,912.9202,-15.167041
246.68253,1856.0184,-107.797066
-317.8477,3595.0234,-158.04292
-1281.591,4304.872,-52.148373
-1629.2268,3030.8984,-48.624317
-1376.8839,1312.3179,-14.662218
-1037.2241,512.9335,8.094308
-933.61804,33.678154,2.9850404
-1015.06915,-295.6971,-56.196663
-922.432,-603.2013,-124.60818
-983.19824,-700.96,-98.307175
-974.4602,-501.67337,-80.91711
-1087.0677,-223.45122,46.84715
-1099.5876,-49.122894,-40.90614
-2783.4106,1899.5001,357.123
-3273.3958,5632.756,660.93176
-1069.8768,3396.726,144.31969
-210.91542,1899.4786,92.10213
570.06213,1073.2744,-36.294693
824.6297,296.05936,-27.447737
925.28485,111.976204,-105.02788
748.0556,299.4898,-52.173874
732.95154,440.64236,-7.2531843
551.3349,568.58344,122.55672
357.04367,810.1291,-28.692175
304.85092,1527.4498,-95.624985
-28.292065,3213.083,-236.60622
-860.6653,4162.0986,-221.40875
-1318.842,3043.587,-153.62537
-1266.6532,1653.874,-107.03727
-1003.4215,771.66174,-98.123566
-941.74493,309.08987,-113.035385
-926.0327,-170.10191,-105.16689
-905.69666,-341.91364,-86.549225
-854.09564,-645.0774,-134.13333
-841.5204,-505.9153,-127.53586
-956.49316,-317.67328,31.862373
-1006.537,101.70742,110.71488
-1713.7279,511.4439,100.00597
-3365.1216,4142.5522,459.37543
-1821.4895,4677.4253,295.15204
-454.56036,2228.2002,103.043015
343.00488,1554.6049,-43.216892
619.38,657.8683,-42.928257
821.4635,390.55258,-66.95919
797.2541,238.59059,-52.605965
736.48615,418.0535,-39.557907
613.84155,319.99863,40.622623
526.5414,516.9661,0.1717956
329.34988,1170.9915,-65.35556
38.34745,3100.3242,-153.75627
-728.5786,3941.8704,-265.0009
-1251.3695,3363.9346,-221.60591
-1414.919,1891.7329,-119.33829
-1029.2656,734.8108,-23.361311
-857.90076,215.901,-48.061787
-728.5929,-181.84668,-126.70718
-818.6601,-337.5374,-62.498005
-741.04803,-521.53143,-9.49349
-897.837,-387.59662,-29.168224
-810.21045,-427.07013,-18.838814
-1180.9473,-149.39726,-6.1262593
-1383.4279,53.14666,33.553394
-3434.2886,2916.042,504.05728
-2663.3428,5352.2017,466.3659
-772.2009,2401.9329,222.08835
2.0405452,1750.4232,68.5465
637.5703,790.3697,-2.8279653
881.03217,338.1503,4.961024
858.14935,168.62607,-21.193186
694.7014,353.4719,7.877015
586.9109,338.0271,80.306496
445.6567,587.6823,100.78493
259.27716,873.13293,-47.853397
207.85486,2008.4563,-116.89734
-397.43463,3681.9243,-211.47527
-1406.924,4103.2925,-268.8814
-1507.7618,2424.3755,-174.49382
-1155.3175,1336.3763,-22.015562
-1048.4534,580.5617,-13.275991
-887.97186,-6.8831935,-17.31426
-940.9918,-399.59445,-34.36739
-846.9502,-561.8602,-68.07757
-890.13025,-630.815,-41.58325
-779.3125,-416.4897,-73.0866
-1015.34894,-227.9096,42.95011
-964.5379,21.247547,-53.716595
-2780.333,1919.6923,347.44052
-3050.8674,5256.019,533.33575
-1011.7541,3091.5618,161.83797
-214.91307,1680.6729,166.86224
475.61313,1030.6112,76.73681
667.09424,385.73218,127.481285
836.9868,144.90877,9.497019
651.7963,155.55453,49.891926
611.23535,196.90047,68.550354
482.9278,419.06406,132.63123
387.01614,816.88434,26.273388
240.67393,1837.9088,-54.993286
-272.38867,3930.2788,-211.66786
-1057.3239,4246.0723,-178.21307
-1473.5037,3119.5403,-56.165146
-1319.6199,1599.1549,-27.959593
-1008.79865,385.2294,-42.33362
-912.58374,-70.114716,-68.64466
-1025.4933,-302.98746,-11.339113
-1033.1926,-370.4839,110.14309
-965.9503,-443.9731,-2.312601
-962.2982,-215.08046,-67.32647
-1013.972,-341.2347,2.3654673
-1016.8048,-16.50357,128.0009
-1748.0073,969.8233,116.12857
-3236.312,4672.469,579.0749
-1651.5155,4692.137,404.82202
-370.19104,1968.7837,105.52796
274.23935,1300.5386,128.33293
592.43115,482.92026,129.73631
812.5004,235.08244,42.868107
753.68243,-9.796392,17.19436
634.6305,241.69751,26.250877
484.78888,452.76413,96.546486
383.86368,764.4336,22.060614
279.37442,1277.145,-129.71216
-89.9268,3139.78,-281.8082
-873.14685,4157.804,-234.05907
-1248.1556,3561.7102,-19.149529
-1388.7533,2177.8965,-44.446877
-1143.0498,907.88074,-5.2950163
-1301.6748,132.16359,8.559598
-1166.3967,-471.78738,70.87925
-947.9223,-600.6925,-48.065636
-769.95374,-659.92847,-91.4299
-850.6794,-420.75848,-38.067936
-884.15607,-216.40736,31.215729
-1051.2308,-111.306854,33.84935
-1536.1656,532.6454,-91.802185
-3307.6174,3892.6895,455.58054
-2173.9084,4727.087,290.40594
-575.18164,2216.9058,53.79629
98.67639,1564.9124,77.844826
497.95294,669.66614,42.964203
695.0114,319.50366,13.979763
646.3385,161.92934,-15.730641
581.4704,436.04263,55.135708
562.4199,270.1166,12.907407
545.1708,475.8368,8.995155
409.35916,838.32697,-15.413067
232.42647,2420.0437,-109.09971
-481.69775,3942.2202,-251.06645
-1252.398,3835.1873,-161.16939
-1503.5337,2293.9624,-98.29363
-1080.6191,969.3464,-63.165554
-931.17523,282.35968,-62.8224
-748.73236,-96.22382,-35.286427
-875.9482,-291.08,-43.461346
-766.0348,-362.56732,-64.11726
-965.48773,-413.25632,-26.956102
-872.76587,-332.78796,-43.21821
-1203.1647,-249.47844,83.784454
-1081.7719,33.404697,-52.87223
-2584.414,1567.458,173.99571
-3357.877,4954.084,632.812
-1353.5807,3808.7722,158.0014
-269.27322,1910.0184,44.93843
388.97583,1113.9332,-58.167046
684.1839,364.8729,-37.911507
799.16565,152.38072,-93.14595
906.29285,155.33241,-139.21082
815.8025,417.7601,-141.11205
708.5618,574.9355,-119.05632
443.1761,979.5923,-115.64209
273.9821,1955.2115,-82.39772
-854.09106,3876.813,-250.82019
-2008.8927,4333.028,-252.24493
-1879.7643,2382.379,-25.556076
-1411.733,1091.8463,67.51661
-996.409,228.74007,78.287155
-883.4565,-131.43813,23.930592
-696.3822,-439.17316,74.602974
-553.71094,-690.1581,-3.814424
-636.21674,-729.65735,-8.268097
-658.788,-483.15427,-81.87696
-959.76605,-148.31279,-4.7547
-1005.83093,-124.410675,-189.08748
-2865.28,1910.6562,310.1532
-3410.4102,5165.3423,747.30743
-1190.2545,2984.2305,239.57768
-273.0515,1598.6428,182.18858
463.5969,826.1848,46.03199
751.56354,254.18234,90.28469
821.04144,50.654533,-42.290222
680.421,275.95895,7.8363843
603.4467,345.7279,55.463947
544.22705,579.42487,121.2355
406.56915,732.17914,-7.073016
214.12279,2048.2588,-84.1001
-418.54428,3816.1187,-158.63234
-1227.86,3740.2844,-141.12495
-1477.5332,2577.3745,-64.008995
-1127.044,1374.972,10.8968315
-890.4565,556.929,8.481588
-700.77966,76.29884,-83.081215
-812.347,-258.27347,-65.29875
-794.0273,-381.69846,-44.64241
-883.2316,-377.59302,-46.417797
-827.17194,-305.93704,-97.226746
-1053.7587,-472.25958,79.64678
-930.77155,-257.05136,-105.30829
-2462.9607,992.15753,319.8531
-3335.088,5328.3555,551.22833
-1186.4387,3947.233,158.27621
-262.75552,1769.109,126.2733
512.6017,1047.4125,-82.34173
684.39,299.0403,32.063198
843.2025,142.29645,-72.23199
792.4573,261.4068,-66.61916
791.50134,238.62128,23.959534
571.2421,105.27935,308.7753
332.939,431.75705,227.01724
-27.518234,2505.3855,70.635025
-1341.9474,4850.2437,161.43839
-1758.347,3360.0781,199.54384
-1632.3619,2580.7207,269.67886
-1322.3138,1277.0554,305.249
-1059.0729,465.06113,235.36455
-1076.1012,-90.302376,12.82457
-917.04987,-474.71225,-228.50674
-820.7246,-672.0102,-272.8445
-801.8341,-682.3166,-270.5888
-892.95557,-455.15125,-182.65758
-1042.579,-287.09955,-31.325985
-1050.42,-22.207556,57.665485
-2234.3735,1223.8734,129.6548
-3598.6785,4712.9033,624.8273
-1653.5648,4158.705,331.37292
-457.0351,1721.7799,228.28085
314.3474,1153.3071,100.585144
644.58295,405.64108,104.42859
880.8999,296.13855,-26.714945
780.65027,264.3597,-62.75632
704.8371,404.28677,-94.17331
509.6857,476.2553,45.585083
394.9089,884.3188,-39.49262
213.92372,1604.8026,-54.90628
-230.21419,3160.6826,-121.62821
-1166.3063,4286.5674,-32.986717
-1562.2518,3312.9053,-41.642532
-1450.8281,1530.0079,-29.639328
-1039.8885,584.5776,8.434381
-941.79266,58.35146,19.200184
-809.2382,-243.34805,-23.981693
-847.30927,-473.77084,-41.067486
-789.30756,-580.46124,-38.53269
-870.70667,-462.50696,-35.68467
-969.3243,-282.6492,-40.11351
-1151.5537,-150.73535,21.807238
-1736.9155,552.22705,-38.872997
-3459.3035,3860.938,372.18073
-2087.3699,4796.9463,344.68262
-564.37646,2201.8406,111.86485
101.50516,1483.8477,69.20514
539.6935,660.9563,74.56861
793.93396,328.74564,44.04472
773.8237,154.36595,-38.75128
586.9684,476.71652,6.779983
467.42505,387.0912,74.09945
441.89725,670.1159,96.312996
434.72217,973.0729,-46.43556
152.1326,2837.8052,-163.63292
-672.1978,4291.4233,-274.99817
-976.88513,3723.6196,-48.1879
-1431.0815,2689.0083,88.494675
-1387.4419,1016.4774,-16.182943
-1457.0879,188.9595,61.19812
-1213.2653,-324.19824,103.468956
-1053.8411,-553.52454,-15.710755
-744.84735,-707.5891,-256.26474
-937.2738,-355.4571,-104.10543
-942.8131,-92.25121,108.10532
-1133.3416,128.70023,238.30147
-1272.3558,2.3536396,-67.284454
-3154.1055,2537.4983,386.7755
-2821.8347,5044.455,561.83154
-994.9488,2704.814,61.992245
-193.11604,1845.4153,50.079113
469.4629,1007.4524,-94.83557
750.0286,532.2555,-14.996221
795.9193,316.142,-102.13434
715.2619,369.26303,-67.42316
581.6096,336.6444,-61.609947
446.59036,570.4548,23.876616
281.32733,916.4786,-54.575832
124.3812,1965.4109,-126.92582
-435.58508,3444.9707,-187.6694
-1174.6962,3792.9976,-105.53338
-1852.2327,2680.1099,-168.54967
-1565.437,1119.972,-107.93439
-864.70496,319.68597,-8.630276
-574.75525,76.80338,79.336914
-587.4948,-133.82828,182.39444
-645.9511,-404.74115,203.05133
-836.7995,-518.32605,113.319176
-792.22375,-394.88437,75.88822
-915.9063,-305.9001,86.770164
-1075.883,-213.97385,-36.114643
-2229.1284,1042.632,57.29721
-3308.5767,4116.341,667.6193
-1685.7325,3721.5117,263.3742
-535.68207,1964.3418,51.082737
186.38217,1335.8805,-0.98503447
592.3247,578.88245,16.90316
752.53455,268.81158,-28.961039
656.83704,201.37086,24.893843
578.8077,310.81125,54.40514
507.82382,319.03433,102.55095
454.0714,571.9372,80.10441
292.4774,1177.3702,-7.436258
14.216161,2914.7493,-168.13045
-940.9382,4111.6343,-174.24258
-1292.1685,3138.6868,7.2967734
-1330.5316,2000.3618,-15.182258
-1193.0826,1036.6212,-64.80246
-1078.6742,410.5366,-43.882748
-1052.3544,-46.372025,-43.051636
-967.86664,-282.24435,-3.9381003
-782.3444,-445.8188,-16.941433
-877.2027,-504.28513,5.0388975
-769.2698,-462.7825,45.939762
-1053.4651,-153.56255,176.7092
-1051.4285,-19.997232,2.295214
-2808.1072,2106.9097,269.12177
-2998.863,5149.123,602.41034
-1063.3505,3136.2424,167.60915
-222.89583,1895.7405,86.87511
412.14023,1088.2108,-16.289658
584.624,426.85123,-4.676483
815.3332,162.25581,-91.133286
725.2572,190.7719,-69.41819
677.9302,292.41187,-70.82733
545.7162,413.70972,-3.612556
440.28333,756.78217,-58.475166
229.2407,2147.4355,-100.21166
-717.3373,3969.218,-137.63379
-1358.6101,3682.161,-13.725831
-1472.9828,2426.0278,-4.3589654
-1274.1075,1158.2177,26.302027
-959.6439,426.7245,8.85272
-781.76416,41.326275,-23.887959
-726.67804,-219.85718,-33.96189
-855.77356,-356.74005,22.310715
-914.13586,-494.87015,61.157097
-854.5604,-461.9258,24.01853
-1085.9554,-360.63995,74.073975
-1109.8728,-125.68247,-28.38388
-2316.0076,860.2404,176.22424
-3694.5176,4841.277,886.5613
-1574.42,4009.5867,284.37555
-516.65015,1767.184,113.65793
312.4486,1382.7129,-52.33046
545.8769,422.93317,-3.5009983
822.12616,291.99008,-67.830734
770.39746,77.68922,-32.49348
674.44855,287.18686,-67.836296
438.47827,252.93121,40.529152
319.85602,712.31195,-64.688354
248.75912,1102.7909,-196.74782
-5.8379445,2979.2148,-239.38634
-1068.83,4518.4346,-283.21326
-1424.8174,3524.5876,-123.67649
-1575.8335,2185.9663,10.210671
-1280.7037,1175.79,-10.262172
-1232.744,265.2807,-75.089905
-1031.4681,-214.31107,-109.256
-896.59717,-380.95688,-18.594244
-706.29816,-623.9344,-25.14962
-795.7234,-663.3441,-21.695906
-745.24634,-450.75925,-53.95711
-1010.5213,-145.92726,2.8030474
-1095.7478,205.07597,-12.668278
-3175.6257,2791.6958,504.41348
-2856.8118,5170.268,561.2701
-899.72815,2885.6113,140.09933
88.26756,1588.3739,82.16744
560.26483,689.292,29.335043
785.08344,322.83994,-10.496309
843.04694,66.81634,-45.140015
769.79425,259.56955,-79.29822
638.8722,467.5577,-57.485023
575.04724,797.8867,-58.217743
392.91788,1057.8245,-145.35931
155.3489,2833.1262,-291.91415
-700.546,4100.0415,-245.83662
-1446.4202,3725.707,-146.63626
-1623.117,2120.4124,-85.919304
-1172.1962,1053.657,31.753948
-1010.06006,373.80923,2.4529104
-858.7882,-78.83927,-58.8639
-936.06366,-445.38254,-68.27993
-746.0316,-423.0102,-89.69204
-887.2158,-539.68066,-64.12269
-738.85187,-378.53867,-104.084785
-1103.1917,-245.64828,26.183025
-949.92944,61.573418,-38.216507
-2781.1218,1661.7045,290.36334
-3366.9622,5624.0044,592.11255
-1096.9454,3732.1274,201.52864
-172.56485,1400.9318,105.99755
415.18314,830.95465,-49.123325
692.03827,230.49287,6.192365
779.17633,265.62445,-47.681694
767.1223,346.77094,-4.73389
760.2725,342.33008,-20.310263
704.27747,350.51822,27.232708
484.06766,701.49884,-39.45264
466.54306,1630.0278,-51.90033
-144.5222,3596.8452,-233.953
-1226.781,4231.577,-213.86482
-1605.4581,2980.8835,-71.54796
-1398.8333,1649.9438,28.293802
-1134.9159,621.59534,10.191758
-953.3115,19.354292,-129.69789
-872.50183,-434.7358,-118.38797
-721.81195,-523.16815,-152.72112
-806.24286,-629.0322,-133.33926
-763.9979,-432.41525,-141.84128
-1132.5135,-230.7504,42.300846
-1012.7905,-88.741974,-32.551945
-2748.995,1269.165,143.81796
-3695.0847,5181.0405,653.3273
-1388.9895,3441.8643,286.6699
-281.0068,1665.5214,89.81414
491.37894,1105.5502,-70.659904
744.6291,430.9814,1.6592194
885.75635,238.7111,-56.58205
841.3077,214.59268,-52.929775
797.7454,233.98097,-4.439396
578.70886,664.3822,95.85137
386.35577,1124.79,-11.470091
-7.1496553,1995.2864,-141.76953
-476.0062,3388.6348,-188.65079
-1083.872,4065.1045,-90.11947
-1801.0177,3814.6155,86.23389
-1547.6093,1756.3969,-26.800747
-949.88983,504.7983,6.882363
-810.4967,255.7526,54.116974
-895.49927,-94.39589,-124.250565
-981.3365,-473.2141,-168.01506
-900.8372,-884.5,-198.79044
-1013.40796,-594.4699,-124.454506
-1079.8545,-468.80582,-73.89176
-1359.2755,-58.284245,20.265839
-1987.5354,393.15842,1.9071381
-4069.3748,4074.0815,517.38293
-2508.587,5416.65,248.55186
-580.48804,2235.3792,-22.803883
262.22034,1467.3574,-82.70754
789.6092,636.4152,-110.06717
948.8379,415.6077,-65.398994
936.2898,418.03912,-130.49722
791.90625,465.01392,-99.34801
686.7448,353.0797,-45.037586
459.5713,737.565,-67.49788
311.69083,1252.0063,-220.04312
62.77695,3074.2559,-264.2884
-582.3435,4389.6895,-369.04135
-1182.7797,3736.6282,-229.65712
-1439.9141,2173.3557,-56.546642
-1175.3796,885.04706,32.165787
-1066.648,186.82268,-0.030063132
-912.322,-302.52405,-53.927597
-909.4675,-422.515,-87.17469
-800.9746,-527.6227,-36.39301
-961.7553,-205.77805,2.4856224
-871.3241,-280.94064,-23.14684
-1029.24,19.99278,-16.57618
-1359.812,-65.78135,-140.90837
-3519.0833,3776.7312,43.964878
-2364.884,5979.7544,24.004023
-403.04727,2138.6406,44.105316
179.4065,1671.4778,23.395542
683.113,544.04767,-41.031918
695.4029,214.77539,-89.686104
725.71606,19.40993,-132.2965
677.8181,380.105,-49.28125
693.299,266.3218,22.85757
574.0648,676.61847,75.69151
434.72186,829.70325,-126.179306
361.10626,2134.2063,-207.68192
-247.29176,3886.5366,-337.4979
-1052.2924,3923.126,-237.27144
-1426.8624,2749.8523,-109.70477
-1316.2976,1541.6925,-34.9126
-1093.0997,477.11655,-28.283588
-955.3084,-24.789778,-61.56045
-899.78235,-469.00647,-74.88062
-888.7035,-470.02414,-34.224625
-860.759,-558.95056,-24.827826
-805.0853,-425.59976,-64.73427
-912.3838,-400.47803,-78.136894
-1030.544,-37.664505,-16.068449
-2173.6833,1076.0928,50.040947
-3457.4229,4802.707,505.07547
-1562.6628,4389.749,306.95633
-298.4594,1985.874,157.20047
211.6384,1297.119,91.42662
459.8554,397.04453,98.16562
655.72217,133.30289,13.151352
648.5793,0.36878112,16.072615
634.1322,159.97142,78.93673
569.58093,247.5051,181.04305
451.36453,694.691,160.9635
420.17825,880.109,-79.43743
305.64075,2598.704,-134.95883
-661.7365,4629.3887,-285.35385
-983.5482,3731.3442,-95.282326
-1233.1998,2351.034,-113.10648
-1324.2227,1266.7212,-59.770134
-1562.8325,499.8346,71.555244
-1180.434,-364.13028,-136.24551
-1005.4342,-695.75385,-210.26672
-760.0405,-829.2871,-159.33636
-875.0987,-547.1755,-9.225008
-849.9776,-291.9096,73.430046
-1118.6404,-70.23244,118.65911
-1461.2747,359.73395,-174.34183
-3494.5918,3519.607,503.4444
-2408.776,5118.9062,363.38245
-500.78177,2493.1794,48.946735
169.0497,1552.9866,84.17693
616.952,796.65924,57.693817
771.66364,332.19556,48.74273
767.67773,163.31293,-70.44242
716.10895,339.13028,12.67853
659.5697,309.20352,22.075949
530.7505,698.2657,52.90131
335.91644,962.3313,-171.95146
246.0444,2331.375,-256.68515
-401.29965,4043.409,-360.9685
-955.8254,3658.9421,-210.4914
-1563.0471,2640.8928,-53.75075
-1228.2607,1185.6465,25.122705
-1012.9497,421.15237,38.50454
-829.0728,-73.27793,47.005516
-930.5011,-251.60359,46.103317
-845.14185,-442.06638,1.891297
-942.1617,-530.6268,11.518942
-769.6047,-473.56232,-61.145145
-1084.9015,-130.12114,74.04366
-1178.6913,-92.56144,-91.37813
-2892.6343,2001.2487,251.43387
-3108.976,5107.531,625.49744
-1177.065,3167.3452,194.269
-198.4707,1870.2252,31.853893
380.147,1089.0376,-27.943193
577.9667,454.86935,-14.007973
786.1201,267.1433,-137.33234
727.44745,294.68695,-118.0845
683.41425,355.4187,-73.315384
592.5115,487.8829,9.702508
478.23505,806.3208,-61.62131
459.94724,1651.5123,-165.72697
-128.99625,3671.1445,-315.23218
-991.83466,4002.517,-219.27983
-1467.74,2793.9397,-15.00541
-1349.6781,1671.4717,7.541173
-1227.1951,698.4844,16.75339
-1113.5513,-53.89836,4.6892323
-1018.4096,-475.293,50.96747
-802.4398,-580.61646,2.7853136
-970.1577,-529.50696,-56.023598
-999.14276,-296.5117,2.1679347
-1146.0986,-234.36555,262.50006
-1140.4038,143.77602,81.46368
-2628.5708,2018.9634,253.69704
-2893.679,4631.8096,691.903
-1045.3049,3267.0422,186.25775
-194.94466,1714.9124,188.234
379.04718,1051.2021,62.18779
561.43524,440.05582,38.80432
720.08264,234.61053,-90.873886
649.5478,248.70656,-10.4733
628.9921,259.43524,29.490108
550.2671,357.90308,79.81372
432.1978,811.4396,-0.91000867
308.67853,1807.4484,18.434265
-481.806,3949.4175,-99.8321
-1332.8932,4164.881,61.356174
-1570.617,2708.5684,198.15494
-1366.731,1369.4182,66.559204
-1060.8551,457.06833,31.415663
-964.8002,-30.802303,-18.112812
-909.87805,-363.20047,-75.69957
-839.0119,-563.7881,-84.71112
-943.53577,-568.69684,-69.580414
-911.8876,-410.66837,22.948471
-985.5448,-445.08716,19.587988
-1077.1537,-44.25627,-155.468
-2116.8154,1325.2322,344.95187
-3153.9673,4250.6035,1077.8226
-1590.7095,4034.2617,491.43787
-438.32974,2110.7134,202.6088
197.64534,1355.626,179.53523
471.85602,531.3136,133.25806
679.8317,325.88312,39.356
694.8023,239.23526,77.80216
632.8854,213.90779,83.35069
603.70886,258.54825,43.752304
520.98596,536.4465,28.969797
363.65768,1626.0232,-50.238323
-282.28622,3911.4077,-180.89384
-1185.5776,3933.3037,-69.62335
-1485.9137,2924.2737,52.99268
-1379.9729,1691.6738,-22.68185
-1086.7717,676.0194,12.993005
-967.8382,93.366974,-41.942265
-931.70966,-378.28812,-47.506104
-715.5646,-514.46735,-65.40612
-786.4164,-470.49222,20.904701
-848.7976,-487.12796,39.67541
-946.0475,-360.45615,96.314705
-955.9756,-186.03807,-23.248972
-2077.3162,881.3668,147.49457
-3425.7834,4154.3506,826.7838
-1844.1394,4138.095,518.8899
-564.001,2089.4802,290.204
150.59584,1327.0935,146.35577
424.79822,481.69394,102.84644
697.98926,363.14594,27.135141
728.633,211.24638,19.184818
670.37634,405.1846,-17.761047
596.9172,320.30554,11.845938
548.6806,470.52258,-30.859564
484.51407,761.9275,-119.67692
239.36182,2979.2573,-179.93587
-680.46387,4220.8936,-252.10306
-1246.2397,3463.126,-145.37071
-1394.7333,2193.1235,-76.74038
-1103.415,890.3532,-15.269354
-1008.39417,324.28415,40.48039
-875.9162,-140.53049,16.949835
-962.9276,-360.79947,15.0517
-890.5117,-605.06586,10.316129
-997.6703,-512.611,-4.415501
-841.8519,-455.7447,-68.105576
-1082.6006,-144.4149,54.72023
-1418.248,181.96106,43.636787
-3258.1653,3155.7283,707.9077
-2408.8955,4972.785,666.8005
-733.6921,2395.0767,251.59549
-46.61301,1709.1841,229.33896
383.6949,759.1637,116.62031
581.5885,329.15903,84.64651
683.8092,123.66303,19.847225
632.58246,283.4485,117.97784
609.0278,259.9672,89.79324
585.11847,408.703,80.76782
500.842,574.93536,-84.55239
343.45242,1926.6754,-94.35083
-163.90164,3749.8616,-337.09567
-837.3493,3905.8682,-245.78853
-1308.2991,3210.149,-77.18972
-1170.2838,1685.0377,-48.98885
-1033.4899,658.8701,-39.367203
-1016.6634,158.8315,29.261978
-1133.6381,-331.05554,78.73018
-898.1748,-526.88727,-11.193052
-909.2877,-556.9662,-54.89605
-868.5411,-476.70023,-67.218025
-1036.9857,-354.30972,68.06708
-1030.6523,33.619198,68.67883
-2171.5442,1193.9775,218.63947
-3516.4673,4769.705,857.3511
-1509.7584,3995.3472,288.2499
-298.3568,1789.4031,225.19008
236.92166,1373.341,152.7368
540.2369,375.19635,117.62691
750.7164,155.234,-5.9531646
752.7231,8.902862,66.292015
662.43176,315.60336,85.84154
657.4002,281.50116,87.47099
577.26697,448.9773,-54.8126
475.95523,984.29486,-126.17377
116.567726,3324.2917,-301.70694
-703.05304,4052.4902,-360.69916
-1260.066,3433.4885,-155.59877
-1395.62,2421.6611,-74.29
-1116.1561,1093.8553,-22.325172
-1005.2704,423.81,22.827759
-871.30963,-133.83615,28.663343
-1032.3416,-333.88742,90.879845
-856.625,-568.9767,27.694532
-1004.959,-494.15558,26.707378
-913.5884,-484.8796,-10.4198065
-1226.6573,-160.06258,106.11908
-1358.027,-143.37964,-124.50998
-3210.0808,2242.074,502.55737
-3287.5698,5705.3013,789.7712
-995.7974,3116.3694,154.15913
-56.687508,1813.5461,91.26221
537.5908,985.1688,26.310635
695.0191,346.3991,4.483019
819.6259,184.90959,-96.57039
742.8609,210.84355,-88.18417
686.8367,359.80255,-147.20209
688.9164,378.58002,-223.93504
552.19244,726.98596,-238.52605
244.60484,2443.1477,-364.61816
-546.8632,4144.617,-802.8114
-1209.9346,3767.6716,-482.84207
-1425.6615,2744.2542,-254.70908
-1313.8693,1255.6345,-177.08383
-1095.3279,457.66818,-151.13171
-1069.9102,-68.29916,-81.556145
-1021.68933,-278.4079,8.072972
-804.23285,-369.1106,9.3910265
-835.90454,-536.69916,-45.14943
