# PAMAP2 dataset (wrist-mounted sensor)

acc_x[mg],acc_y[mg],acc_z[mg]
559.6654,427.51752,306.6817
904.3383,92.882996,293.65695
1024.2084,61.463104,230.59346
785.1626,-54.83708,104.84379
635.0537,214.00119,143.37752
18.68579,1935.5872,781.72107
-760.2547,4228.9424,1423.1642
-1550.7233,3431.217,1682.2808
-1534.6633,1633.4777,1186.0995
-1143.5808,774.91974,521.7268
-848.9088,345.05606,205.62297
-726.82654,-386.0767,-76.33531
-631.73535,-1089.3546,-356.5336
-666.57477,-1143.6311,-461.93524
-865.8693,-931.0593,-185.67702
-903.1705,-730.8266,-155.46518
-1612.7986,734.1115,376.43124
-2487.0144,2577.515,1657.4343
-1687.808,3126.1711,1711.2756
-750.197,2111.4253,1234.2444
-164.73076,1321.6349,941.4044
146.54796,1056.8358,696.858
412.0328,595.12756,559.72766
784.03455,54.860634,292.511
1037.9507,-71.30728,175.14256
864.86664,36.74532,200.38419
675.4178,238.81274,244.55278
65.107216,1526.5739,631.77814
-657.8312,3175.1216,1067.0773
-1478.5077,3250.602,1111.7178
-1708.8601,2463.9575,1023.92065
-1449.6028,1605.8737,551.23224
-1038.1326,638.24866,211.09317
-768.28516,-76.69194,-179.55545
-577.6615,-690.3087,-252.76964
-550.64624,-998.1669,-283.64026
-689.89276,-948.13934,-150.8907
-914.2363,-917.5205,-217.51761
-1237.697,-25.101254,201.15099
-1791.2306,1707.9192,1073.7511
-1549.2041,2372.5107,1514.3762
-1068.9955,2113.9558,1494.6747
-622.82074,1278.2668,1176.4045
-198.20045,944.8704,896.71985
62.180637,587.5533,709.8868
404.3519,152.33481,422.69955
725.17725,-110.70673,326.70923
805.12305,-84.60037,258.55978
652.7826,25.220245,328.9877
366.2689,264.08777,374.94064
-410.37695,2003.5988,1070.4982
-1437.7872,3357.3022,1444.7294
-1969.5684,2450.4685,1145.3154
-1758.2157,1668.6257,932.0425
-1360.8365,757.91003,367.32816
-830.91473,32.8604,78.96517
-583.51245,-533.1871,-100.45178
-397.86295,-772.17236,-251.02788
-403.77008,-993.9372,-251.51538
-551.6016,-746.2313,-205.17363
-749.08936,-620.6316,-152.7249
-1197.5719,-128.5922,-25.640326
-2504.1248,1257.1017,749.8546
-2838.4636,2990.573,1410.6411
-1666.5862,2520.9417,1105.448
-607.9125,1182.632,871.13464
-148.86345,765.60895,653.9909
277.6281,400.87192,649.2474
786.1053,257.06805,525.7086
1167.8577,-113.17099,257.78345
893.06964,238.11815,219.18535
762.5826,170.78043,152.25995
8.612218,1376.6321,109.87945
-860.93964,4486.1777,569.5354
-1465.263,4086.8125,744.8107
-2144.671,3755.3274,517.3423
-2301.159,1863.3806,315.60754
-1570.4788,509.39114,11.069847
-1074.3683,-791.5749,-354.1088
-822.769,-1444.3425,-447.18985
-593.7413,-1456.9286,-200.05942
-646.9955,-812.6463,6.856874
-866.7476,-698.8661,-136.06197
-1169.7168,-289.98465,-2.092895
-2014.0885,504.05478,262.78986
-2732.3535,2316.821,1041.9181
-2224.6057,2806.0505,1229.9617
-1364.118,1872.5183,827.3945
-752.02625,1170.6414,791.6225
-433.5912,874.5073,616.77563
9.929655,483.78848,386.9523
547.33154,456.62122,355.6726
1100.6533,688.4205,382.07166
1138.9492,892.3003,406.72488
655.68463,1097.4598,319.1378
-5.142912,1702.6313,284.88052
-1221.0383,2439.978,571.41565
-2628.5703,2725.884,742.8107
-2460.4614,1899.2594,471.64505
-1958.0922,973.5344,277.00568
-1278.545,370.45486,170.7181
-697.8396,-374.3579,-64.77207
-312.1374,-943.6513,-306.05612
-249.21562,-1077.6951,-181.6022
-488.5554,-776.01843,1.4847811
-740.404,-675.65247,-10.658344
-1091.8204,-224.13438,70.21558
-1986.8505,636.50964,346.14395
-2452.6514,1850.9973,1041.1896
-2064.0334,2400.7173,1015.49
-1145.597,1420.8478,840.2595
-727.57623,993.2498,721.6169
-263.21112,705.4239,516.6954
363.0041,673.85754,395.84366
1113.8754,446.1549,391.17075
1234.2963,509.83704,353.9091
861.77423,640.0984,344.87265
255.91226,1121.5844,342.6238
-93.90733,1834.3854,256.93
-1378.4188,3435.029,520.50543
-2913.3184,3607.4485,488.99493
-2234.7441,2311.0107,-61.285297
-1661.0619,1186.0862,-145.80458
-1179.4518,361.21194,-354.29623
-822.5547,-521.34735,-457.8371
-638.2569,-1018.56805,-521.4445
-646.5176,-1155.4313,-324.5949
-800.80554,-805.4325,-160.7664
-1007.5877,-682.71576,-36.453102
-1257.2511,55.108753,86.66978
-2155.1775,1617.3005,699.07654
-2164.6484,3102.0361,1164.6013
-1343.4403,2783.1177,1139.9376
-486.41006,1463.8829,844.2094
-186.93826,1032.7498,596.4202
79.629425,693.19507,534.92303
540.28735,303.9564,245.44083
963.96765,49.866447,154.48546
1010.3134,54.448097,134.53963
947.5964,193.05193,143.32109
726.30005,288.37842,1.1446648
-89.16129,2405.524,514.82965
-1235.1475,4257.5723,964.93005
-1893.5984,3632.544,897.2994
-1929.6741,2400.0454,706.6094
-1724.2924,1201.6327,347.2637
-1399.4388,228.12607,91.031975
-1030.6373,-501.86728,-52.198696
-850.73016,-991.0206,-109.96887
-678.25055,-1257.7122,-82.46879
-756.2514,-923.73914,65.52018
-811.8233,-665.8103,84.98127
-852.7284,-142.06358,99.78227
-1572.7971,1359.5176,671.6464
-1773.382,2704.0083,1041.4498
-1230.5203,3383.9375,1051.1456
-559.1751,2100.0679,990.1966
-190.88611,1050.4409,610.5693
5.6460752,534.38715,503.17767
388.47464,282.61404,324.42596
719.82794,57.77274,221.08699
935.70166,51.151463,164.71797
795.6362,76.53697,203.4659
705.53375,218.67796,77.304886
268.20007,1042.6583,266.17044
-597.1492,3308.729,890.52167
-1855.862,3892.2583,1115.8235
-1928.1558,2357.8303,823.154
-1468.3623,1432.9166,536.57153
-1128.921,582.29663,342.68536
-809.3509,-55.429718,68.61901
-606.32733,-766.86163,-158.45659
-403.91147,-1013.2926,-214.06467
-456.98755,-885.6087,-102.42023
-707.4749,-656.1235,-2.9948058
-823.2956,-395.792,-47.777554
-1735.984,1075.6292,523.67114
-2234.9258,2553.367,1208.5541
-1431.0032,2914.9534,1082.5557
-664.17206,1803.1454,1021.5065
-222.20366,1130.1116,775.59906
-105.34849,724.71936,736.23364
359.37695,257.09003,405.07526
807.0022,-46.301853,110.70733
1017.5741,7.5595713,18.900372
755.49506,288.739,139.6266
591.60583,381.91907,133.92578
58.50859,1627.5956,391.92255
-680.44025,3431.5452,610.37683
-1832.0422,3444.11,848.1392
-1687.3513,2215.647,510.73325
-1327.1842,1326.9113,255.0185
-1040.1091,499.6669,140.79504
-703.5854,-136.68117,41.4487
-447.44144,-857.40784,-66.11957
-348.87057,-1019.547,-152.78009
-530.3124,-904.27356,11.392612
-701.3993,-596.4562,-1.1753377
-1034.8202,-280.81866,129.30644
-2002.6576,1213.9714,513.51227
-2482.4258,1811.4769,1233.479
-2005.7615,2028.8507,1269.3455
-935.65955,1718.8385,999.82745
-361.7288,1323.9634,924.8013
-26.672195,1073.4283,647.799
483.09875,539.4246,356.88843
959.82794,377.6819,283.56348
1137.2253,188.04811,256.6762
813.44434,404.24564,357.008
412.3496,524.89636,292.67352
-167.16245,1793.2795,395.45804
-868.5188,3232.4504,666.204
-1741.448,3195.987,833.7023
-1891.7673,2494.2886,626.60156
-1652.02,1551.383,302.63562
-1246.3691,609.0855,99.708916
-1059.5458,-12.002565,-122.56198
-896.3228,-792.92163,-271.00473
-725.0619,-1214.8856,-348.53287
-802.5967,-1048.1305,-81.67331
-903.7773,-974.0074,99.566246
-887.16315,-472.52527,74.68763
-1786.7562,997.79767,705.96466
-2157.905,2315.8442,1515.6039
-1708.6611,2851.1462,1450.1018
-937.51434,1756.4907,1146.8898
-339.9452,1060.4219,844.5024
-83.98734,694.7206,716.3752
309.63037,372.0546,481.34552
788.2493,50.1996,344.3724
1016.5248,68.06561,264.6072
883.0642,193.29561,246.22386
616.27277,295.3087,159.52432
49.243755,1408.3649,376.02628
-1023.5229,3532.3254,1214.7708
-2469.2993,3450.5876,1241.0614
-2151.0017,2104.739,757.22406
-1856.7578,1296.6742,634.7652
-1413.1592,540.6172,311.30084
-1106.7123,-33.22238,31.543388
-799.02026,-939.6367,-376.14456
-603.94305,-1284.5217,-497.25558
-719.378,-1162.2954,-208.54767
-897.8002,-872.39716,-0.88591176
-990.7168,-300.79974,151.17097
-1666.3712,916.6272,747.2143
-2324.0566,2160.5854,1276.271
-1824.9723,2812.0007,1433.1721
-886.49005,1923.8029,1171.2865
-333.58472,1150.7865,971.24744
-62.683647,728.82166,694.60034
441.03174,434.3372,443.4991
915.70703,188.55127,310.99774
1150.8615,-5.512376,54.75608
1040.7976,335.63632,-91.196754
792.4642,539.3495,50.325623
-36.534626,1702.1172,248.35835
-1182.2578,4115.4204,325.38605
-2184.71,3577.2544,803.72876
-1996.3867,2276.6494,745.48975
-1698.4884,1353.5371,415.66788
-1283.4866,431.4077,-37.325024
-1106.6399,-379.74316,-154.7692
-865.11835,-584.8837,-74.73645
-674.3697,-713.52814,-139.9501
-656.8232,-1216.0448,-96.04574
-874.01843,-908.32245,7.1099944
-902.8188,-577.14166,161.68045
-1683.5515,837.7204,322.8976
-2527.814,2245.384,925.6411
-2189.9705,3040.9727,996.6465
-1073.1573,2236.249,556.99646
-462.84695,1294.2751,390.89313
-85.71729,855.9251,294.54218
505.99442,671.9149,258.26343
1171.0885,601.6605,368.1223
1205.1998,265.0837,395.6288
833.4584,379.164,327.49594
512.4999,343.22128,76.31027
-78.67947,1558.6384,53.167793
-1472.6116,3566.9507,507.86258
-2372.2336,3279.2305,498.51855
-1863.5786,2284.8904,429.9308
-1551.4442,1361.8071,223.74219
-1196.7905,741.02875,235.07306
-1089.075,294.2871,51.38216
-920.20935,-528.824,-165.2394
-802.13763,-1296.3824,-349.1424
-659.99207,-1200.8271,-330.95328
-868.0445,-900.92114,11.691903
-759.5155,-563.35284,277.56848
-1439.3508,583.5716,481.8418
-2166.238,2347.6294,1100.9868
-1647.0975,2921.0842,1414.4915
-749.751,1956.6779,919.9623
-174.6924,1252.3425,674.7687
157.23479,1053.2251,407.5265
536.80756,661.8522,319.27615
620.1874,162.84296,237.62865
822.8755,-63.756836,145.80736
690.7601,-2.0273597,114.645065
550.19305,214.92406,215.66257
142.79103,1035.929,334.59427
-490.78082,2618.4604,450.38132
-1586.4264,3790.4868,676.91986
-2030.9357,2814.136,786.1144
-1441.78,1528.695,372.7682
-1085.7318,759.6467,242.9592
-762.86975,248.06763,74.46433
-652.0377,-186.6927,10.110289
-579.6035,-515.3846,-133.12123
-573.8128,-792.9296,-270.66754
-709.34735,-575.09534,-217.1747
-813.8728,-281.22485,132.18672
-1055.0231,640.6753,526.5836
-1208.7489,1741.123,936.2487
-969.6082,2477.5225,1381.7869
-498.55972,1975.7502,1189.5741
-170.28125,1264.1216,917.1932
18.567757,764.98627,700.6226
276.15048,407.2487,446.76938
483.86832,73.7432,405.90573
759.59625,-163.17047,339.85626
850.5794,-137.94579,191.57703
779.30066,-50.62363,87.524635
571.0729,300.03223,119.96744
285.14868,2740.653,942.5206
-577.9481,3920.2385,1256.8606
-1241.0914,2955.3977,1266.823
-1249.865,2056.874,1044.9354
-1123.7974,902.4451,481.36096
-818.76746,275.43872,284.2299
-704.13806,-221.53026,21.936874
-628.40027,-689.4452,-151.14052
-660.0948,-966.8346,-374.10764
-750.85187,-808.59283,-198.76328
-819.3498,-570.3288,39.67502
-1159.6238,859.40497,795.6028
-1673.4209,2198.8093,1731.0182
-1202.7125,2810.3694,1918.6704
-358.7001,2158.2327,1516.4513
120.34985,1176.6853,1128.1174
305.12128,907.46857,639.4769
472.323,481.7724,398.56586
561.67584,204.17921,168.52165
746.6006,-52.717167,-1.557199
695.0213,18.29959,-18.800957
632.6404,-199.3143,-23.753868
583.8775,166.50919,77.388695
216.63354,1631.3408,1349.0813
-204.00226,3194.3467,2006.3054
-721.4354,2592.1187,1833.7963
-657.00024,1457.5148,1314.5924
-554.40875,1005.0147,916.5906
-438.43158,462.92783,518.6589
-445.7867,-119.43421,94.74342
-548.6124,-293.27502,-103.86239
-629.6507,-460.35498,-224.09679
-793.79694,-514.5412,-326.4211
-763.19135,-356.24615,-62.641926
-814.2048,596.1431,720.2337
-1172.3138,1384.4213,1560.1409
-876.2057,2265.0833,2431.223
-421.09573,1785.8368,2225.1487
-32.99816,711.2187,1443.9647
197.56685,543.24915,910.5367
383.6755,291.63806,392.0891
529.64343,209.11755,72.12239
744.0143,98.44494,-132.59534
747.9259,76.93108,-64.25915
732.7684,-106.76487,-70.995636
684.1664,430.609,256.63333
438.24072,1686.6691,1323.3536
-87.83242,2608.8489,2137.348
-715.12714,2446.8857,2241.5195
-770.00323,1670.4861,1729.8956
-598.7672,873.05963,1102.7587
-472.59982,408.8573,523.74786
-438.73334,-60.030823,64.556244
-477.83334,-390.02957,-174.44398
-459.0528,-571.85504,-280.72607
-555.15173,-458.16818,-240.88338
-641.45447,-329.62833,-60.254528
-735.5102,931.7079,954.185
-1201.3865,1826.4866,1655.8097
-950.75446,2298.2544,2052.117
-418.24094,1772.1196,1753.9183
160.25891,957.55225,1160.9409
458.88577,740.78815,742.12604
735.72784,380.938,360.35373
838.51196,211.62457,210.15642
945.20605,17.412619,20.180317
896.00336,-22.915014,-48.83584
674.69556,-102.63021,-13.914201
628.8707,313.93726,101.92305
446.98666,1688.9579,1188.1315
-614.21814,3583.2754,2223.7786
-1556.8717,3244.6458,2023.0974
-1065.4658,1535.1381,1171.7883
-782.0379,805.6404,756.5325
-526.4282,206.38597,376.59326
-466.8549,-268.2364,-54.429646
-440.1093,-742.74,-286.87073
-499.278,-716.40845,-247.73474
-622.30743,-605.41425,-210.46712
-790.4304,-60.76778,214.02556
-1162.9879,1336.1885,880.18713
-1287.4624,1854.407,1560.5323
-836.1771,2173.0427,1909.3436
-431.79752,1639.9224,1547.1726
6.118417,979.00183,1112.8986
160.1695,587.78326,674.5566
350.83118,262.03644,396.37247
475.05658,112.23605,230.84946
760.9054,0.31874144,95.725716
660.0404,138.26573,130.9525
683.75586,40.519836,106.65249
433.81732,1027.5784,565.0605
119.05523,2657.5037,1114.3577
-757.754,3854.697,1395.025
-1344.7723,2872.1914,1403.4426
-1077.0453,1715.3278,839.0364
-993.9016,898.72516,563.43353
-788.63336,206.44003,213.21173
-780.553,-442.9137,-34.744312
-592.3529,-1069.5106,-319.3598
-672.3761,-914.9163,-261.28168
-749.89954,-968.57306,-114.188095
-954.65076,103.56361,275.37442
-1430.4287,1859.1744,1017.5485
-1329.4165,2531.251,1607.8854
-785.6914,2753.9512,1342.9633
-291.05823,1738.3483,1117.2402
83.41929,1124.1448,627.0764
338.50467,611.99805,355.90588
535.8422,354.44873,251.97414
730.0513,12.70896,198.8924
824.7672,64.12979,144.84181
737.5701,21.004787,193.87036
600.51843,352.88055,221.19377
244.05095,1436.2096,802.96826
-462.46408,3348.579,1141.0043
-1395.6975,3528.1245,1306.1581
-1226.1528,2088.1924,928.508
-940.9747,1238.7546,544.1638
-711.5663,502.53064,280.74753
-571.17505,41.291958,67.03481
-550.90106,-497.42252,-64.446144
-585.28687,-702.1852,-153.33385
-753.81555,-516.93225,-76.26744
-840.8884,-28.576864,238.51494
-830.49695,455.11688,310.6593
-1009.7672,1481.4147,983.57196
-897.9,1965.9723,1767.6415
-488.42267,1875.609,1444.8208
-141.92873,1227.8406,1161.5325
128.39465,871.92664,782.772
230.64348,513.4426,616.55804
327.5425,225.78891,471.584
576.8171,-140.6468,197.95663
723.4584,-96.432625,51.104435
682.3323,144.87552,108.97307
598.9588,432.05368,296.67514
267.05334,1479.4497,801.842
-262.69205,3010.0774,1235.5828
-1072.7115,3076.9143,1444.1942
-940.8953,2086.228,968.3883
-794.42,1224.3689,693.8787
-612.91425,703.043,426.1345
-510.40512,18.434208,120.34259
-456.70837,-475.28067,-94.869736
-417.67337,-787.3896,-262.84918
-583.57495,-588.924,-188.88824
-735.0795,-655.41327,-120.091354
-1075.325,616.59503,325.38422
-1669.1051,2121.691,1063.4984
-1291.1863,2587.9143,1433.2979
-689.15704,2359.4148,1278.2441
-168.80087,1359.1102,940.7904
163.41296,1056.248,672.6178
429.74133,615.3989,489.83743
605.6439,334.91278,365.8526
843.8888,-112.04257,117.496086
839.9277,65.145004,58.773
773.64343,118.73426,76.29634
630.20514,628.0824,160.72629
257.16663,1862.9678,477.02216
-386.7494,3367.7659,599.50757
-949.1699,3108.1152,764.65234
-788.43994,2118.125,644.23987
-711.3793,1328.4813,442.1935
-572.1479,592.9744,216.42876
-542.8193,56.88744,31.943836
-560.9934,-300.22864,10.276676
-527.4855,-542.7122,-48.7653
-610.6494,-520.5312,-118.589645
-629.13794,-621.6436,-18.513935
-818.65295,657.53375,461.04898
-1133.0553,2150.0195,975.06335
-917.95215,3074.9827,1185.5253
-229.20677,2769.7568,995.0615
136.74132,1370.4873,789.36914
292.95862,857.0696,456.62274
415.58066,242.64638,309.738
439.74265,-81.42967,178.95258
472.07135,-340.6592,136.93402
500.91168,-172.85934,114.772804
475.69144,-238.30214,153.69963
384.1438,469.54788,221.72165
256.82883,1931.1613,350.7907
-292.87268,3873.816,437.25415
-957.25323,3379.9397,704.82513
-865.9655,1992.2543,434.48087
-802.45886,1078.6998,269.26956
-754.9686,338.0655,153.3371
-583.2669,-206.6807,138.45056
-476.42398,-665.1209,-0.15776761
-386.28574,-884.64746,-134.13145
-643.70306,-620.7892,-141.60435
-639.34515,-593.2671,-29.057497
-1213.7302,710.12354,132.93887
-1870.3439,1957.335,663.874
-1680.8658,3064.7913,1393.9696
-1049.6614,2398.4248,1123.592
-394.1494,1340.8523,791.66534
-160.58673,839.2069,546.0224
146.01634,447.3736,372.33914
460.6495,230.5324,318.70718
804.9411,17.093002,299.43863
745.7833,142.94856,295.28638
605.6295,277.507,259.38458
309.1646,1134.1571,442.79303
-278.64404,2767.1736,760.6107
-1435.2322,3552.4885,1266.9559
-1583.9188,2520.1294,1070.9865
-1268.9435,1394.0269,472.3017
-972.9017,522.6999,203.2798
-712.4719,-68.37457,31.189657
-539.0026,-606.56995,-52.79356
-458.1194,-954.8454,-265.50937
-462.18173,-890.9732,-245.10286
-699.7477,-627.80115,-143.23024
-975.47864,231.04346,369.7302
-1823.1919,2048.0068,1188.0079
-1733.7518,2963.289,1195.9604
-826.11456,2387.0522,1144.3485
-300.6822,1408.8533,879.8715
-20.870554,1040.6959,538.978
284.99652,561.90466,279.1304
530.159,342.54025,224.72249
795.6775,-49.254658,105.384125
854.13275,214.59502,140.23145
794.0109,6.8730974,128.40947
583.2439,618.5337,190.67915
97.54335,2173.1194,588.22406
-514.4053,3720.6672,874.93964
-1238.0876,3363.6548,1184.3003
-1419.2322,2145.089,955.65564
-1277.0682,1181.9808,538.0755
-998.0772,360.86386,219.47694
-758.9299,-356.55554,-139.12807
-676.0404,-605.84894,-171.03223
-587.16437,-789.1503,-191.75227
-707.31476,-654.62585,-59.70601
-737.5621,-725.49396,-88.51958
-1002.66925,358.3372,466.62723
-1645.1992,1854.6381,1034.0967
-1728.4214,2385.9116,1345.0137
-1030.8091,2646.7312,1371.2494
-295.62943,1321.4581,1197.8995
4.8790183,887.68835,903.317
342.75827,312.33072,602.4665
577.14215,286.26495,351.52277
891.2182,118.820145,169.00922
789.29877,296.89642,146.41539
706.4437,185.22903,162.84438
392.00726,928.2293,281.25314
-73.69205,1831.8566,649.6465
-906.6095,3816.5571,730.5441
-1675.8691,3162.4187,993.4361
-1284.8536,1817.1195,741.3154
-1028.4431,986.9058,350.42395
-915.80963,229.52512,145.42937
-821.07623,-705.65216,-107.92278
-660.199,-1172.2014,-325.3839
-559.2598,-999.88025,-209.0957
-786.76996,-883.5704,78.76626
-740.3424,-496.99115,163.13493
-1690.8683,946.73254,443.9422
-2414.5547,2669.5894,1319.0082
-1693.8137,2855.396,1353.1193
-704.45215,1893.2286,789.65247
-246.70595,1252.855,747.9059
-18.753376,916.941,380.88464
397.9588,646.1209,260.2209
849.47095,268.65393,89.30094
1034.368,178.42877,73.58127
821.3134,74.407455,48.853935
608.2637,470.23898,134.74039
160.75375,1066.7225,251.33302
-853.6067,3371.4382,556.4808
-2010.1577,3929.7102,970.9499
-1682.5511,2143.0088,777.3249
-1290.0667,1274.3629,360.18985
-877.2713,353.54788,224.28662
-730.54095,-3.9746068,111.5318
-599.692,-679.5287,20.69674
-581.6771,-963.2608,-199.32599
-679.3639,-852.0576,-207.74242
-842.0467,-769.16644,-57.59482
-1130.3018,175.74191,302.2961
-1956.5807,1857.4536,889.82983
-1678.2262,2761.7588,1478.0203
-812.7134,2544.8171,1145.3241
-250.82617,1425.759,846.7659
-67.10362,1041.0327,524.71204
247.34567,490.91046,403.07507
490.85928,308.557,314.12375
929.7637,-163.57204,135.31165
839.95496,-60.509426,38.78343
783.28937,-249.66434,16.401525
621.70734,283.21796,-113.723404
-200.71028,3224.2915,879.6671
-1298.8916,4668.3623,1331.6044
-1549.5583,3386.3728,936.5668
-1244.4128,1406.9507,513.9708
-1038.4319,508.04,255.33302
-840.88354,-280.9033,60.16142
-759.0469,-816.4015,-176.00722
-660.5613,-1071.6837,-161.93164
-774.1981,-907.03906,-96.7447
-942.71185,-789.2743,-125.35272
-1271.117,506.13455,433.58868
-1789.3129,1897.4739,1005.29803
-1490.5092,2656.23,1338.722
-846.9896,2379.147,1273.1901
-301.43997,1454.0862,867.13617
11.325923,1149.9646,669.9239
324.9422,704.9587,375.75528
668.349,445.09695,197.32236
1008.0288,174.72362,93.854965
909.916,213.7576,191.53189
736.98114,149.31096,106.71623
364.14493,806.9406,361.51474
-159.34195,2473.8188,939.26556
-1292.0221,3916.3884,1305.0143
-1787.3549,2605.5208,1201.7535
-1357.24,1417.9713,612.3789
-1082.3042,640.94727,317.19315
-809.48517,59.676125,71.829254
-696.61804,-532.74005,-135.39577
-557.3223,-940.1275,-338.5914
-657.8182,-845.79785,-224.56282
-690.6031,-714.2911,-176.00441
-836.8423,226.94806,332.80234
-1361.1003,1614.9114,971.952
-1299.4296,2557.075,1367.5155
-901.02216,2594.6914,1336.0941
-475.0088,1495.7542,1006.63385
-248.91354,979.9515,832.1337
67.24222,287.21988,554.43896
445.6402,7.579856,444.58472
854.0097,-300.6431,262.2623
749.8732,-293.10126,293.21112
715.40405,-171.77823,103.26389
252.6949,811.23065,532.97375
-365.47177,2553.8535,833.4895
-977.09393,3723.6326,913.61255
-1371.6443,2700.9324,1020.9592
-1056.7971,1630.3049,589.74536
-905.58344,819.2923,409.8975
-671.73865,289.37448,146.14441
-625.84174,-481.54172,-103.778206
-587.9019,-961.7498,-227.60127
-645.2673,-1035.7618,-162.87068
-789.435,-808.3478,24.817457
-844.73627,-494.6945,54.86774
-1637.4526,1184.4698,520.899
-2022.9757,2800.775,1420.9725
-1386.9941,2950.7756,1359.7063
-662.6803,1575.702,1060.0397
-285.5302,1037.391,752.7731
-74.59354,567.09955,563.0381
287.9716,287.55643,333.25763
673.39435,-56.19742,159.67407
875.1824,17.311388,144.26842
712.7749,48.165825,135.33182
599.09705,359.17242,180.59358
193.90532,1205.8505,636.9257
-212.32643,2824.6724,1094.2303
-1233.7549,3553.677,1325.8829
-1331.7188,2384.8203,1023.0415
-1159.5396,1417.1768,638.12787
-1037.6654,738.23505,379.56763
-900.7322,-157.33054,101.41082
-725.5693,-647.14636,-192.91458
-710.1538,-968.8408,-484.69278
-870.65424,-813.981,-273.68045
-928.0544,-751.7706,-120.18783
-1030.4364,-88.68457,101.62159
-1849.4662,1405.274,909.55945
-1824.4401,2719.8022,1658.2235
-1147.9647,2534.3591,1437.5734
-419.293,1416.8542,1078.1693
-167.09065,982.739,854.95966
79.52428,690.0874,663.6653
358.91724,335.06906,411.38675
750.2514,-40.767784,177.56943
846.84186,-33.16356,31.875767
730.7202,165.21329,89.15312
470.9065,730.15643,326.5371
-490.0094,2976.7188,1532.2826
-1420.4874,3397.7346,1969.2256
-1612.4713,2238.6836,1467.4521
-1357.4962,1195.9911,1013.5974
-1077.7593,436.8607,446.75504
-934.621,-173.20793,29.057882
-867.1948,-963.7286,-431.75146
-731.0058,-1245.2374,-580.6268
-739.8176,-1001.0545,-304.68115
-816.6998,-783.1838,18.168177
-1099.0498,361.63693,334.64536
-1940.9268,1682.3658,813.0973
-2001.3727,3010.5923,1665.9911
-1196.5592,2749.4192,1368.3257
-493.13345,1433.7599,901.60754
-197.87057,915.4338,536.278
265.68393,601.7237,413.7176
576.053,367.2546,302.74814
892.1104,-146.486,135.26701
885.99347,-58.56549,36.306515
733.80457,86.87927,101.14287
453.04385,603.3915,273.3295
-159.692,2151.8074,801.39734
-1125.137,3869.546,1237.7076
-1602.9797,3020.838,1256.0583
-1302.3591,1800.7565,811.92584
-1026.8206,781.5311,425.23486
-849.5543,83.72021,107.470184
-763.9816,-626.4598,-134.47165
-694.66,-965.8695,-275.85657
-688.10034,-979.8101,-229.27487
-802.9109,-753.6392,-53.785397
-846.39465,-495.1915,47.046818
-1733.6477,1236.884,566.17145
-2199.0317,2751.9004,1591.9629
-1276.3967,2939.3252,1451.8159
-385.76184,1728.8024,1090.2689
55.64022,1127.97,803.6536
252.93053,906.95667,584.95416
530.3307,387.27295,287.54874
723.9043,34.617302,77.75919
778.1018,73.5737,44.903984
657.00696,34.776333,95.69131
578.66516,330.83487,148.16435
31.566175,1503.6418,625.56256
-752.78436,3821.5764,940.93805
-1542.8446,3767.193,1151.1204
-1378.7191,2138.5962,810.298
-1066.6932,1093.5337,363.10004
-809.74243,110.78059,53.007286
-717.3088,-362.18808,-98.898636
-648.9981,-958.9113,-245.8796
-642.92554,-1056.8596,-250.63385
-827.95215,-884.57623,-141.88757
-809.5267,-575.70905,75.93567
-1366.2649,908.4845,566.44714
-1966.3947,2913.4636,1768.2631
-1175.4695,2439.7874,1813.4227
-583.3448,1254.3254,1050.2625
-187.73273,898.14813,1114.3612
17.869442,852.33374,839.4086
274.82437,303.5375,563.9051
322.47214,-165.04475,163.05081
534.87885,-202.48277,222.19113
613.4038,-28.914583,163.19037
678.99396,-72.54104,147.60736
398.83063,437.77057,211.32114
54.29189,2006.7257,985.185
-1311.8643,4022.2576,1441.9536
-1848.3073,3100.9504,1061.9225
-1058.8936,1479.3695,553.1175
-1028.4872,1068.6161,602.8176
-678.932,303.62485,264.35898
-681.08466,-440.86096,-80.99191
-512.92847,-1063.0316,-407.04474
-723.6361,-1000.2495,-270.70374
-885.4781,-829.1052,-33.594444
-1150.9902,-444.5224,152.46103
-1966.5032,849.1977,221.64009
-2384.9158,2526.171,1274.6301
-1530.8186,3047.7112,1291.898
-586.07806,1852.9583,887.8488
-18.70601,1216.911,559.5886
192.15675,966.8184,393.61752
446.0993,625.2833,212.61652
609.899,44.052795,7.048863
796.02985,101.846954,-26.10664
721.966,145.26958,164.26207
620.66766,309.49524,212.7349
237.81146,1310.737,594.2414
-678.6248,3362.1196,802.9894
-1839.4094,3738.1436,1007.7819
-1675.5087,2117.7627,789.2785
-1230.53,1276.8402,443.96564
-917.8304,493.0812,244.59209
-689.39795,-28.014107,-0.14504959
-576.88025,-608.6381,-184.49956
-525.1525,-977.5717,-322.5013
-687.2401,-922.02856,-318.70956
-841.70026,-765.8601,-107.88765
-1086.648,87.06626,26.974674
-2001.3617,1967.63,740.7595
-1829.4377,3244.0437,1257.3428
-923.8042,2598.3538,1177.704
-74.04061,1246.1476,927.2541
81.25222,1080.6951,757.5722
259.52704,588.44476,624.95435
447.11523,200.01106,239.3872
689.03375,-65.42446,-38.12984
626.97815,198.95108,1.7993118
569.77716,185.11359,77.1029
274.5225,719.36743,208.547
-245.35126,1958.1453,489.02466
-868.04193,3144.7961,793.6733
-1642.4601,2913.4968,1071.8368
-1461.017,2065.7717,741.41565
-1173.4093,1118.1595,461.27145
-873.1839,389.91107,151.31989
-636.2073,-207.75136,-53.451885
-589.9945,-646.29944,-141.97
-546.65344,-917.0561,-228.82758
-718.2947,-846.98413,-117.13496
-806.9299,-733.3617,100.77238
-1080.5204,-22.741535,386.7951
-2148.0137,1456.387,902.6144
-2056.0884,2430.388,1359.7134
-1193.7666,2373.741,1263.1821
-557.32214,1421.3157,884.10596
-253.69885,973.93835,596.0849
98.90416,716.44775,431.02618
376.83173,399.7403,267.20383
798.61475,2.7804375,17.706266
817.01025,21.986362,10.4487
683.5357,91.17433,127.578186
407.2895,556.29956,375.6413
-271.5984,2460.685,976.52545
-1374.6193,3820.0854,1225.5989
-1720.0128,2939.2651,1099.998
-1317.2402,1947.3854,710.6671
-1051.1261,803.52545,425.876
-857.4089,53.582417,28.171276
-759.9913,-839.59033,-336.93674
-775.0576,-1231.8627,-367.49866
-774.94904,-1133.2643,-177.7661
-935.6987,-766.14844,-90.23123
-948.32196,-621.2086,-222.52835
-1764.9796,939.45825,320.22186
-2456.0327,2732.5398,1385.6156
-1556.5891,3245.208,1377.079
-679.2107,2201.2146,1125.4087
-217.43596,1486.1763,839.6604
-51.315063,1010.05743,557.41345
319.2399,549.4801,315.84863
629.1897,209.65125,129.03981
941.8487,-59.949318,-18.506762
964.3143,141.03513,135.63051
799.8713,208.00764,230.83235
194.47533,1071.3397,356.7935
-410.31583,2617.0054,713.6564
-1435.343,3678.583,994.4951
-1680.198,2867.0608,840.31396
-1214.7845,1760.7935,561.7666
-929.2432,1022.18225,388.277
-656.1295,241.47035,82.132225
-631.9623,-355.4556,-150.53758
-544.25665,-1209.0223,-315.41705
-607.42267,-1145.6472,-233.60825
-869.646,-988.46466,-21.390133
-1040.3684,-208.31815,58.230526
-1579.652,1349.7754,566.95386
-1822.1519,2356.7705,1173.2201
-1420.692,2733.6484,1402.0479
-960.56274,1978.8385,1182.2272
-348.4072,1207.8846,832.7932
-68.461395,724.76044,516.71643
278.01944,483.30023,371.73898
497.86038,196.29283,130.97598
714.55865,9.858327,-27.146193
668.6688,54.101017,-19.563793
605.9851,178.03958,70.754585
288.52026,738.4903,169.25615
-522.21625,3223.95,1022.38
-1740.3474,3813.5227,1139.6815
-1363.07,3322.8325,739.48816
-1207.088,1900.1029,852.66064
-1007.0638,627.54895,735.9188
-568.82404,-9.167622,488.9926
-604.1247,-448.99857,90.28288
-660.25433,-728.5615,-7.77364
-702.95123,-804.90234,-28.004177
-658.5055,-681.24164,7.678234
-836.042,-695.2182,65.91537
-1106.4729,201.23692,251.4513
-1565.538,1878.2676,654.11835
-1364.3846,3427.9712,932.4573
-641.07245,2951.8572,851.8731
1.5966997,1651.1707,714.1044
172.44858,1164.2156,445.15668
407.6228,448.7774,321.88425
503.4197,96.91431,163.66809
664.6866,-40.23555,153.63686
783.7408,-62.67668,34.947437
698.9562,75.60674,119.62608
663.2054,173.66475,100.05536
380.79254,1127.2296,389.40643
-682.34674,3974.24,722.57587
-1872.4014,5043.265,1060.022
-1834.4834,3027.196,951.1603
-1398.766,1875.5514,514.312
-1081.056,700.4206,335.8781
-817.2203,116.76354,86.06623
-683.4224,-571.92786,-115.96062
-637.3168,-630.73505,-116.748886
-644.852,-918.8632,-168.36412
-776.1293,-851.6062,-203.93109
-884.00964,-596.0181,-147.81383
-819.6915,-211.4198,-21.241781
-1428.4067,1455.3284,663.91876
-1644.9651,2855.8186,1735.4762
-1068.3947,2892.8254,1647.8501
-302.7698,2190.6226,1332.643
10.282702,1454.054,980.3946
207.34195,884.13806,585.1711
398.98056,397.60873,321.43106
672.25995,119.78804,64.50923
987.89594,25.618671,-45.381557
953.02515,249.73598,-1.9675155
628.0663,469.2509,142.23347
-25.13295,1848.9191,584.2765
-631.5416,3691.8254,933.161
-1438.2401,3548.4932,1259.902
-1529.705,2245.562,993.2241
-1242.336,1210.1746,477.67416
-1032.9766,182.93845,210.86832
-838.94507,-271.84152,24.936153
-645.89294,-999.3932,-170.40338
-571.9154,-1124.8115,-307.3067
-734.6553,-1125.0953,-159.98833
-879.4409,-503.12634,-105.25091
-1075.0784,-375.55145,-171.2888
-2303.06,2451.8794,286.3843
-2013.5253,5516.1855,1538.3452
-738.5687,2615.523,1034.5806
-227.78308,1073.5236,300.15042
57.512566,78.919785,284.17184
206.50363,150.18045,266.56122
430.7964,48.13419,245.42442
687.5895,-131.44647,131.97044
832.9092,-41.64201,109.55849
663.9073,149.45131,209.39186
273.93604,1215.3909,604.75397
-487.72226,3350.3508,795.2535
-1438.6443,3770.7007,950.35406
-1665.411,2704.1724,930.7072
-1210.1196,1571.7684,501.81454
-985.36475,620.38446,344.8383
-678.6419,136.9458,103.33488
-661.19934,-443.70227,-260.23602
-499.38037,-1429.0719,-777.4225
-710.40985,-1267.386,-485.2043
-893.21313,-821.1936,-315.42767
-1228.8629,-298.78522,-149.8793
-2166.348,1229.0353,1203.8402
-2125.6462,2043.2474,1804.6107
-1600.4341,2236.6711,1929.0437
-940.1807,1384.9829,1381.6112
-255.39656,934.55066,822.08374
78.19788,594.047,437.45447
410.5872,504.55746,85.00152
648.32227,160.03398,-279.13538
857.3175,1146.5186,29.761604
664.36804,917.586,266.84653
619.6389,381.5867,-124.780785
202.13765,1092.3207,-21.400265
-388.7586,2903.139,411.3725
-1673.0724,3829.7925,727.5564
-1758.5756,2792.644,549.28845
-1269.2136,1618.142,471.79724
-906.38434,681.7131,217.9942
-607.2244,-232.41916,-125.404045
-567.955,-974.4168,-256.62222
-577.1092,-1131.9972,41.573708
-651.86475,-781.4131,79.651726
-895.59436,-738.3146,-100.59819
-1188.583,-65.98649,-162.967
-1615.1241,1434.7743,176.25436
-1675.2435,3068.5928,-450.55777
-854.8107,3837.1094,63.651077
-80.42317,2246.7302,329.1465
132.87845,1563.1276,95.09409
241.22017,899.48505,559.27075
350.75452,519.9039,493.3447
551.4012,-25.889023,362.69754
693.9877,-390.29044,69.13866
689.99493,-120.741745,59.03735
771.58405,268.55594,91.09837
917.5223,1062.5013,70.605804
-382.26816,4539.9873,159.74837
-1331.6886,4478.3867,534.85565
-1085.309,2605.184,583.01984
-989.1326,1186.237,285.3477
-826.06067,367.23077,137.87534
-855.5822,-121.67986,-9.546298
-736.76337,-733.8976,-109.6974
-721.8512,-1027.4962,-233.1092
-864.65094,-897.6233,-130.38518
-1030.6832,-610.0164,-130.13295
-1126.2963,-176.12444,-86.313805
-1685.4951,1779.3822,405.88824
-1927.108,3747.119,936.6255
-840.7364,3744.2046,1178.2203
-38.8868,2096.7024,906.6119
152.35529,1261.8645,544.443
290.65903,678.9136,452.40054
437.2954,190.0448,209.89429
633.0599,-186.21135,41.144608
803.86383,-8.192373,15.360688
719.8898,17.888893,156.72049
614.7863,177.01556,88.42191
75.00504,1494.6553,556.19104
-844.48645,4172.356,1054.6061
-1616.6191,3912.485,1172.4607
-1526.4904,2253.2754,800.17584
-1221.9127,1323.5248,445.2501
-939.9001,470.5494,231.02272
-775.7733,-335.6561,-199.96877
-555.33234,-1142.7563,-563.71136
-527.12866,-1100.139,-411.21014
-703.4613,-923.1407,-142.68112
-873.4942,-616.4613,-59.916508
-1124.5483,-187.58585,50.693523
-2412.4744,1763.1934,1224.7749
-2356.638,3200.6653,1907.3223
-1154.5295,2349.9116,1249.6185
-368.68768,1376.0984,1030.0343
73.64039,1174.431,572.5834
419.7633,584.5656,236.86234
620.861,308.84326,4.546057
862.5056,88.16726,-75.24418
811.1132,97.31647,-114.8291
716.5576,55.716187,-57.593384
455.4571,459.04086,75.540344
-86.7526,2563.042,880.3872
-926.3281,4135.8184,1404.1364
-1458.5375,3086.5806,1277.765
-1321.7528,2201.542,976.0009
-1123.2979,1082.23,573.13324
-828.30066,246.50081,164.29002
-717.4884,-496.50348,-118.948235
-634.4205,-963.2789,-256.16245
-693.5705,-1178.0201,-227.8068
-830.51953,-1013.5748,-101.36799
-957.73364,-694.8367,4.249209
-1596.7836,716.433,485.48383
-2088.4902,2510.68,1199.6226
-1434.2633,3433.354,1376.2396
-638.3948,2513.3975,1212.3866
-185.42946,1390.0813,796.92377
46.191944,811.03174,486.82632
341.50418,488.52527,310.13593
615.3012,240.35876,175.09125
1069.7405,-61.88795,-36.90518
1080.5612,13.967852,-17.422024
848.88855,187.67628,98.63562
455.0105,909.0501,525.9521
-143.66783,3139.445,1523.3829
-1096.4171,3952.1768,2263.802
-1794.942,2934.5535,2172.9993
-1534.599,1526.3406,1224.4225
-960.81213,419.32437,388.32703
-774.9816,25.26325,41.27881
-766.05414,-574.23004,-159.17642
-693.3141,-1273.3754,-489.03427
-761.2911,-1235.8569,-378.0342
-932.4466,-744.6978,-237.11588
-1210.0085,-127.62341,103.938736
-1911.1088,2101.0562,819.7351
-1740.9973,2592.267,1624.2308
-1023.053,2795.575,1669.8909
-240.89342,1978.984,1395.276
110.62345,1223.9246,988.37085
229.94398,738.4694,593.50446
522.53424,304.38947,183.24855
639.1079,201.5063,90.46174
931.3333,59.066944,112.16812
1004.1039,193.76257,189.45041
882.32916,332.15643,166.63855
212.54358,1386.6093,433.09595
-191.60521,3121.065,855.1339
-1475.7219,4414.9146,1318.4591
-2170.5322,3221.1267,1201.7375
-1805.3167,2005.6282,688.4446
-1478.652,859.5697,401.44235
-966.55176,78.645096,-64.14445
-943.5042,-504.10864,-172.89464
-906.2342,-1136.0919,-303.7947
-890.2156,-1271.2609,-338.99432
-990.16394,-1086.3105,-180.7196
-1116.216,-501.8259,85.23289
-1611.2759,1360.4792,532.5434
-1961.333,2410.1406,1465.9846
-1595.1655,3023.1113,1551.6493
-743.5798,2616.2505,1104.106
-20.735722,1683.1877,858.26495
241.52504,995.13916,495.8317
535.0227,534.0406,292.0234
743.8358,42.151226,88.707695
1014.4601,-106.01284,-86.5606
926.2822,105.83096,33.27672
846.5749,-4.024239,68.24206
174.14227,1306.2839,470.87814
-618.44727,3630.9316,1243.3934
-1586.3965,3958.2988,1423.9073
-1814.1326,2780.2327,1130.6188
-1408.8163,1492.9159,574.1805
-1072.2645,558.4198,304.18475
-882.1149,-43.145473,-15.298179
-800.41754,-764.2466,-297.33133
-695.0347,-1266.6727,-407.2274
-805.4806,-1133.514,-286.00717
-968.32074,-928.03735,-163.16313
-1186.2703,273.7321,218.89352
-1882.7435,1986.3535,1332.6099
-1996.4155,2665.771,2063.3203
-1131.188,2046.5449,1728.7596
-369.79428,1431.3732,1271.4756
137.75645,1304.9565,851.86725
399.53854,953.1625,485.50006
575.7647,396.95837,108.319305
917.0294,123.30517,-196.28264
1045.9045,226.66217,-95.06161
821.88116,187.83064,16.553415
497.26532,699.4544,248.84969
-119.277565,2381.0413,889.59045
-852.18604,3978.4841,1248.4039
-1844.9376,3882.5508,1208.6703
-1949.0345,2949.3083,960.1389
-1579.0299,1095.9581,408.54376
-1346.4188,136.64726,78.29429
-1074.1041,-888.4675,-215.3794
-825.46295,-1436.6758,-408.26666
-817.8685,-1213.5392,-65.720116
-840.8328,-839.13403,59.1274
-954.39606,-531.4115,-126.01428
-1378.3635,247.31537,167.00078
-2407.9858,1964.423,129.37463
-1949.6366,4652.853,-476.73062
-642.7037,3696.165,85.32088
-128.03754,1676.4814,-196.57465
178.16963,964.69904,-9.552668
422.84924,540.85254,38.06203
666.5297,248.57207,60.954792
1156.6268,114.49393,59.27499
1124.6558,230.76526,111.12561
957.2199,-313.07965,9.708831
258.4268,936.4258,532.66583
-680.89734,3723.9731,1301.4075
-1437.871,3697.2632,1429.1343
-1920.2502,2669.5493,1382.4681
-1865.7386,1711.5222,848.2409
-1386.5546,633.1167,377.00845
-1011.30524,-3.0075238,48.975883
-742.8744,-643.91986,-330.73352
-842.7902,-985.0255,-416.01456
-927.29626,-1342.4319,-508.37555
-971.16675,-1104.4232,-451.77966
-1066.6029,-513.10114,-139.00035
-2162.7737,1293.8192,1278.0654
-2094.3362,2828.6313,2114.8345
-1151.9222,2433.8457,1910.1796
-366.09555,1475.1985,1197.8071
108.298775,1123.6013,680.75006
222.44254,840.60187,744.19214
383.77448,310.14413,365.1891
536.5354,-56.749615,117.73835
614.4717,245.66876,225.87288
596.5316,-14.523576,298.01517
471.59778,134.53346,-173.06429
-334.01852,1768.1747,716.7138
-1217.4625,3798.1414,1538.1356
-2172.104,4091.878,1181.341
-1953.5378,2235.6155,764.58923
-1497.5382,1199.0277,381.18417
-1004.22864,223.51761,148.98427
-821.8681,-253.22673,-101.55621
-645.58417,-966.3572,-352.70535
-572.132,-1396.3186,-623.47156
-659.4917,-1250.7917,-368.17682
-913.9883,-839.67,-178.00847
-1272.9542,-72.17796,-90.19825
-2429.8208,1783.0236,950.38556
-2214.296,2847.0593,1543.5106
-1534.1075,2494.992,1443.1902
-589.06476,1338.4623,885.4542
-91.76654,1025.6277,681.4417
345.8206,646.4853,435.9095
642.7423,716.43823,333.09927
931.0317,577.89856,319.51288
847.4675,584.59985,292.65607
609.78564,413.73666,270.729
128.40701,966.44073,312.45206
-552.9276,2067.8157,1066.6606
-1850.5935,3155.4436,1855.1093
-2390.1587,2566.2266,1474.0099
-1737.0785,1524.7572,900.8455
-1261.5082,954.79193,591.12744
-932.58276,289.82968,188.97572
-892.1569,-485.6096,-185.88188
-776.9281,-1413.3397,-583.79736
-846.63995,-1370.4794,-447.87164
-955.1861,-1163.0072,-185.27328
-915.3295,-385.5482,-11.855142
-1376.1033,1074.3516,633.33453
-1786.9794,2086.0952,1136.2844
-1552.9691,3212.6938,1325.376
-804.60974,2353.5125,1250.4463
-307.66092,1342.1985,807.5088
-7.4271116,710.9776,472.97504
326.99768,424.21494,326.53546
632.6229,216.40108,243.13495
883.12476,96.116875,54.442673
782.4519,150.49863,16.201756
581.32983,354.95978,117.22009
-48.051895,1342.9541,713.48334
-963.8457,2948.3962,1412.5122
-1958.2958,3079.5427,1559.938
-1831.2999,2088.063,1276.5305
-1547.6185,1367.3258,873.716
-1208.336,571.38885,447.92303
-951.4963,-172.27922,-25.25218
-671.65936,-847.19086,-361.03632
-597.3295,-1223.3124,-459.41696
-719.3505,-1168.8422,-309.02847
-852.5637,-833.14276,-186.5922
-1271.2039,589.78107,547.0006
-1801.8513,1635.209,1100.236
-1685.322,2358.7751,1472.9657
-1092.2711,2043.9391,1427.0009
-324.8776,1219.455,960.093
-15.480462,893.32227,733.33545
313.24088,676.7858,544.86847
686.79474,325.1879,332.94412
988.7997,189.45067,130.6311
864.198,302.73166,232.93794
656.91223,251.05957,213.40462
237.88388,909.45026,519.31494
-368.0607,2393.7317,1211.2485
-1141.5328,3174.9146,1617.2096
-1686.9216,2583.9644,1454.6145
-1495.6781,1620.3121,950.2809
-1148.2626,757.3938,454.37903
-930.0139,32.891586,23.200794
-740.13367,-487.9827,-131.96332
-703.36127,-715.0996,-166.8552
-725.88916,-856.74335,-234.19147
-844.8046,-705.59937,-186.05331
-846.7968,-458.16742,-82.124825
-1353.3268,577.6115,648.53
-1938.0752,1758.2886,1491.8054
-1624.1207,2557.3516,1756.6924
-830.59503,1857.4939,1459.949
-286.1985,1154.5255,1018.4564
113.700066,573.1871,619.9183
493.29877,366.03745,279.64172
781.5813,141.25603,68.66099
991.3853,97.33911,-42.396587
798.22723,354.53287,171.48938
558.01086,628.45624,272.68106
-46.671894,1929.0364,834.30914
-323.31564,2727.4841,931.916
-1090.024,3490.1653,1107.3645
-1668.0847,2550.5432,989.5507
-1297.9211,1164.7705,545.38257
-984.8874,457.0001,165.14854
-638.1956,-290.9315,-166.55885
-681.6726,-752.69086,-172.85583
-571.55115,-1062.6333,-207.85931
-838.35925,-906.14417,-112.13248
-952.2609,-714.8038,115.38444
-1239.1201,614.8427,205.97925
-1611.6705,2155.5798,481.0896
-1519.2072,2769.1384,991.1973
-997.25055,2787.0205,662.39343
-373.11282,1796.386,717.0552
-49.99098,1103.9408,552.7297
427.12186,586.9386,405.49503
985.8842,319.50787,331.9938
1267.5712,101.82515,282.791
1038.2783,241.42276,160.89769
710.977,337.5482,92.426704
313.82224,686.2402,-39.891907
-527.02747,3010.6382,281.8966
-1516.3005,3995.841,512.15735
-1715.5969,2816.1406,585.2623
-1452.5233,1857.705,321.30225
-1165.4575,775.51385,199.64752
-880.13367,209.80994,131.8359
-697.901,-634.16095,13.742817
-577.0065,-1160.5846,-60.478836
-653.5289,-1105.1085,179.89491
-802.5346,-849.1362,302.63333
-951.3044,-481.533,239.48386
-1477.5204,738.61176,476.27057
-2140.3625,2119.2896,1343.7976
-1927.3351,2979.8562,1429.1964
-890.0182,1768.7335,953.5369
-372.431,1060.986,722.05
-146.40993,834.26624,482.67145
348.63016,951.5248,178.58401
938.6053,691.9605,-40.458405
1529.4233,229.81036,-279.73846
1380.4434,357.22632,-262.48944
955.6171,379.53235,-194.10542
443.62964,974.6195,71.87951
-531.7607,3108.792,640.69653
-1471.6866,4008.7783,1102.1611
-1826.093,3042.556,973.12335
-1374.9884,1694.9786,486.10617
-1156.1136,896.99365,253.27826
-980.7722,314.11224,73.16724
-1025.358,-268.78915,37.943142
-1030.4198,-885.0637,-112.67471
-1192.7529,-1260.5648,-135.92445
-1163.6936,-1127.9371,19.441305
-796.62836,-764.99567,119.75758
-1331.6998,242.96404,422.9187
-2254.1409,2488.9167,1433.4503
-1792.4634,3289.8083,1865.3274
-865.3772,2522.1252,1191.2505
-271.2978,1773.8761,923.50714
-181.60507,1163.913,582.7486
295.14935,710.3718,271.82486
683.9404,337.04,223.29689
1217.6417,80.19998,202.64072
1106.2732,151.85733,139.07921
1011.2027,267.29443,66.124344
585.2997,593.2219,48.089237
-13.732729,2723.8884,398.37433
-1781.5835,4812.111,1384.0496
-2362.0718,3496.2454,1046.3608
-1918.3577,2010.6381,516.13214
-1514.6306,829.7633,257.3176
-1233.4589,93.90338,-62.48431
-901.8545,-833.79816,-322.3277
-661.8397,-1178.7074,-448.1849
-724.1895,-1203.0266,-248.573
-825.8543,-960.7356,-96.52342
-844.7244,-540.0093,-9.047195
-1546.9293,459.49017,283.17905
-2594.694,2822.4128,1166.5411
-1770.7067,3828.748,1434.9565
-543.1506,1959.9203,972.89886
-180.05809,1617.6633,862.4407
-83.93348,954.90405,800.8921
371.31223,373.57385,293.01102
818.508,-31.44528,90.35495
938.3399,49.564293,226.00917
916.6657,-238.55882,46.16404
507.2629,513.1151,72.6795
127.91845,812.7269,525.94037
-249.48541,3028.144,911.53687
-1125.2949,4261.12,1025.574
-1522.4547,3406.6348,838.0133
-1412.417,2207.5076,534.66956
-1146.5511,1000.17,177.29045
-992.81104,73.05335,-107.280266
-810.4069,-849.59235,-378.61392
-782.06525,-1083.0183,-520.66095
-927.172,-1032.3087,-320.49155
-1134.1272,-877.6563,-239.59479
-1336.7206,240.10619,100.94443
-1310.5867,1686.8429,1103.4663
-969.48254,2023.7311,1609.5604
-862.0278,2329.3562,1785.2635
-666.5327,1688.7896,1589.9486
-360.26587,1006.61505,1113.2325
-103.279236,421.52786,763.3438
318.44876,126.34113,394.53735
695.83563,-57.499657,214.95065
851.4194,-24.880129,142.92574
683.08887,-54.303604,121.59133
634.81146,5.867797,31.622776
174.43324,896.1156,549.0376
-447.7757,2819.9558,1450.3615
-1500.3478,3953.5798,2072.2185
-1951.8516,2666.5452,1904.0188
-1427.2638,1397.597,1126.4377
-894.12756,516.6278,455.4142
-659.985,-116.46178,145.24089
-652.286,-822.72437,-61.18912
-545.5747,-1299.5713,-498.3997
-728.07745,-1247.5844,-347.80447
-786.6954,-1020.7633,-61.371986
-1100.4479,-180.39363,187.48422
-1958.4949,1903.7673,989.47845
-2064.2349,2695.8013,2100.7656
-1126.5941,2720.5608,1770.0156
-439.27792,1505.8848,1366.552
12.540355,1014.2719,945.6569
247.65277,533.563,656.92755
526.06104,227.63663,282.57617
764.6479,-81.93724,179.16055
868.05164,29.15766,103.6707
652.4157,-47.743584,134.31079
621.9101,105.41717,59.52144
331.15945,965.3454,381.19525
-444.9662,3967.8262,1147.0748
-1785.8375,4434.3345,1407.3772
-1470.7396,2369.6028,813.4952
-913.34503,1298.0605,506.81323
-816.7163,431.46005,350.38345
-763.0374,-383.34622,109.627945
-547.37897,-1123.2649,-332.5203
-527.11957,-1271.1869,-282.255
-726.93774,-842.3209,-93.9549
-968.8317,-507.31403,-18.699133
-1289.2571,110.36593,73.22655
-2508.2068,2082.412,791.5222
-2218.0066,3344.1936,1269.8683
-1028.4786,2667.8943,1034.3882
-181.37859,1342.1697,877.5202
106.2302,782.8045,749.0024
451.62234,511.0297,517.1614
787.7278,231.3885,225.86024
1118.9154,258.79755,240.78226
989.72864,247.7965,204.10555
728.55194,379.7454,126.321
235.86737,1140.4479,170.25195
-678.6015,3354.5774,712.59045
-2791.7942,4739.7524,1161.4789
-2587.4712,3127.1587,906.5778
-1595.7633,1710.489,340.33978
-1198.8563,123.59935,-45.820675
-779.85175,-972.38696,-330.20493
-723.0847,-1530.8029,-635.06415
-708.9114,-1271.9862,-271.15305
-727.6869,-862.359,281.74554
-683.61017,-485.82324,291.66608
-863.69916,-221.63127,123.590195
-1849.2358,1925.1062,987.60657
-1953.5835,2979.7566,1668.6453
-1135.7727,2267.8801,1341.5842
-589.7092,1235.9847,1098.686
-116.50463,855.54767,893.7136
153.43517,481.14532,653.0676
559.3422,170.62917,317.2796
868.4688,-48.12987,175.00034
1048.1196,1.2712038,61.782917
857.2373,103.267265,39.104134
753.7206,26.888594,-1.7688525
344.34457,420.03967,-94.794334
-852.6625,3671.8877,1010.0881
-2288.0908,4743.0586,1524.2407
-2277.5776,3065.744,787.86993
-1623.4216,1450.3525,450.43546
-1160.2474,533.55566,220.79008
-797.8683,-385.45676,-194.73572
-601.27277,-881.5824,-432.53552
-482.24246,-1247.9537,-501.04025
-630.94336,-872.56,-224.7865
-1009.6771,-583.2192,-187.42175
-1259.9888,104.00581,198.47905
-2096.77,1627.989,801.81415
-1848.7751,2544.1924,1084.206
-1155.5138,2444.3796,1173.3268
-541.49347,1688.133,953.2349
-255.01572,1293.5344,792.1436
79.77419,869.50323,523.0816
557.4479,549.39276,297.512
1083.0437,328.63754,159.16147
1044.1487,193.81566,20.850035
941.76556,196.14311,-145.18095
546.87103,760.2039,117.088524
-77.12539,2722.1997,793.77057
-1222.4951,3755.5278,1099.9863
-2235.2683,2869.1343,1129.142
-1743.2948,1863.9537,682.10364
-1291.8865,1069.0851,218.20798
-984.68756,203.57861,60.02673
-756.18884,-465.88184,-187.48195
-500.91577,-657.57196,-280.84866
-495.61487,-787.6482,-229.85135
-755.90454,-577.6196,-163.08319
-930.38794,-625.584,-111.789665
-1267.7649,112.09524,109.82917
-1832.3334,1138.6117,631.4237
-2047.3164,1673.2861,1368.0477
-1927.0994,2077.4478,1501.9899
-1216.287,1486.9817,1222.1675
-661.0978,971.4362,995.00226
-127.06805,482.0158,793.79645
270.55084,183.04585,638.8007
828.75714,-40.920677,559.2989
933.0456,36.69981,421.0001
671.4582,34.65048,315.20245
390.27847,356.82095,395.45984
-484.3219,2214.2544,1052.1526
-1444.3081,3064.2236,1252.4427
-2655.1116,2668.8062,1063.8237
-2451.6792,2011.792,710.728
-1552.4026,1160.0107,330.36755
-1155.7952,485.01654,193.9325
-845.20074,-174.77795,-167.38947
-699.7364,-956.72614,-389.25635
-482.1952,-1337.9022,-563.0389
-700.62006,-946.9991,-234.52504
-884.10706,-896.1673,-207.15851
-1264.0083,-174.98785,-111.84388
-2104.7727,1115.5083,663.78424
-2426.2214,2510.2473,1291.9482
-1792.883,3016.8098,1563.7214
-817.5998,1630.1764,1321.5559
-212.99727,950.5909,894.0591
134.71411,614.04816,526.5631
586.35016,572.8842,260.16364
839.1809,282.34372,152.42764
911.3391,149.85344,-20.567715
702.46893,232.84584,8.989397
510.4082,298.1238,80.689896
-81.219604,1540.962,488.35147
-974.6368,3556.5574,1041.4688
-2297.9792,3496.2324,1449.8705
-2180.667,2410.4456,1164.1903
-1547.8195,1106.2714,755.75745
-1107.8046,343.29626,339.39517
-823.8861,-378.52405,-23.664576
-635.6332,-800.9143,-298.25037
-533.67615,-1059.4713,-409.7508
-604.7633,-970.3236,-328.35883
-793.3186,-799.18774,-214.06197
-922.46,-361.99878,0.6362431
-1855.505,543.84894,877.76355
-2599.1636,2297.0513,2166.9817
-1801.2062,2698.1377,2297.4963
-797.3043,1402.1173,1641.3732
-350.2845,869.0669,1073.678
-77.97738,820.1739,554.38916
292.30988,503.41437,200.34425
555.4264,284.4806,-59.006924
939.8494,-31.555061,-81.36793
905.7304,3.2132351,8.697589
741.0999,-194.54701,502.65054
343.87045,619.8138,742.2058
-399.74152,2091.528,2004.3031
-1125.8031,2314.843,2492.5608
-1214.6029,2240.1763,1787.9274
-824.6809,1324.0216,1199.8348
-527.7163,695.3404,544.85834
-343.5724,281.21646,110.349754
-420.91736,-367.57712,-214.46852
-463.82874,-1013.65466,-498.58444
-525.52484,-1000.0149,-527.283
-863.01636,-785.80743,-149.3372
-954.4316,-605.78107,-13.775777
-1834.942,467.81583,497.05246
-2931.5525,2014.3761,1721.4213
-2317.473,2699.241,2145.7295
-1363.3716,1505.2434,1646.7407
-603.37915,892.8358,1304.8224
-99.47682,586.1171,867.88293
321.33746,585.76166,395.00452
612.0362,398.9722,149.01793
934.6985,343.54956,-147.40262
862.0206,112.316345,-331.28485
776.03625,348.89514,-398.58618
342.56686,237.17844,-150.56143
-998.31104,4038.3706,176.86958
-1559.8229,5324.8286,1267.8193
-1535.5006,3002.6213,937.3587
-1206.2482,1002.4855,250.703
-630.7201,192.30367,497.98026
-492.9744,98.24453,168.95999
-455.26,-508.41656,55.036343
-514.13226,-954.83673,-365.0891
-696.02124,-1020.8675,-292.41165
-1042.8579,-604.18555,-71.160866
-1056.1648,-459.19885,73.54681
-1651.4038,833.8695,271.9994
-2277.391,2869.7432,954.9779
-1579.2062,3597.361,1441.114
-687.2006,2246.2078,1209.2074
-123.22674,1525.0581,1186.8507
139.4077,693.97723,843.2354
506.86075,262.1046,403.49893
883.2665,75.88047,179.8885
1090.4116,158.81454,140.72289
878.8394,147.60669,67.04583
594.61127,74.02787,6.869015
315.68884,-333.42072,-501.80597
-1140.6554,3733.913,68.83768
-2403.1084,4160.639,620.65704
-1501.632,3010.5356,153.62306
-1471.0562,1940.8982,681.11414
-1223.4481,1030.7068,558.0295
-961.8496,-67.160736,175.6656
-826.6591,-878.33344,-122.43751
-797.2667,-1250.6973,-239.55519
-589.6869,-1325.6993,-192.7491
-699.7972,-925.77075,36.438053
-675.51697,-545.6123,97.42869
-1148.8595,653.0506,347.1984
-2312.548,3200.1448,724.9692
-1796.4102,4124.7974,978.80646
-796.5496,2301.0708,681.859
-285.31906,1474.0319,369.37387
97.31108,676.6915,233.17435
459.9785,316.9933,32.315384
782.4725,-89.561554,-24.973505
899.5352,-122.24854,-44.588512
783.96765,-219.67699,6.0300097
526.62744,102.00299,49.288258
304.26944,533.3542,195.6629
-912.05707,3416.8896,703.31866
-1750.5208,4403.0054,889.8424
-1520.7871,3129.2705,853.9965
-1312.6852,1851.3785,634.4667
-1029.936,697.664,396.0769
-901.6517,10.546168,184.29608
-769.5997,-1142.0403,-250.95203
-816.4839,-1491.6855,-326.93246
-777.9111,-1352.7888,27.11585
-839.6621,-725.2922,40.918514
-897.2861,-107.965775,306.4911
-1807.8969,2141.215,903.8381
-1661.6874,3532.183,1063.433
-710.58527,2745.6355,890.40533
-323.90833,1835.3351,501.71646
-92.45568,1010.261,337.39215
63.980633,612.9193,189.43536
323.06494,396.45673,-53.084354
417.6159,179.11679,-116.59387
631.2013,106.86089,-137.43707
713.0946,388.0289,13.717167
713.13257,380.1203,218.64458
365.2178,736.2009,194.12682
35.472256,1788.8551,271.43268
-276.26703,3039.2715,729.13776
-1153.0682,3513.026,1041.7054
-1191.7198,2252.3586,733.0624
-961.15515,1282.9497,633.7069
-896.89325,651.9863,460.85815
-773.23737,-157.98753,152.63487
-778.7276,-764.8799,-164.41962
-625.21655,-1185.8439,-304.45178
-794.99774,-1032.7764,-137.56882
-852.3484,-778.3093,135.22453
-1178.3036,-106.46066,132.14435
-2225.3843,2114.267,1064.0206
-2006.6798,3347.2498,1944.8245
-1005.6826,2472.2292,1230.0717
-216.24979,1302.9906,824.3907
50.851444,1117.7294,524.2533
421.00607,806.64465,402.1241
734.65015,322.10406,202.28558
1192.3553,-178.31941,-40.995167
981.9214,105.16808,-58.237003
630.38226,452.06625,213.03334
454.822,848.24634,280.33762
-34.20462,2490.0142,518.1406
-894.1282,3959.138,1096.5828
-1660.1431,3405.904,1214.0736
-1583.5789,1975.6285,716.6021
-1194.4844,733.9952,361.11407
-887.33923,-127.638054,-26.636808
-707.3386,-810.8455,-229.03452
-626.919,-1035.1473,-321.04587
-660.723,-929.1126,-114.6568
-823.2362,-909.55884,-57.58524
-904.0598,-422.35583,103.22651
-1620.088,1184.4092,288.3471
-1909.9299,2736.6033,572.6045
-1291.8248,3758.902,658.9329
-538.50055,2638.2725,718.4678
-116.347725,1398.2721,539.59656
51.623287,665.4942,362.885
284.11575,309.83017,290.05472
570.6903,103.48375,210.51387
910.06036,-77.35551,108.02476
850.1898,-68.85413,74.548645
735.4557,47.43173,38.820206
145.97089,1937.7086,144.16792
-607.45056,3831.0051,402.53247
-1713.1909,3431.9827,669.0547
-1323.779,2044.0659,369.84854
-1093.0035,1175.4762,320.35464
-794.6722,498.59134,240.80116
-547.5258,-292.11456,-44.507114
-494.30804,-1089.8564,-209.68422
-500.33206,-1053.5886,-160.05605
-744.68134,-846.43896,29.193827
-1035.0536,-618.05206,73.211205
-1379.6156,28.953915,-21.585499
-2749.4697,2120.5564,518.4213
-2826.0698,2826.689,1736.1781
-1323.866,2164.0981,954.80774
-424.87766,1425.0496,764.9634
-28.080198,936.54346,635.18555
293.7241,724.2662,345.86093
666.8534,386.93817,207.86902
1098.2246,151.48691,49.5762
1047.2279,180.0812,89.87658
742.0165,276.336,90.24521
332.57794,828.37305,217.27428
-316.56274,2411.331,288.9073
-1361.1516,3983.6355,589.82355
-1918.0023,3003.3384,788.70544
-1711.9294,1887.175,450.28754
-1315.0282,916.9241,250.47363
-971.82574,259.42578,21.443848
-813.6296,-301.2063,-87.24714
-640.5637,-783.2947,-262.91852
-633.2921,-1038.0002,-260.03198
-874.3261,-765.3115,-137.13388
-859.0732,-810.202,15.486982
-1346.5674,700.8186,254.24248
-1933.0328,2477.6592,1156.8735
-1471.5088,2939.761,1593.1284
-862.29913,2155.645,1271.6516
-209.85481,1114.9078,993.5409
-22.622221,815.3791,615.4739
369.3905,434.1968,452.6936
624.4861,271.6133,268.07767
897.24115,-52.745167,117.345215
737.47095,36.56284,34.673275
629.419,136.32275,122.81707
316.03717,780.4208,274.83264
-195.61174,2527.1504,778.59143
-898.9671,3650.961,1215.062
-1418.7438,3181.0022,1273.4429
-1267.1399,2121.5554,916.95013
-919.9682,901.9844,535.97565
-659.86847,41.406612,94.24044
-606.33435,-738.6641,-151.54227
-566.50336,-985.34656,-162.01941
-516.82166,-994.42584,-88.17605
-826.67505,-704.6679,-72.38141
-1043.623,-482.68176,-48.347855
-1829.3252,1374.5308,645.218
-2198.3525,2486.0293,1175.89
-1368.3136,2580.7104,1189.96
-660.1951,1877.8419,983.1108
-116.56023,1358.3851,674.3004
178.05605,1149.0752,485.09412
402.92328,775.4032,446.64954
649.3436,219.01949,186.98938
885.88007,10.539966,41.73616
826.0797,66.256454,40.61849
734.50275,112.57883,54.136017
536.448,598.9718,-12.906698
131.88113,3027.674,282.6869
-1130.4847,4467.3047,630.1499
-1860.3463,3406.4792,610.5102
-1509.06,1833.7783,230.64392
-1193.3475,902.687,197.05498
-876.27344,212.875,120.581245
-715.06146,-492.07532,-100.12181
-532.25037,-1004.8942,-220.34541
-591.43616,-878.08813,-33.37072
-717.39514,-760.6214,-45.05493
-808.4605,-460.49707,79.751755
-1410.5963,966.8712,290.49783
-1787.9597,2501.6328,563.21454
-1423.5045,3081.5422,1003.5514
-778.3475,2531.0713,805.17664
-233.6802,1583.2693,751.84094
26.04292,1087.5992,491.6297
392.82986,420.20575,249.1012
634.8584,186.61037,46.041866
996.4568,-132.95084,-13.247483
902.7558,62.64017,-55.836067
908.44305,-111.020515,-205.25566
375.6667,1483.4852,90.98337
-385.32758,2871.7178,829.3871
-1120.201,3819.083,669.4073
-1436.6145,2886.401,678.27637
-1243.9801,1658.4304,512.2907
-900.4933,833.3969,249.17223
-663.3383,245.33266,99.284256
-503.21713,-439.97635,31.620596
-430.58633,-874.40045,-187.76918
-422.77597,-925.766,-186.96455
-746.6826,-700.73975,-52.266182
-900.1447,-376.30368,147.88988
-1615.0864,1292.7942,455.9398
-1957.5027,2024.8278,953.5932
-1652.5637,2478.7966,1126.5496
-967.89636,2167.8264,816.19775
-243.56792,1417.8383,593.7042
26.523363,1014.7594,393.9526
396.65833,721.32153,170.2862
771.20776,202.46275,-52.213715
991.7175,353.1717,-41.111927
814.70386,631.4104,320.4242
581.82434,420.88522,436.0973
289.41623,1156.6583,294.86865
-148.83232,2575.7869,292.98553
-1206.0519,3714.617,815.318
-1628.8901,2892.1946,717.7303
-1346.2867,1741.9473,345.32523
-981.2445,810.7841,228.88889
-677.41437,280.8795,63.912186
-617.06116,-318.77017,-87.74962
-584.7434,-768.20624,-303.54932
-708.4074,-789.0744,-287.08438
-954.5114,-590.92883,-151.15071
-1052.1108,105.384445,188.44093
-1203.045,1555.4672,690.5705
-1118.3689,2030.0006,1223.4054
-851.954,2527.3076,1353.6787
-443.03915,1809.9037,1181.3293
-11.988393,1228.7109,996.78107
292.53036,598.7897,598.9659
567.16595,266.54553,253.89166
814.3471,30.539179,270.74902
891.0376,75.504295,211.59656
687.56067,208.22849,235.77698
543.6591,185.8461,156.41676
215.50008,1244.2562,433.51462
-443.46936,3479.2725,791.626
-1297.113,3863.8318,857.60016
-1279.3969,2319.908,732.902
-990.4355,1216.441,395.5602
-813.34985,482.70508,240.47183
-721.4414,-22.951435,80.4641
-642.7657,-591.1029,-79.15548
-554.86005,-862.1314,-199.74928
-684.3953,-652.5932,-82.79753
-706.6414,-746.75183,-44.98819
-913.79425,376.92123,349.83636
-1415.3912,1834.6307,1001.75183
-1387.7404,2574.0225,1430.9197
-946.94507,2252.05,1249.378
-377.63513,1360.5197,926.4702
-174.05655,997.822,787.4302
166.57036,575.9433,551.86053
344.61398,272.34036,355.83392
640.4451,-174.76355,45.7113
684.7627,-105.072586,-56.999424
768.2202,1.899752,26.367561
442.215,645.4828,576.6603
-208.00194,1881.5297,1437.313
-1356.7706,3441.747,1748.5209
-1880.1389,2364.7034,1526.0543
-1470.925,1201.3302,1001.33466
-1088.1022,584.0411,522.54346
-574.9693,42.185513,84.75785
-405.61932,-269.05447,17.895386
-297.08173,-443.39233,-261.7724
-458.0834,-619.2119,-343.32114
-787.7648,-636.7471,-407.64218
-814.8872,-223.09294,-137.48476
-1124.6003,1319.1987,903.8083
-1329.4297,1958.4021,1755.9924
-1180.8938,1892.3597,1666.6896
-891.664,1615.548,1483.3436
-512.9361,648.04346,1146.4689
-133.6339,554.5331,668.3884
248.97083,234.23717,313.3199
492.97293,133.21332,110.73125
758.7716,-92.62509,-56.30179
684.574,266.52863,73.61386
609.38403,720.29584,457.54013
265.57935,1493.1018,790.1253
-78.17894,2580.3767,822.773
-524.63824,2603.6296,1039.2449
-950.0136,2691.293,996.86597
-935.599,2029.4376,597.95044
-764.50793,874.7982,289.4633
-610.1775,-40.907272,-20.346363
-650.19495,-507.1399,-183.60898
-650.07227,-835.9747,-255.65863
-788.22614,-686.0716,-214.42877
-859.5888,-709.31085,-165.88588
-954.1195,487.56677,343.39902
-1331.8983,1985.3467,1110.5071
-1059.6199,2592.271,1327.146
-610.3065,2748.2578,1386.7014
-82.71413,1521.749,1025.3108
102.91131,1106.3918,637.4712
364.89926,484.576,403.7044
421.19235,250.97392,232.6942
576.11487,-249.88559,-19.436344
641.7993,-56.33212,-139.42009
775.20337,-170.05904,-136.62077
531.688,716.8017,262.60007
92.99356,2401.9795,887.4213
-407.5533,3393.9285,990.3652
-1097.7634,3053.111,1184.5267
-1226.9918,1900.5306,908.303
-1069.1743,1070.6887,454.4664
-761.2072,375.37424,241.11179
-611.91064,-354.39917,7.661369
-510.20786,-629.80646,-161.4413
-542.94714,-830.4299,-223.63945
-765.5182,-625.3827,-152.34433
-1081.972,-533.33984,-165.48485
-1545.5726,941.9714,602.0483
-1789.7229,1993.2688,1374.5
-1303.8177,2624.0896,1590.4558
-621.9375,2018.6853,1471.2898
-105.08276,1215.3401,925.8348
248.97333,821.18054,518.3507
540.4079,554.1629,217.8675
820.0739,261.59525,44.917805
1039.6456,84.77535,-119.62391
817.5912,81.39006,-13.427122
599.68805,320.64124,92.38557
-40.126366,1560.9974,712.19977
-806.0044,3218.3953,1145.7198
-1594.6727,3450.7527,1221.2799
-1506.0059,2595.849,717.6602
-1022.29614,1935.1317,301.19955
-756.76965,729.9831,72.765015
-655.9706,-206.69945,-96.31275
-658.20386,-1009.9367,-244.49294
-627.0912,-1269.9941,-275.66937
-794.7871,-899.99603,-115.51737
-880.1346,-611.293,-47.947063
-1459.3362,852.09314,368.34787
-1651.5978,2323.6135,280.72824
-1259.6239,3156.9072,611.81964
-485.6832,2848.8538,629.765
170.80823,1877.15,502.29794
140.92447,1425.4965,523.4096
394.6238,529.8302,263.19595
474.66025,50.952354,140.8984
812.9238,-305.15222,36.04182
743.3913,38.786507,46.60758
673.3561,192.38162,65.05757
361.6108,1053.8276,166.35695
76.97362,2414.8062,89.62107
-617.4676,3316.4958,57.07455
-1066.6434,2598.3208,380.5333
-696.9211,1653.4225,375.15466
-691.0519,1075.7688,258.63153
-533.21985,342.73584,145.62697
-471.35794,-194.90648,107.06379
-442.5117,-549.0801,79.0955
-586.9905,-669.2277,22.07667
-901.1088,-740.33685,-33.318356
-1278.663,-239.16286,167.79683
-1863.9473,1028.3906,36.35747
-1816.669,1530.0753,452.79193
-1492.4773,2645.4297,485.87964
-867.6402,2605.589,259.05667
-365.1207,1827.106,186.09734
93.780266,1305.3147,-27.420528
683.5936,1011.03345,34.568077
1388.4708,923.3185,218.92804
1478.2039,659.0745,266.21057
1041.5444,788.9926,158.2951
608.3078,838.58514,-247.62769
19.04339,2022.2958,-375.19672
-1113.1553,4129.2456,-308.87097
-1871.7396,4131.795,13.192672
-1993.3451,2685.1157,-3.5902445
-1790.7288,1208.8273,19.064466
-1415.187,287.12653,-107.85608
-1243.1366,-384.62268,-187.39116
-859.0839,-1329.7446,-412.26996
-690.8057,-1216.8256,-285.3068
-816.77014,-911.4796,99.112686
-647.08655,-494.3295,402.4409
-943.9154,820.1027,501.70032
-1554.74,2650.5376,1210.4221
-1600.3054,3869.4966,1640.2745
-463.18185,2094.869,1019.49365
49.143726,1031.0834,750.19244
358.43292,625.5613,509.7254
647.04376,323.3985,299.14755
837.3483,-98.05733,96.39389
792.0253,-98.34404,116.066574
463.44965,490.49634,144.99002
474.46222,552.3,154.13647
243.60042,1069.1207,11.7578125
-76.85316,2529.816,110.1468
-978.83905,3801.1206,413.43646
-1396.9381,2935.9634,558.1241
-1026.9421,1670.4554,355.55344
-996.5061,893.7704,232.39835
-753.83044,23.495424,-0.14705883
-729.7089,-963.8317,61.219006
-502.4584,-1017.6472,5.966826
-587.35583,-1124.5865,71.854324
-793.563,-875.4278,53.863605
-733.23474,-384.95605,101.542404
-1603.4902,1062.0254,482.53073
-2235.6306,2542.6782,1415.2988
-1731.3717,2932.8472,1324.361
-671.12067,1909.7849,917.8906
-155.41872,1162.7583,627.1657
140.23944,733.31757,174.76901
568.43805,786.5861,128.07472
819.70435,359.74573,100.33007
876.862,236.16582,129.93657
742.1418,24.736832,122.33729
649.6873,431.2171,133.84465
-181.72865,2049.723,514.96405
-1479.4792,4555.918,648.9375
-2490.647,3843.4243,859.26166
-1655.6932,1589.4199,437.47443
-1129.8285,813.56116,224.95079
-950.1453,-63.25376,233.6068
-810.2575,-568.25214,31.505867
-657.6582,-1415.2925,-275.25772
-641.6289,-1295.6873,-52.36971
-819.0415,-845.6669,72.70447
-997.90796,-480.22794,73.12224
-1651.0597,1010.4141,357.45087
-2521.262,2980.346,1156.3993
-1921.5248,3279.3699,1460.1798
-795.83215,2167.6724,1010.73145
-159.06737,1166.9604,591.88947
89.22256,922.05585,232.76768
416.0973,584.64935,54.89289
535.3813,377.75873,18.711205
815.56,39.015217,-142.03554
793.4307,143.0746,-78.86774
819.2844,4.9850163,-130.97562
578.7869,625.4622,-18.217627
-34.553265,2412.1467,-20.014214
-1580.6584,5143.5376,408.4142
-1960.1996,3599.0376,954.5995
-1485.1407,1950.4938,561.4454
-1243.7373,966.5294,544.65106
-994.8331,299.61395,275.3779
-906.0024,-395.93176,-40.60407
-956.4262,-884.6456,-326.50238
-940.91547,-1142.9303,-440.6609
-996.44653,-821.5778,-141.49832
-740.3613,-641.80035,14.111116
-1093.1831,785.22437,595.1547
-1908.7711,2448.4688,1206.2646
-1522.5701,3402.0847,1444.1029
-638.045,2021.406,1190.988
-61.190575,1254.3269,778.28204
130.31938,826.45605,803.3732
454.33698,678.6658,602.4928
647.094,196.90471,450.29086
840.3111,-113.34084,259.45316
942.2163,-71.24966,177.1679
1063.7565,245.33109,179.358
405.00546,1305.5979,489.83716
-702.7277,3023.084,1156.6416
-2043.7034,3535.3008,1301.9712
-1902.8956,2110.525,876.4397
-1362.9819,1175.4254,572.6031
-1023.3315,484.88797,296.72186
-594.6041,328.63388,116.25833
-484.26392,-372.38406,-276.51733
-282.53674,-1220.4392,-625.82495
-483.5576,-935.92206,-427.55618
-571.00507,-627.00385,-60.55448
-1066.3086,-130.05095,315.4554
-2483.3416,1624.7322,1423.5869
-2201.0234,2331.3179,1839.3875
-1337.343,1716.8257,1726.0338
-694.47656,1085.8042,1208.1797
-123.725204,888.90906,888.0758
363.4723,728.7072,610.65784
851.218,225.5523,273.2118
953.6233,3.6994698,94.41437
917.1193,91.04945,47.74214
619.1745,93.786125,51.889153
475.00552,168.82118,223.77298
29.008207,1246.8933,702.324
-664.5503,3730.3254,1476.9807
-1476.3967,3917.3926,1725.689
-1741.1,2637.672,1182.5172
-1465.6033,1323.95,687.86816
-1087.971,267.64194,314.32632
-846.89136,-594.6844,-149.98701
-692.78296,-1273.1791,-308.01196
-590.5553,-1220.5522,-328.38278
-589.888,-1011.91046,-103.78903
-776.9565,-565.89844,38.935875
-1062.2198,365.66464,360.33987
-2108.099,2509.3232,1092.0203
-1809.2162,3137.6245,1386.579
-872.7578,2380.677,1065.3372
-392.51736,1430.5557,692.1868
-33.006924,967.7934,408.44876
320.87692,661.18945,225.1148
686.6423,284.97784,55.740147
891.59015,-60.40561,-29.619291
863.4628,119.95768,31.743692
761.12994,39.607388,76.89866
580.0446,350.59082,128.41563
89.52965,1829.4459,595.705
-992.2154,4437.1724,1050.4904
-2011.5217,3747.5977,1268.8862
-1793.882,2177.1128,710.197
-1349.9553,1005.0725,276.05832
-969.743,213.66809,78.519226
-669.9089,-396.87976,-107.27272
-523.0469,-910.6529,-286.32977
-529.52716,-1059.5052,-268.79138
-756.2491,-928.916,-200.57104
-921.7127,-740.5906,-141.22154
-1599.1824,311.59918,190.60864
-3071.0818,2406.6204,937.1701
-2347.8374,2664.2239,1502.458
-1212.026,1982.7318,1117.2029
-501.69827,1422.26,827.10754
123.73853,1233.8594,615.97565
490.96133,933.6282,491.33017
810.35626,373.1338,163.6952
1017.37274,284.46133,16.359135
909.47406,714.08405,118.16317
717.1396,648.72046,262.89148
343.19202,1060.9774,325.39493
-136.10161,1984.5366,582.63275
-1067.6942,3166.3506,923.62787
-2046.4965,3142.5415,1050.493
-2088.0913,2299.1838,708.4895
-1661.3563,1106.7954,273.37903
-1193.222,270.60568,-81.513885
-867.8003,-690.87585,-275.12115
-552.41003,-1090.5625,-488.47745
-583.6799,-1187.215,-294.78958
-695.7982,-902.8481,-45.300804
-1042.8558,-301.91867,325.98965
-1881.93,1173.5463,361.16333
-2107.9182,1637.8186,620.7001
-1850.26,1871.0615,2052.475
-885.6695,1942.1512,1327.2334
-281.41846,1565.5587,980.50287
9.993672,1088.698,758.4356
210.6014,518.40295,392.15112
449.6813,427.8801,233.9968
748.1833,105.00864,163.2157
914.07434,351.97937,110.066475
803.7051,380.56052,249.12077
257.3077,1331.2517,577.5478
-564.5414,2516.5852,802.84753
-2027.358,3594.297,1360.8179
-2623.1062,2836.6768,1093.8644
-1896.6781,1666.8754,608.54425
-1290.2373,535.3011,453.23663
-826.842,-106.99128,16.736404
-609.7661,-1008.8709,-305.60098
-489.71805,-1244.0039,-372.64444
-550.579,-1146.4307,-136.21153
-894.90845,-652.01447,-35.892464
-1160.4543,-540.7285,-44.102154
-2179.256,1261.7821,142.9598
-2541.6177,2368.8914,1254.1055
-1725.6577,2795.5583,1271.9257
-770.4113,2209.0496,845.6215
-13.084558,1369.1909,659.77185
308.05655,1125.9836,540.9607
677.9576,629.5749,442.03497
942.3407,239.73477,312.6167
968.2009,235.77304,225.4969
714.2566,336.91125,195.41171
452.33762,360.56448,-52.077164
-345.32224,2289.5718,280.53497
-1520.5017,3173.2092,1093.9937
-2465.553,3260.868,1151.7461
-2008.0895,2251.674,464.40744
-1450.3983,951.16565,321.46106
-889.6728,317.55045,159.96286
-546.72894,-608.3115,-283.75067
-429.7563,-1018.6917,-413.48917
-438.29318,-937.8065,-245.53041
-618.8311,-700.94476,-97.19557
-791.79504,-548.57587,-68.53266
-980.1701,157.14178,196.7888
-1627.7653,1427.9829,589.0173
-1780.2404,3162.959,1573.4952
-1226.3772,2618.7637,1458.3486
-501.74847,1171.0333,741.41986
-28.467209,571.73035,399.1487
308.18674,403.83243,240.79295
565.6293,400.2392,262.26
821.56024,66.86748,156.60358
807.3085,224.20554,67.438034
692.7577,-25.561132,-21.183437
438.74146,269.46085,132.2244
-256.47308,1731.1477,710.4718
-1349.8436,4031.466,1093.8748
-1920.6484,3158.411,1132.4447
-1421.9347,2002.5571,840.90533
-1063.3245,1229.8165,488.12558
-816.31494,327.34967,287.97726
-665.1632,-404.29428,-83.39855
-636.26215,-1067.4124,-289.92197
-697.0664,-1154.4514,-277.62695
-863.6529,-937.0652,-10.9829645
-953.64966,-665.79193,-17.358767
-1613.4337,942.40405,555.55896
-2086.4749,2109.3345,1211.1609
-1539.9553,2824.284,1450.2092
-817.362,2193.1802,1200.2511
-195.95117,1358.0309,902.93146
143.03719,858.6848,531.7496
560.91144,581.7958,406.51794
1017.8747,202.20229,214.68233
1071.0272,68.805916,131.26863
865.19916,158.75436,42.681705
599.30206,373.11652,86.77464
53.90567,1922.5808,436.3329
-896.3943,3324.7185,1047.7609
-2027.2638,3129.4224,1271.8739
-1371.2562,1930.284,779.3247
-949.014,1106.3524,431.34195
-687.34,508.49414,382.12683
-570.00305,-312.74966,-642.54395
-598.4209,-905.56665,48.46174
-444.81802,-838.35394,233.72037
-678.81335,-1110.9476,-364.63943
-942.82355,-788.6427,-21.95478
-1581.5089,702.8988,492.13553
-2359.04,2281.8977,1054.3091
-1743.6196,2811.7085,1274.8982
-916.6227,2202.2996,1211.5092
-281.46237,1425.6978,806.0475
63.541847,1115.2222,576.64526
735.6133,785.67584,378.7634
1027.0016,365.9762,318.17245
1250.2596,228.79803,221.507
1105.6259,368.72656,313.3633
1092.5142,1064.7325,859.0309
-662.9221,3414.2554,2673.5032
-1503.0404,4721.647,3116.5435
-1774.1315,2641.6357,2592.7542
-1697.2491,1177.9441,1330.414
-1065.6041,493.01852,163.9162
-1185.9603,212.30173,-42.55755
-979.55865,-208.4726,-374.79132
-880.57666,-273.49768,-631.2824
-880.5641,-371.45126,-817.6888
-1072.8038,-118.82455,-554.39954
-1123.9908,-247.62996,-124.856346
-1077.0697,611.05444,746.3663
-964.33496,1213.895,1341.2819
-1130.2794,1976.2006,1927.9316
-919.63666,2583.386,2568.8271
-632.5286,1816.8125,2242.6045
-122.448524,1108.172,1435.6428
177.84473,567.3296,1059.3784
613.9419,172.84888,598.71655
762.42114,418.74786,496.35165
843.5562,851.2816,519.22754
582.3376,754.2651,483.28668
290.18805,1542.0845,603.66113
-290.21613,2037.1007,883.67755
-1314.4261,2870.8462,1265.7463
-2364.9163,3019.5225,1565.3274
-2538.0547,2346.1091,1086.6283
-1714.3918,1020.8009,461.3967
-1338.0012,192.57446,154.1711
-893.4111,-761.1471,-310.46246
-634.84033,-1427.4755,-634.81433
-512.2124,-1361.9995,-473.42575
-754.00684,-899.17944,-186.8782
-863.71185,-619.92114,-227.30226
-1658.6893,832.84424,271.6425
-2203.659,2650.684,1036.006
-1561.8727,3028.2344,1208.6348
-864.83984,2251.9219,1064.1595
-384.20303,1405.9438,833.5494
-135.40834,1050.3403,732.97034
209.5971,424.24973,431.25278
557.76013,154.07019,192.55171
874.08887,29.32558,224.34741
991.451,27.940834,153.66446
828.7253,211.54709,240.15253
614.7198,653.8717,264.0764
-162.60168,2486.7812,653.35205
-1112.017,3867.889,952.6371
-2054.674,3343.5874,1012.2411
-1897.266,2292.9614,635.45276
-1330.1866,1174.2474,329.26337
-923.8661,192.88193,79.90223
-607.2777,-934.9244,-233.6232
-375.95435,-1567.5018,-384.13705
-398.57138,-1418.0739,-144.31003
-778.7564,-866.4982,-4.8478966
-1094.78,-421.30875,-51.054565
-1770.1981,153.58502,9.988853
-2950.3809,1389.8026,679.4673
-2830.4983,2023.3358,1259.7523
-1984.4431,1873.8842,863.61676
-1081.5645,1498.3713,785.8067
-594.8822,1012.5135,589.75586
-64.00496,764.07007,468.29916
548.8253,734.9397,314.7848
1133.7267,841.65875,349.95215
1069.7949,837.1072,191.0274
706.9714,921.8343,138.20366
122.07436,1294.7002,15.223879
-570.95654,2176.066,85.14346
-2170.1465,2952.0542,396.3495
-3026.9258,2627.8186,548.8372
-2540.3628,2004.6838,418.05283
-1832.4911,1093.1068,253.31787
-1283.5334,418.32855,80.756805
-903.28796,-558.9331,-5.5105486
-706.1963,-1618.3586,-310.55835
-626.153,-1813.0392,-255.48033
-898.86646,-1085.0397,124.117
-1008.6608,-711.6799,162.357
-1817.0748,788.9715,229.00354
-2442.4211,2659.4617,905.0593
-1823.2677,3541.2087,1170.0367
-844.745,2295.2793,779.63904
-246.49896,1418.5548,396.2724
226.44429,971.63824,159.06116
778.41943,730.7688,62.68313
1128.9465,220.22395,-87.18388
1209.1083,131.02411,-85.55003
830.88324,288.3324,122.86781
647.7031,55.452805,-116.50564
-261.3395,1804.4733,139.70049
-1405.4535,3971.9788,848.4717
-2115.4556,4231.2944,887.05524
-2175.1113,2940.6196,1047.2275
-1771.7814,1360.8479,555.6332
-1068.4672,173.36046,273.48883
-718.5632,-657.48517,-174.53355
-636.54956,-1302.3439,-360.9437
-751.97894,-1371.5834,-367.32303
-818.8862,-945.70123,-43.483368
-1046.6744,-677.16516,-71.59299
-1287.0332,17.048649,72.01463
-2089.9956,1601.302,653.7127
-2085.063,2027.4019,1122.2007
-1645.0491,2354.2634,1101.8572
-1071.8613,2082.7163,1049.9733
-410.1389,1340.332,772.7834
-16.939594,752.87164,469.71323
469.78842,561.76544,297.43643
825.41705,735.45776,424.07767
1068.9066,666.7609,253.00467
782.3265,671.22296,267.93182
554.7119,824.3591,203.13387
-285.90454,2231.7546,745.7652
-1311.4609,3225.7952,853.22516
-2239.1282,3033.5852,885.3903
-2591.3796,2007.344,908.42664
-1722.445,1066.4875,319.22617
-1123.6576,425.05948,272.68396
-748.2669,-300.88983,-5.116653
-606.39795,-1018.7389,-290.56195
-512.6491,-1359.9978,-451.74988
-810.4909,-1003.39307,-210.21576
-1072.9,-633.30817,-57.501858
-1614.3896,945.2789,363.30804
-2014.962,2090.5984,1144.3644
-1486.816,2123.345,1383.9501
-983.07666,1789.5116,1340.1252
-458.31683,1081.4406,997.2664
-150.05829,854.99554,547.4471
214.2302,652.98975,350.1442
531.72894,637.3998,196.98563
942.40753,390.83572,-29.777872
935.09973,540.112,-58.337227
839.8979,583.71796,-53.425762
344.16107,1324.118,363.41055
-444.60666,2570.4797,1214.77
-1456.344,3101.9788,1734.0862
-2119.0447,2663.8157,1748.0989
-1702.15,1394.1903,1138.1652
-1231.6932,535.34973,573.7982
-877.63525,15.94077,160.8428
-640.43304,-680.26965,-233.12482
-476.8754,-1096.4248,-550.2001
-610.6287,-888.6372,-400.81128
-885.26166,-613.2562,-333.69473
-1052.4977,-190.34627,-135.52672
-1656.1895,1131.4663,698.78033
-1993.1733,2168.3494,1519.6187
-1638.7294,2421.9834,1691.7653
-1009.18414,1710.2455,1362.567
-299.14362,1068.8198,783.7618
224.15356,699.26483,414.85867
624.8484,509.65277,258.9587
887.87463,311.35004,144.22403
954.53125,244.39354,119.36696
773.29834,239.13303,129.27997
554.09204,427.27768,108.781166
1.7312756,1770.1938,664.06116
-758.7979,3327.352,1284.2856
-1713.9468,3681.4226,1483.7444
-1691.1716,2487.7378,985.2979
-1267.1123,1200.0668,536.42017
-902.7448,348.83548,223.58353
-638.8052,-586.0221,-203.33772
-555.317,-1127.3134,-543.62177
-587.94635,-1164.8312,-560.1544
-899.33636,-659.12036,-273.02197
-1241.4736,-306.49597,-86.66725
-1891.6315,1175.2931,951.7749
-2054.0417,2027.7117,1760.2836
-1495.5466,2213.7092,1929.4562
-815.86993,1729.8899,1739.1405
-228.99417,975.2946,1053.4872
272.08575,775.6797,768.3488
525.8187,394.24768,429.1699
759.1599,150.7874,153.15253
957.87744,73.449554,-56.042458
998.5935,148.92967,73.446266
851.6424,301.72495,30.477684
715.9285,1208.5829,421.28973
-50.602043,2889.914,1575.7303
-810.409,3591.8408,1938.9083
-1467.7823,3207.603,2020.9979
-1535.3638,1901.2412,1293.5243
-1066.0107,763.81354,563.26794
-867.22504,-116.260864,-16.757353
-639.2359,-602.5175,-674.0013
-643.9893,-815.9017,-920.52814
-827.07275,-621.47156,-706.1629
-1102.6022,-397.23282,-473.00208
-1372.4576,147.49777,122.171936
-1864.4097,1361.1031,1526.7906
-1937.8329,2000.972,2172.1826
-1353.1332,2087.3447,2485.6162
-602.8579,1301.2765,1835.7804
-4.0117135,731.0154,1069.6318
425.79358,452.94803,545.87115
719.4257,282.32587,326.2569
920.3935,109.77672,14.380792
924.73096,188.36922,-66.76739
895.10944,326.43732,108.53783
592.1575,1138.6953,799.0407
-249.87157,2132.924,1554.9442
-1127.8499,3112.3235,2368.3774
-1933.4744,2876.732,2275.3376
-1669.8351,1819.5145,1341.2114
-1251.2987,967.8095,734.8918
-930.7526,129.66112,151.35123
-812.1991,-541.9583,-308.188
-814.80396,-973.57806,-554.82996
-879.6761,-1176.2811,-623.6968
-1176.6699,-823.7471,-466.11072
-1233.6659,-532.54,-304.63953
-1827.7229,1421.9669,799.84534
-2004.2325,2376.053,1398.55
-1474.3323,2807.2205,1491.1031
-819.17664,2195.7563,1360.019
-319.43967,1148.1609,824.7488
34.09219,890.3982,635.45197
539.8856,453.7364,333.92072
865.4744,290.50452,232.44577
1055.12,10.462465,82.18068
950.35736,342.1858,151.92723
829.03845,319.01572,145.25906
402.8223,1239.332,321.71445
-456.29254,3185.8892,994.59094
-1677.3258,4013.368,1313.7253
-2158.6973,3139.025,1183.4357
-1670.8403,1877.9084,622.5972
-1208.2782,764.7854,239.6034
-881.33734,58.069523,-22.136135
-804.44885,-687.9828,-209.50311
-705.859,-1107.0116,-401.36798
-613.7803,-1259.4246,-303.92236
-877.94147,-794.3626,-92.677925
-880.9958,-572.81995,0.53313094
-1479.2916,969.71405,513.57086
-1987.4974,2446.4548,1071.585
-1660.45,3213.1753,1431.1859
-975.5043,2559.3247,1229.8495
-350.66287,1131.7052,860.7241
-22.757694,637.5066,494.32532
574.834,369.57486,217.85783
910.5277,323.85474,227.4259
1157.3157,166.25482,196.52452
997.6968,397.25598,205.57079
740.6145,958.3031,284.71106
174.19502,1853.8715,432.2684
-435.58902,2959.996,893.8198
-1541.0695,3425.7798,1425.6951
-1767.0096,2400.4434,963.159
-1520.7565,1345.495,615.08234
-1252.3064,343.04373,294.47766
-875.63995,-645.5895,-72.33931
-692.93097,-1170.8544,-227.20395
-653.4022,-1001.01953,-70.80549
-784.9411,-563.47687,-64.76609
-865.2919,-360.4974,-28.739525
-1185.6641,456.39038,306.2144
-1903.7838,1444.3302,721.3635
-2383.5398,2442.1692,1072.1196
-1629.4215,2820.4644,1046.1536
-429.23502,1680.9216,692.1353
131.60272,1081.6085,379.24057
574.18207,760.07043,280.75775
996.34454,547.6227,213.01834
1190.4175,148.54329,122.88262
965.2821,218.69142,102.481964
682.93695,311.54413,132.02309
76.49205,1418.3318,345.74435
-1202.3052,2953.2122,709.66693
-2342.801,3223.0708,781.447
-1997.3984,2418.299,776.6777
-1662.5658,1674.2483,428.60364
-1210.5033,697.3425,-44.51002
-654.45306,-13.197503,-152.26227
-381.2279,-596.5774,-371.59464
-105.47016,-1150.0043,-619.55756
-431.95657,-965.3146,-393.52036
-795.41205,-735.3446,-370.16888
-1107.0691,-402.47748,-98.83041
-1831.2776,511.02008,230.07857
-2429.9805,1481.0685,767.1293
-2157.014,2344.2424,1228.9327
-1420.4653,2032.2737,1087.0477
-751.0901,1212.4906,909.8555
-381.9899,946.10425,698.0172
208.1096,648.4766,478.8079
648.9531,463.61166,324.68518
1073.8838,221.33018,246.19263
1010.355,385.47922,256.3755
843.6058,349.7387,217.5439
303.6846,1130.359,125.55094
-679.162,2803.8672,316.78897
-2042.9026,3674.779,580.73016
-2573.8604,2907.892,342.73456
-2068.8328,2007.7427,109.60246
-1610.3275,1086.4968,96.06295
-1204.9609,118.892166,-120.13534
-786.1811,-1111.6274,-261.74683
-502.57053,-1692.5193,-296.71695
-529.4522,-1310.1099,100.21299
-939.0236,-794.31323,126.258354
-1053.2378,-613.86786,-15.685511
-2176.3186,1092.5182,26.525307
-2802.7427,2457.1226,479.92978
-1662.7216,2486.492,434.88297
-999.9242,1916.6306,509.47034
-591.31195,1328.1466,368.86517
-262.06223,989.41046,219.28633
438.146,904.5228,62.336067
929.1067,793.48303,110.47496
1233.2511,629.6687,92.94107
874.66174,619.3001,95.62116
514.3785,869.0507,-266.9946
-279.97232,1899.9084,-415.0229
-1138.2452,2961.3699,-132.79457
-1981.3096,3168.4272,-57.158195
-2215.5508,2559.45,65.41007
-1869.3918,1539.1534,44.80215
-1382.0305,669.4944,51.06825
-1111.8278,14.591997,46.869804
-872.6512,-1250.6152,-256.28064
-789.54016,-1865.024,-280.1361
-940.56696,-1378.8646,37.39155
-989.3433,-1002.4096,172.11699
-1349.019,126.527435,158.79324
-2582.3162,1863.8835,589.6773
-2352.5981,3194.8904,1192.1124
-1357.063,2771.9746,995.9842
-490.50873,1596.3779,774.51025
-233.07617,1108.3265,594.37317
140.39526,764.38684,334.66785
678.96136,555.32684,140.86798
1173.9425,278.98547,52.363163
1129.5143,273.75034,-107.421524
929.0538,609.25024,-124.649284
580.33386,910.75,-266.88965
-415.99402,3180.6772,-7.4897723
-1399.8391,3733.915,907.38696
-1756.2479,2900.0042,883.4432
-1836.4165,1848.3943,400.6845
-1529.8442,765.9196,339.1775
-1245.7971,-33.6256,329.26117
-964.3367,-1064.1433,10.713064
-769.50995,-1737.2975,-345.6858
-846.5423,-1440.9198,-2.7916381
-972.9164,-868.684,114.50224
-1209.67,-403.11157,32.33703
-2196.1233,1474.7994,602.477
-2281.1846,2543.983,1174.8822
-1493.9308,2725.6763,1102.5576
-601.18744,1813.1874,901.125
-314.81958,1381.6715,866.64545
52.47127,926.32495,571.99194
549.8329,590.8813,308.05154
1088.0824,350.51605,202.71147
1330.6799,264.9124,133.09235
965.26874,385.26248,60.35092
631.74554,652.40436,-3.7561452
37.304077,1552.055,91.590675
-834.34033,3453.9336,267.9631
-2290.7898,3983.585,773.7743
-2347.3083,2626.0115,533.46234
-1686.0018,1580.4688,237.68433
-1162.0901,761.0401,89.07575
-954.0658,42.30164,-108.3944
-772.30536,-659.3401,-143.61955
-605.6703,-1154.2274,-369.8543
-689.83276,-1271.6394,-146.99074
-866.60236,-916.2449,112.54585
-859.20355,-507.32452,280.81482
-1393.8845,765.4739,367.21783
-2122.937,2060.5872,954.1058
-1878.5988,2766.6812,1191.9597
-1254.8965,2575.9883,834.16455
-517.9158,1633.0598,682.6399
-270.45758,972.6762,502.90384
170.73418,540.0657,268.7762
642.1345,430.24258,120.562454
1141.3287,340.00165,208.61218
1075.307,476.72928,193.02985
925.1575,537.4285,10.033644
415.52963,1090.7454,-23.405
-300.70392,2767.97,55.194168
-1670.1898,3950.4014,234.8081
-2428.174,3143.128,403.53784
-1727.5768,1800.9927,136.48042
-1382.689,989.9986,18.531036
-1093.6737,216.26239,-97.46899
-889.29364,-420.57712,-68.238655
-729.7245,-1233.4572,-296.1811
-686.6978,-1320.51,-130.87404
-871.8123,-868.6619,88.78847
-954.8778,-518.4758,191.65903
-1514.3629,500.6562,161.0884
-2154.6533,1989.6929,677.0214
-1939.2249,3186.0771,1116.3228
-1077.4803,2221.6,882.31903
-459.11334,1284.1985,757.0898
-270.67773,910.4853,690.06525
145.7045,661.8711,484.06146
465.87143,490.5699,430.8023
899.50323,331.83517,395.7092
972.7104,263.59824,214.70398
823.2955,469.57288,101.782776
474.14444,857.76636,48.229076
-87.66771,2332.15,156.74763
-1336.17,3304.1028,272.23615
-1928.4813,2646.8784,302.81845
-1525.9624,1736.2339,196.26137
-1379.6041,949.55334,96.311
-1112.8613,234.80026,196.18344
-752.9858,-402.5506,28.914715
-407.17105,-949.8437,-62.733906
-344.98053,-908.03015,33.126904
-422.89026,-599.58777,144.23653
-430.49133,-451.7396,133.613
-569.49786,-38.95695,230.74466
-1202.7472,590.5497,325.01776
-1796.0303,2670.12,826.6045
-1740.8298,2732.516,880.2966
-1210.4202,1922.104,622.02875
-803.02905,1480.6208,726.77155
-275.97144,886.369,431.70322
358.35397,534.05066,265.40494
687.6043,412.79428,251.94301
836.5545,289.22388,120.00705
674.28217,231.05368,-77.20637
507.47638,561.7202,-56.953262
3.5595927,1638.3822,81.57497
-829.1827,3317.4282,197.50504
-1536.1094,3919.2495,148.39716
-1739.5286,3339.7139,147.50839
-1314.9229,1897.8408,-88.211174
-1123.2012,662.52484,-190.87419
-1000.095,-122.708786,-330.6817
-835.87,-655.7478,-373.98627
-746.8825,-985.087,-340.45947
-943.3773,-804.01117,-176.4831
-1160.9126,-569.01666,-143.03868
-1411.431,-355.95377,44.435875
-1903.3066,601.45917,248.06877
-2320.6396,2352.76,1140.7501
-1691.4932,2758.368,1170.12
-827.1722,2020.1925,880.4258
-302.76453,1539.4473,727.0828
97.821045,1109.163,513.8014
682.06305,528.89124,279.7897
1146.3601,105.12654,149.5088
1126.5479,45.490807,58.831394
883.83325,154.83682,40.115425
414.93106,777.28796,108.370186
-484.2214,2765.459,588.73773
-1591.7323,3716.9155,994.928
-2310.006,2891.8645,999.9489
-1758.6425,1722.1597,752.65234
-1200.8003,801.4891,542.7447
-798.6214,88.951256,187.307
-489.74854,-779.4813,-75.49542
-413.99,-1230.8695,-197.31001
-543.4684,-1215.0542,-140.67242
-852.75793,-886.6627,-110.46456
-1152.3622,-609.3451,-64.44636
-1794.0759,364.20395,156.8058
-2775.658,2315.5571,981.61176
-2175.8662,3046.728,986.3495
-1152.814,2210.9883,858.1562
-475.71515,1302.809,567.1776
-85.83439,975.6249,387.5502
407.17816,683.32025,271.58997
791.5903,386.6272,173.3925
1125.4053,114.285225,63.394024
885.50525,210.94373,44.519344
735.4179,266.0687,32.158558
86.262184,1449.2617,266.99335
-667.5716,3041.6907,604.2773
-1651.1145,3330.272,770.55255
-1995.1876,2694.1223,757.34143
-1524.629,1589.0138,500.25366
-1111.1776,699.7854,320.9864
-683.6452,-386.12045,146.05345
-469.96228,-1276.8998,-139.51526
-452.95544,-1401.9739,-35.653942
-774.7883,-1041.7781,49.078346
-1024.5573,-794.7842,-11.353277
-1564.5552,112.173256,-6.8889146
-2530.852,1933.9982,570.3144
-2242.016,2796.9124,810.572
-1248.0504,2288.3193,723.18994
-467.44037,1416.641,613.4499
-56.262398,1099.1783,437.11874
480.88123,874.63916,298.06128
884.45996,529.8098,176.3516
1089.7468,190.43202,11.203958
905.88055,257.7611,-49.962505
722.7758,531.05725,29.835115
238.10674,1237.1967,67.052605
-470.12073,2613.1372,256.35977
-1663.716,3539.0151,480.08353
-2175.0583,2726.752,495.72748
-1492.1559,1579.5444,279.90274
-1032.3762,941.0867,232.69421
-722.271,271.50363,295.38373
-503.32352,-644.0529,235.11053
-342.6168,-1125.308,350.92462
-706.44525,-961.3457,422.72903
-914.33655,-748.1965,350.3205
-1520.3807,65.11303,314.49466
-2187.1736,812.24316,399.73373
-2154.0325,1551.8542,359.56564
-1497.8444,1792.2458,386.56616
-858.90894,1749.9685,368.3648
-243.47214,1563.9592,350.94086
300.819,1166.6521,272.31854
652.004,762.81104,83.61397
1005.1359,747.6507,-9.3577175
974.05176,807.4266,-191.56688
760.3949,813.8848,-187.33977
462.41037,1232.2346,-157.32097
-216.55266,1840.186,47.585903
-1366.414,2382.4487,293.66556
-2154.1301,2468.0808,499.4857
-1893.4114,1702.2986,581.58295
-1479.4232,868.6973,547.0893
-863.70825,-107.002396,385.67484
-530.93585,-673.0747,309.85947
-218.53812,-782.7594,313.8543
-476.45364,-936.43463,243.14697
-755.25726,-938.36597,226.41153
-1418.3486,-555.2623,111.4276
-2106.2673,48.640903,-53.772762
-2256.2568,1125.3882,-132.18352
-2101.54,1687.5809,28.769323
-1553.4568,1509.6768,47.954147
-1219.3771,1441.0752,59.145073
-568.01685,1429.7502,105.66638
92.07866,1337.6456,88.41862
781.8304,1265.827,69.95675
766.539,1103.0071,-133.8581
212.66534,1068.7238,-143.36238
-396.59222,1090.731,-300.54294
-1249.5044,1347.4161,-294.9433
-1940.0446,1570.1481,-250.77081
-2289.4326,1636.4845,-207.44618
-2391.5125,1571.2644,10.090811
-1935.8993,1232.4731,289.14935
-1327.2437,403.53848,292.48553
-733.2319,-739.95856,54.250046
-427.84802,-1181.9767,38.211544
-461.63873,-991.4495,56.767944
-662.5373,-731.9689,137.27762
-1130.244,158.17064,296.54623
-1468.789,876.96027,330.60547
-1129.9465,1217.6741,498.94296
-877.09265,1766.9515,766.91406
-665.9675,1784.6351,932.4949
-406.1311,1333.8564,875.8054
-69.14671,722.5554,670.4765
230.31558,353.32535,535.4898
510.64502,141.81583,368.0737
625.68,19.016886,148.08463
648.13776,264.8877,165.32571
539.1207,922.6309,142.0388
18.065748,1724.0994,294.24564
-674.9893,2589.0728,499.9856
-1428.9385,2837.7534,606.4587
-1485.3707,2073.5513,643.7773
-1349.2375,1220.6156,585.20325
-1021.8501,258.46732,455.4636
-637.51294,-537.77075,283.38583
-431.75305,-982.5145,163.67259
-395.0327,-863.97906,77.37541
-758.45465,-665.4894,138.13101
-1140.8649,-314.42026,145.98018
-1868.8528,490.4705,298.55933
-1915.1555,1461.4534,365.06067
-1502.8539,2260.0312,578.4133
-995.767,2101.071,653.0703
-604.35986,1501.6002,601.2834
-149.5248,1123.5472,602.6675
345.01526,822.9863,540.59326
731.1768,572.2769,417.9693
877.8529,467.6946,268.30136
724.78033,550.87024,133.92168
325.95096,930.5549,108.463455
-351.85977,1868.9657,305.17596
-1383.5931,2588.1829,522.94226
-2000.891,2220.2236,460.1306
-1563.962,1568.6067,491.98795
-1237.7781,1050.2252,461.67093
-927.5154,-76.62936,222.79715
-584.954,-805.6214,187.80275
-382.1767,-848.0067,165.91655
-597.18884,-856.92865,128.73582
-906.568,-686.28955,113.05584
-1538.8395,-258.7374,115.20082
-2091.702,455.20105,292.70224
-1969.6566,1595.0961,532.3032
-1615.0872,2078.4648,879.26825
-1004.24054,1584.765,902.159
-459.85034,936.32367,798.05396
246.70464,813.78735,639.0801
804.6509,852.30194,486.89465
1004.8514,574.4968,194.58945
798.31323,683.8582,95.34275
435.38818,991.33875,83.17889
-205.23781,1385.2782,222.84097
-1120.0985,2182.1763,521.36725
-2434.929,2452.7817,682.9332
-2295.572,1516.3884,747.4237
-1696.2809,894.31854,736.8071
-1064.8394,-187.50171,517.73846
-636.85645,-1168.9861,240.54126
-555.60034,-1047.7456,222.29234
-651.50903,-1062.1305,18.200827
-885.4658,-753.4899,62.813053
-1457.264,-252.69058,157.48145
-1708.8385,569.9187,305.27325
-1605.3131,1351.5004,711.05554
-1297.3627,1462.6327,976.8938
-891.7582,1231.8989,973.05444
-352.88892,1085.1495,812.3449
186.28752,1203.7158,658.5088
721.47705,1160.6173,649.04083
971.10724,1113.4022,469.4896
710.9315,1051.3008,318.45187
377.71176,1101.3518,138.05586
-510.11456,1468.0504,310.34796
-1208.7736,1546.8953,411.87714
-2167.6846,1495.0355,546.8904
-2302.9072,1198.1277,572.32764
-1879.2762,662.509,620.9811
-1251.2515,-36.061344,391.44946
-632.84753,-947.4454,181.16112
-490.09094,-515.8922,370.6473
-485.9367,-666.8085,298.53992
-690.32996,-443.80414,700.613
-1364.416,32.468193,744.1338
-1888.9459,335.742,1122.4243
-1459.4105,785.73145,1202.5885
-594.1617,1074.8615,1320.0518
-66.22849,1007.081,1078.9158
1.9663132,983.5243,844.84265
257.0343,913.1027,627.989
420.57523,1008.2822,496.24493
665.41455,780.2514,352.22916
459.57095,1046.4175,488.01672
269.21988,1220.2024,1008.7077
-93.05129,1647.6808,1494.6534
-251.7617,1540.31,1796.6017
-715.75604,1221.762,1554.3727
-526.3234,1029.6158,1164.4697
-179.53165,846.9533,1264.3313
-70.56812,42.22238,807.77515
-239.41496,-399.7363,565.1145
-446.9308,-500.2187,348.3058
-491.63107,-149.67963,291.74814
-177.95706,-19.851616,369.96628
-542.3746,121.879875,703.8407
669.65265,-445.5918,300.30814
1424.0176,344.8898,757.36304
1209.6494,379.7017,467.70724
1611.5435,416.65186,415.53357
926.5405,767.4483,558.62244
819.6746,399.92874,279.75284
210.86798,444.22775,64.93617
61.242046,509.7667,-78.84063
67.280815,760.5981,-46.987007
240.31702,813.9715,-133.14345
128.89786,995.0381,14.539051
985.7165,915.3047,46.069256
1266.2181,453.05804,121.78238
1192.0303,120.805145,202.07814
866.0092,428.74237,649.20746
188.21574,751.1772,501.7678
-740.35834,291.8743,445.29285
-1171.9369,261.20245,573.9962
-1115.2233,399.62418,598.39923
-948.5846,544.254,807.4293
-789.11743,110.646225,601.2353
-491.23996,-308.9172,999.0626
-95.12106,317.37317,1545.4979
345.49963,588.13586,2350.0242
344.76254,1209.5449,2455.0376
228.40205,1854.5143,1804.1654
65.06572,1550.0223,1193.7114
31.752682,831.20886,653.95654
199.2015,535.3302,424.1964
197.79689,353.10754,415.1948
481.09067,411.73657,337.2761
565.45074,487.47537,303.10654
504.0864,921.5117,332.71237
185.95398,1854.626,522.9656
-338.04865,2949.096,569.07104
-1101.2457,3632.7764,662.5088
-1574.0272,3395.3035,587.8015
-1157.2736,1612.3717,134.7284
-975.6187,604.0097,66.40245
-702.4909,-203.48083,-87.07242
-562.5759,-655.1571,-185.71149
-460.0057,-1073.8339,-259.0015
-611.90393,-659.52905,-168.16919
-873.44543,-612.6357,-151.15074
-1011.724,238.44083,47.239582
-1493.0659,2077.377,691.5016
-1258.4785,2815.2207,1278.6335
-765.56354,2781.6008,1200.538
-274.59204,1617.2406,864.28827
1.8397741,957.35724,616.28754
312.68143,573.0715,353.85278
567.8859,207.80351,303.0123
875.06647,-31.339602,239.15663
885.4513,-155.24367,103.45024
845.33014,-100.85136,-30.647177
707.1975,400.0393,18.214859
35.03471,3466.4592,553.88
-890.71967,4353.7036,616.52295
-1539.1292,3186.0178,546.3274
-1144.673,1888.8936,350.9307
-999.39764,707.3349,157.30762
-613.0162,-325.65414,43.129543
-551.0457,-933.81146,-162.47723
-486.13892,-1109.7313,-94.227295
-816.4299,-779.76306,-97.82374
-1012.02747,-615.55646,-34.18241
-1471.1877,463.13998,59.70445
-2106.761,2602.6626,678.5087
-1583.7007,3184.0757,986.49744
-727.8342,2473.8796,717.9001
-278.50653,1447.7466,580.7741
99.67925,802.302,483.08273
658.6991,424.85712,395.41586
1136.362,-13.543092,267.25848
1147.9146,-110.489044,223.01129
895.2089,18.131413,138.30394
654.1901,-43.998375,46.357235
257.56293,1071.4116,152.44783
-1347.77,4916.0356,1004.186
-2191.3564,4259.4927,884.28485
-1893.9596,2774.391,650.066
-1293.367,1427.5143,339.66907
-997.22516,255.8065,203.34854
-893.9597,-861.8134,-42.15504
-687.4829,-1724.9443,-371.89688
-654.15497,-1611.6036,-238.87889
-893.57196,-1055.9492,-238.51807
-912.1642,-579.06635,-214.51651
-1056.5522,-39.45887,-145.32309
-2415.2554,2214.31,733.12616
-2657.8604,4786.705,1309.2917
-1528.7789,2722.2478,883.27484
-676.92786,1073.0222,586.2102
-164.91441,440.35986,511.20206
135.51414,127.231346,431.40277
317.00558,-297.7101,471.883
614.1059,-459.47644,305.23773
757.54474,-320.68054,300.6861
755.7245,78.29224,234.86252
688.1733,449.68896,481.48425
76.93579,4013.7332,454.9069
-738.957,5199.471,292.0991
-1884.4869,4157.708,108.77237
-2344.316,2622.6843,-194.07358
-1706.4891,653.153,-215.84364
-1122.0387,-271.6547,-252.25044
-810.0747,-1501.1522,-186.99826
-691.65814,-1390.7604,-240.02867
-711.9544,-1397.675,-78.80444
-1046.885,-713.12006,-105.2227
-1356.3035,-374.83295,-144.31618
-2041.1504,558.099,-189.53098
-3211.2932,2952.2456,428.5877
-2195.3164,3679.1306,574.9409
-1054.741,2661.625,398.6199
-368.47302,1614.6265,346.89978
-40.277016,1002.4052,334.5355
288.16196,643.38745,311.37704
851.44415,39.479393,143.81886
1234.7194,-62.631325,119.42328
1099.7892,125.850716,86.5363
894.2036,506.60803,238.40154
596.70355,587.10736,-85.321815
-650.087,3690.3718,520.523
-2365.2397,5209.145,790.93536
-2666.1116,3720.646,382.1804
-2034.8402,1830.3416,183.21399
-1371.913,300.56326,-201.383
-976.53687,-477.66324,-121.24745
-534.5875,-1320.7079,-434.76416
-628.0406,-1228.6266,-270.03607
-764.7248,-1237.5096,-280.93118
-1165.7987,-763.52783,-206.14868
-1198.2319,-597.23047,-244.02873
-2139.0007,1154.4258,214.17531
-2746.4521,3470.4927,924.5121
-1697.1525,3763.943,929.61395
-683.18976,2085.8845,798.26776
-137.48375,1012.3498,455.78464
60.988796,692.85956,396.2126
409.37872,280.9431,259.54623
801.12787,21.153278,88.39574
1022.59564,128.76633,275.60858
1070.5117,318.05405,300.88464
853.6402,648.5453,250.34204
128.47649,1941.537,92.399185
-1085.203,4359.559,397.76285
-2625.2114,4123.432,577.54803
-2391.3477,2782.2524,248.60272
-1622.4955,1122.8221,92.93108
-1223.3185,203.77812,61.827568
-848.6671,-745.80115,-142.40596
-579.5337,-1555.7471,-376.7542
-548.48865,-1502.9877,-199.82506
-783.0992,-1067.2369,-105.22696
-1153.5588,-784.98254,-133.96613
-1558.4142,-270.5308,-143.32439
-3212.6223,706.08417,276.1494
-4002.7615,2923.4453,1119.9313
-2407.0479,3414.2917,804.3126
-731.43195,1985.9872,661.29236
71.16101,1343.7982,123.271126
292.0909,1348.8309,264.35663
755.8604,620.1919,100.796265
1122.0076,313.81754,-21.212214
1207.5455,220.1051,-99.73174
899.2295,556.7597,221.41911
733.2322,553.15234,-75.20316
-454.55145,2858.5647,260.58527
-2468.301,5281.295,715.7665
-3282.1155,4455.79,765.172
-2894.5144,1985.2308,401.24246
-2061.4927,459.4739,182.57372
-1395.4094,-536.6835,-137.32196
-788.2261,-1526.195,-530.1196
-599.6019,-1458.6348,-304.64667
-631.9092,-1246.6045,-137.49445
-1020.33466,-937.2829,-280.07422
-1365.8431,-602.40533,-221.3212
-1913.3271,153.74716,-179.52536
-3144.4768,2189.9697,484.33664
-2744.647,4249.186,841.3699
-1461.572,3057.3289,705.55597
-451.86627,1163.4362,440.384
122.07592,683.3337,249.87184
575.6311,418.8513,319.9342
888.78876,426.64795,277.6776
1046.6025,40.018105,70.336426
893.3251,448.80768,211.23729
806.7902,492.172,262.8459
576.60364,1329.8729,-96.304344
-862.45105,2983.2844,1046.1364
-2722.048,4666.1655,1848.7943
-3497.0706,4139.437,1570.8512
-2841.279,1735.175,803.99304
-2016.5317,411.81052,288.58502
-1515.4768,-793.05164,-515.21906
-666.4054,-2076.5261,-1216.221
-591.1725,-1898.1152,-725.8739
-619.60565,-1401.0009,-386.60794
-1418.9263,-837.8668,-484.8955
-1647.838,-177.59883,45.808544
-2593.6536,1498.9779,458.0352
-2811.1,4033.0532,1059.1227
-1578.6339,3405.6086,1169.428
-727.4998,1756.2117,783.4155
-211.15714,936.63336,602.24664
159.56776,530.2672,573.221
635.7732,32.42555,283.69672
1093.5367,20.089485,334.3068
1153.2568,383.87463,543.42084
1025.9088,495.797,534.8024
556.5774,796.1696,118.334755
-153.96255,1956.8334,401.76602
-1758.2397,4240.175,805.3072
-3516.0107,4356.9,752.5327
-2912.1045,2524.2742,370.8684
-1991.2996,1165.6456,20.098099
-1293.2706,74.28728,-197.191
-932.5126,-607.69257,-217.92026
-687.62476,-1301.3625,-403.9725
-730.073,-1386.5032,-457.01285
-920.9329,-1180.7505,-210.25162
-1101.3575,-803.479,-191.15787
-1308.3322,-161.17125,-82.14971
-2205.8662,2189.6396,664.3828
-1907.4478,3399.284,1012.96545
-970.8978,3180.7563,978.72235
-331.05588,2021.344,756.20465
46.87145,1079.1097,447.58112
385.34763,530.6402,337.6307
719.2722,19.616108,156.64888
1138.1512,-277.4485,-114.178474
1099.4869,-142.56154,-96.37487
862.8582,214.93425,86.98336
741.5383,771.501,100.700005
-249.5425,3917.5452,314.17377
-1570.0629,5302.2856,591.0426
-2317.4163,3469.8423,538.19666
-1939.645,1725.7524,229.7832
-1334.2352,364.66312,67.84635
-984.6332,-547.47784,-179.81429
-814.0696,-1315.013,-337.53772
-689.15265,-1479.8508,-333.07727
-921.8028,-1136.0272,-152.1693
-1064.0172,-765.7784,-140.15613
-1561.7417,148.30344,55.62989
-2487.7104,2141.8357,885.83234
-2093.2937,2861.488,1006.5593
-1404.8163,2779.2625,982.5345
-570.69226,1698.2875,855.72577
-132.97511,848.9779,529.6547
358.62613,304.82272,459.5581
866.5422,112.824554,345.895
1192.5876,-153.02316,131.33998
1141.8564,41.08939,52.483765
877.8085,298.28818,140.1636
607.0088,1062.9092,31.661549
-1086.0511,4253.5024,1103.7993
-2434.4163,4800.7134,1258.7694
-2896.3667,3252.9473,1141.9364
-2421.7544,1768.4755,587.79736
-1429.1788,263.58182,41.583252
-1027.454,-809.00653,-210.96999
-809.6829,-1987.8085,-810.0543
-974.5301,-2158.8057,-707.20447
-1289.6035,-1520.9469,-530.9871
-1563.0784,-705.27155,-295.91684
-1893.7467,-350.82507,-279.94846
-3440.3953,404.08035,415.96475
-5037.37,1803.151,1212.3544
-3527.6504,2351.291,886.10364
-1604.0245,2120.187,827.1071
209.2747,1728.8661,185.54288
1320.4862,1812.367,39.01679
1781.7234,1602.272,-90.09673
1288.775,1563.5726,-54.620625
698.95703,1616.7236,382.6278
-274.78214,2256.0908,1125.664
-2509.6519,3447.3733,1585.4613
-5025.9233,5150.67,2055.3013
-5908.639,4036.8015,1070.6443
-4265.923,1453.3451,7.9120636
-3025.035,-809.71545,-1228.3022
-1879.4993,-3572.8757,-2247.9988
-1350.2059,-3272.4978,-1458.4415
-1736.3058,-1899.1791,-850.7175
-2087.4106,-666.0475,-285.64926
-3201.5308,30.773767,267.91562
-3958.861,621.9668,740.24744
-4383.308,2374.7092,1287.7478
-2538.282,2349.7573,939.15765
-420.41638,2458.401,299.6656
1861.8649,3047.9526,-239.59644
1883.0258,3144.4219,-11.864064
855.01,3401.311,704.90216
-616.7937,3258.8616,1272.0941
-3147.8066,4575.528,1707.883
-6076.484,4912.6504,1184.029
-5614.6284,2787.6123,40.916477
-4372.8276,-180.35617,-1332.8853
-2768.8938,-3446.701,-2200.738
-1728.2454,-4059.057,-1736.505
-2323.9014,-2321.2039,-906.613
-2603.8867,-451.22778,20.641733
-3413.456,1471.7817,676.30237
-3503.2603,3073.8447,1388.3475
-1960.9045,3284.0994,1331.969
450.9155,2194.6736,647.1661
1749.6107,2079.3145,305.2321
2689.7607,1948.8844,34.945557
1986.1018,3204.0396,605.20197
-52.637505,3997.8616,944.396
-2304.5417,5148.145,1420.5669
-3894.2932,4485.0615,1286.0459
-5051.459,2382.1785,150.79668
-3759.2673,-838.99536,-1244.229
-2414.0554,-3098.892,-1806.6337
-1918.0311,-4213.2285,-1520.9604
-2667.3157,-2055.097,-356.21014
-4151.224,-71.7146,391.58206
-5015.1016,3018.3208,1414.7384
-3170.5225,3315.0566,1218.5591
-248.04805,3264.2988,457.47998
2344.642,3680.6033,185.43077
2460.726,3299.0566,159.16463
1691.3301,3955.198,509.29388
194.78166,4308.48,1057.0114
-2965.8867,5466.8257,1627.6504
-6004.3525,5231.9985,1419.1318
-6127.66,1743.308,-659.70197
-4477.579,-2495.0137,-2479.6458
-2545.0288,-5200.041,-2660.2185
-2506.009,-3296.3586,-1300.0033
-3633.841,-1028.3456,-268.58124
-5454.598,2265.7961,1110.8594
-4673.9263,3928.8235,1871.2766
-1498.5454,3090.6863,1505.8278
1468.1649,2727.788,1008.63116
3006.1064,2992.7393,51.964237
2270.2014,4410.039,-34.120125
563.2671,4944.8906,596.91986
-2476.4436,5656.33,1979.0667
-5522.514,4851.1035,2567.7378
-6609.3145,2114.0947,549.42206
-4941.999,-1614.549,-1907.1543
-2348.4429,-4313.3926,-2583.8972
-2060.8433,-4235.7085,-1847.859
-2475.2268,-1987.6166,-507.49188
-3645.576,-374.75836,283.4251
-6029.8784,1037.2639,946.60345
-6267.4062,2825.3599,1175.1635
-2583.7559,2722.5996,435.64276
709.67065,3501.638,-550.28625
2243.5059,3922.1091,-1253.5016
1573.6637,5051.986,-281.33755
960.1342,5413.1724,777.1357
-2591.3032,7173.289,3041.8923
-8200.093,5343.054,3456.85
-8138.5923,3064.778,928.4579
-4389.6685,-2948.7932,-3048.595
-1741.3912,-6849.6045,-3294.7468
-3248.7058,-4768.2383,-1744.6853
-5472.086,-2846.9553,-852.24286
-7874.5596,82.29852,94.73888
-7144.896,1221.231,409.44177
-5057.4595,2769.6428,273.50558
-2435.3486,3145.9448,-697.4889
-322.80557,3486.4517,-731.1515
1668.3949,3761.026,-1496.1237
2823.9011,4547.6807,-2320.4893
1860.2573,4908.004,-1653.6284
-822.9191,5752.543,-241.88275
-5145.0264,7808.5156,1362.6959
-8531.223,6044.586,1196.3873
-7058.2383,965.7653,-504.83774
-4346.2017,-4714.832,-2311.7996
-3414.8442,-6706.599,-2490.0833
-4742.0005,-4192.4272,-1401.8474
-6825.411,-1172.6427,-525.06683
-8236.007,918.6463,257.00598
-6113.357,3131.3706,294.4655
-3705.338,3159.3835,-152.95291
-1050.0504,3590.2473,-850.8631
1265.4105,3762.6887,-824.81
1747.6072,3092.091,-687.9679
1581.8033,4005.8113,-457.17606
1014.9821,4525.0146,150.28525
-1551.0298,4869.7075,835.1921
-5130.808,5008.891,1454.5747
-7364.4814,3361.7864,851.9659
-4996.887,458.56726,-201.31174
-2778.2498,-2372.4653,-1669.1572
-1117.2489,-4941.7285,-2484.1658
-1933.5074,-3738.6538,-1839.4193
-4259.8813,-2257.891,-1335.1968
-5526.284,-938.8787,-733.15106
-5964.1597,-137.4325,-773.46893
-5963.725,1900.8563,-319.3713
-3889.0535,3176.3684,-86.87026
-2436.516,3573.0608,-272.12186
41.0955,3817.8413,-476.97745
1336.4606,3627.112,-715.938
1688.5121,4347.882,-776.20825
1298.8733,4565.628,-143.7656
-1075.9109,4008.9763,390.75558
-4557.31,4539.7007,740.0225
-8102.574,3403.703,393.4992
-5966.009,603.5032,-480.234
-3128.6228,-3070.3357,-1637.786
-1698.0006,-4744.8447,-2382.7307
-2204.4812,-3743.2078,-2203.1064
-3465.4788,-2456.6604,-1824.9368
-4245.506,-483.37485,-1144.0052
-5677.972,963.0255,-154.01166
-4685.7866,3093.14,806.3757
-2169.522,2900.672,975.1356
-452.40714,2795.2146,730.87744
1170.9744,3705.2996,485.08163
1628.0286,3250.5437,88.88123
1076.8103,3811.8909,338.86758
-562.9921,2570.3228,445.47113
-2036.2449,2521.3513,830.10266
-6299.3457,2358.434,695.7483
-5157.1504,168.62312,-183.86378
-2813.9446,-929.10175,-969.85754
-1413.0555,-3401.2874,-1840.4564
-382.77444,-3203.4937,-2031.8579
-1694.4647,-2299.6226,-1467.4564
-2134.7544,-1118.8915,-747.34296
-3698.5015,682.46606,163.33156
-3376.5315,2515.9277,1476.4666
-1272.953,2236.079,1140.8668
435.0229,2840.322,1167.8079
1365.2267,2991.688,774.84283
1335.1891,2551.7942,506.43646
191.38013,2412.914,375.71664
-636.62463,1770.887,284.9881
-3235.4617,1962.4009,473.18384
-4455.312,1067.1212,255.97896
-2102.949,-324.297,-543.2141
-1201.2157,-1456.531,-831.1094
-132.11739,-1896.1042,-1073.8346
-530.0351,-1491.9036,-851.445
-1061.6339,-632.81683,-170.88524
-1970.6703,133.77928,291.15436
-1921.4385,974.38544,626.34564
-1573.7548,1729.059,1255.1155
-847.1005,1169.6173,968.825
-283.93848,974.79535,789.96936
62.700577,1234.4672,712.18756
191.55821,1026.2467,468.26105
-154.00204,1339.3617,336.0667
-1423.5845,1526.7247,538.84985
-2184.1775,1153.6621,498.09146
-2118.004,611.9689,363.79556
-1577.7522,138.4437,292.30374
-1451.6002,304.51874,306.59677
-1077.3113,399.72614,342.78915
-852.83234,382.5199,331.56802
-517.36816,139.61378,235.46501
-394.7941,109.18143,225.42719
-327.69934,110.96841,259.27322
-351.6572,155.4357,248.04475
-340.299,106.38919,263.085
-408.32916,144.69647,293.32684
-642.53674,210.83824,287.78864
-1062.8936,412.50964,306.6608
-1023.6339,586.41534,344.7301
-1053.5768,550.5999,490.9156
-964.21545,509.30927,528.8423
-1050.763,560.5454,480.36267
-988.8966,490.18097,443.12515
-1015.425,404.21478,377.8725
-927.4259,460.266,373.46432
-929.5397,591.20074,431.5502
-884.9405,763.18695,496.21957
-954.5398,847.2954,504.4871
-876.7006,777.7353,517.7787
-974.7948,629.6763,444.17294
-1056.3198,576.48157,393.83298
-1225.7826,714.9214,479.23425
-983.5863,608.3946,443.5452
-978.38196,690.01965,365.58197
-1148.8939,670.07214,323.99078
-1418.2328,536.0368,357.19894
-1434.9985,519.2611,505.2526
-1339.4746,477.028,511.12744
-1273.4576,407.08923,587.70935
-1284.352,374.6308,691.23883
-1273.7523,424.0504,630.3677
-1250.4545,481.10223,711.08716
-1214.7609,477.95837,727.47925
-1162.8745,594.88904,707.25073
-914.0612,514.74884,686.92236
-746.52716,399.24634,658.69
-655.5339,357.80957,711.5044
-423.03613,291.52368,712.84094
-127.60567,116.44553,672.15674
3.2036593,-77.47632,737.27026
167.18347,-123.23871,636.2238
156.29326,-201.30574,666.43335
197.17587,-264.323,582.0084
150.27547,-144.37068,664.31604
227.91942,-115.17258,537.3741
254.41994,-436.56155,446.5223
378.53586,-432.62317,324.83398
163.94852,-526.6762,434.69742
240.53487,-428.0158,285.94357
-385.58524,-460.39642,311.14832
-945.2756,-1148.9358,2193.8188
344.69968,133.90663,609.72314
517.0629,-472.9564,992.8979
653.5647,-424.2428,699.3887
580.7595,-421.1074,777.93207
480.5406,-474.39017,665.0809
512.75085,-460.95166,637.4592
579.97424,-374.86008,600.5586
687.5014,-416.55582,669.4671
670.66785,-314.80374,657.3145
634.8199,-433.26562,624.47314
782.0316,-439.72745,640.1323
