# PAMAP2 dataset (wrist-mounted sensor)

acc_x[mg],acc_y[mg],acc_z[mg]
477.90546,-416.68808,-133.25711
1346.4293,3055.3145,-1214.504
-3464.3855,9202.712,-3410.2666
-1646.4827,2568.874,-702.7474
342.45023,622.7652,-717.9961
-1657.5763,319.54266,-225.54735
-846.13025,-332.6157,-105.589264
-1626.71,-465.2626,-157.23352
-1342.7094,-1157.5967,-579.86743
-1416.3999,-1154.2733,-181.03511
-1710.4523,-487.5287,-418.65836
-1572.2216,-505.899,-385.05856
-2717.6174,1789.4651,-1076.9387
-4231.428,7310.4194,-1411.8523
-781.6514,5007.341,-301.21585
334.7127,1140.8523,-138.48694
1022.42377,1104.6351,-533.7079
1267.855,-337.42386,56.168335
1202.1917,268.30386,-105.54519
1594.8097,-198.55862,219.27872
1343.558,155.027,22.541756
1005.0033,-328.83163,406.05463
503.95425,423.341,-122.294044
1311.3357,-124.83806,85.04531
-385.44702,7826.957,-3001.4175
-4237.688,7176.427,-2435.2646
-121.14233,630.1151,-304.6189
-1067.3359,1083.3579,-655.2836
-1566.7191,-481.41757,-201.96378
-1144.6862,-679.3017,-290.3075
-1409.797,-1277.2659,-622.9594
-1293.3601,-1850.4329,-627.3137
-1727.436,-1079.3782,-184.68015
-1981.1355,-1091.7969,-577.7063
-3616.2097,1203.3556,-980.3478
-5409.3994,8548.509,-1239.7681
-1881.7561,4735.0835,-998.26013
575.21545,2061.672,-776.276
1859.742,1132.0049,-875.40924
1740.1833,380.2323,108.6727
1569.4908,114.63059,24.949003
1323.8695,123.94117,414.03485
973.4129,206.82594,182.41565
955.9779,26.68847,372.97946
494.8348,285.83954,-118.05245
1546.4888,813.2851,-71.221436
-1884.4355,8358.126,-3412.5881
-4070.2957,5968.8423,-2147.6248
356.11002,347.62503,-643.0485
-1181.4691,871.4702,-913.41486
-966.02405,-675.1356,-321.36304
-1303.2001,-444.5746,-282.64172
-1157.3868,-905.1586,-488.4234
-1479.5894,-993.2546,-673.62006
-1416.7373,-873.58044,-521.8865
-1705.9694,-196.9478,-362.15305
-1700.9928,-79.465096,-444.25812
-3598.257,5103.732,-1119.2959
-2555.7444,7480.741,-367.59076
120.78032,2724.6963,-55.062622
1046.7684,1053.8729,-339.64072
959.9255,272.09195,158.18007
1486.2039,-197.18013,1.3069091
1216.565,-285.317,344.91708
1602.8047,-129.53252,65.787155
851.6649,-326.9476,529.52295
853.23553,148.58275,-156.94312
996.43866,-382.07904,514.79755
1556.5935,4239.4004,-1811.4089
-3980.9458,10006.307,-3720.2393
-1065.9397,1733.5787,-324.68542
96.36299,772.88245,-810.04956
-2099.1165,40.97495,-118.946945
-1244.2227,-1181.2911,-157.21486
-1320.1893,-1682.7683,-540.5092
-1219.1332,-1709.9604,-522.9402
-1622.4323,-693.4385,153.53589
-1732.9738,-392.31238,-516.3512
-2803.0527,1418.6366,-1137.5414
-4113.3154,8144.663,-1048.0295
-1377.5752,5074.5176,-212.88478
1562.5533,1349.9205,-1190.389
1457.3235,754.26776,-373.86484
964.1323,-166.51797,61.45097
1014.0913,-48.918465,315.03366
1548.959,26.87944,291.72955
1293.012,-154.43643,357.53195
945.1233,-170.14886,163.3298
613.6399,-121.87934,38.866386
1581.6166,1483.6178,-194.18086
-1891.0303,9407.221,-3069.0278
-2756.9365,4215.3345,-1248.2001
955.71356,259.98114,-448.65396
-1317.5342,846.3227,-626.93164
-1144.3413,-715.6227,-238.41684
-1595.3177,-773.52356,-714.2469
-1510.3894,-1641.2013,-932.4917
-1644.7847,-1365.8959,-350.8017
-1685.3282,-576.64954,-238.27235
-2238.096,-272.39758,-757.3062
-4363.737,6166.029,-749.60596
-2753.3303,7500.4653,-1508.2845
754.88135,2034.4423,-38.976246
1200.2495,1183.6741,-57.88214
1673.3329,-267.30255,208.01607
1293.7615,274.04794,136.76927
1490.7966,-369.7366,534.9159
977.8474,355.28644,296.6355
1035.7441,-594.73596,469.67346
865.91815,431.044,-145.79913
1178.0635,-869.35333,290.68988
1039.1528,5977.6567,-2925.4897
-4087.878,9559.165,-3643.274
-893.26056,869.06177,-1124.0841
-338.05356,585.9282,-713.561
-2047.5775,-175.79425,-391.52063
-1129.2391,-407.2956,-18.51408
-1640.6881,-1274.8547,-270.5666
-1272.9296,-1969.7007,-647.4645
-2213.3433,-869.85815,-382.87076
-2258.0134,-1121.9142,-464.6285
-3951.5442,2745.766,-1656.6226
-3474.609,8808.672,-1838.1624
-463.72906,4863.4727,-655.4378
1243.294,1381.9854,-483.76538
1005.3426,617.7534,-114.9015
1158.7329,-36.762276,-6.373315
840.8081,74.67438,-12.175228
1621.1476,-235.9626,-22.297718
1283.5663,-26.925854,179.91237
1324.1927,-295.0442,124.30229
573.2925,455.40726,-29.032047
1647.7634,564.514,-276.80695
-994.58545,8841.683,-3072.772
-3432.7632,6090.615,-1812.8333
161.22772,167.66878,-537.09424
-1139.8287,1129.8867,-910.9198
-1470.5787,-818.29034,-337.22
-1591.2839,-776.1603,-551.38086
-1649.8392,-1833.1798,-705.86334
-1517.4297,-1362.4467,-564.50775
-2220.3738,-687.8646,-264.9424
-2011.88,-609.3954,-845.36835
-4080.4402,3961.2788,-1754.425
-3428.1118,8829.308,-1484.1239
250.81544,3204.3406,-716.20996
869.4585,1307.7632,-370.65042
1139.8461,-94.84221,2.1738853
1245.7562,259.92175,-13.210198
1284.8875,-229.96234,347.46075
1476.4379,293.73212,279.90903
1032.3077,-443.6667,478.46262
928.3021,482.67657,-24.461117
731.4761,-620.5802,252.09656
873.8416,3621.2747,-1692.9565
-5866.756,9178.124,-4027.9749
-1184.8597,1773.2196,-797.8977
148.62521,688.0302,-834.4665
-1787.5627,309.31552,44.534565
-946.7883,-643.98126,0.26890197
-1246.5044,-684.05615,-501.1591
-1480.0962,-1974.6119,-792.3309
-1444.6696,-1740.3036,-171.45619
-1833.9087,-770.0141,-423.6153
-2104.8535,-12.837025,-466.8271
-3214.4133,5503.67,-1206.3822
-1860.9569,7168.0933,-726.5138
449.49927,2350.9028,205.70135
639.1587,1220.2751,-304.45703
1173.1561,345.3454,-8.307546
938.2823,82.9589,-49.12362
1238.5264,-514.3114,376.68207
1186.9913,126.38827,173.9446
1087.3643,-284.348,535.47375
687.61273,310.20715,-42.853283
1032.6587,-253.4676,369.67575
876.6292,5554.5728,-2508.8867
-3372.0112,8593.516,-3265.9326
-1156.1989,1196.8477,-748.2133
-371.05035,818.1897,-1037.8407
-1642.7191,-139.0212,-427.87106
-1390.7869,-889.4677,-303.6487
-1814.6688,-1283.2094,-471.22992
-1458.5513,-1552.4507,-670.40485
-1812.3873,-1349.6467,-19.597921
-2164.061,-216.33177,-267.16934
-2748.4312,-353.17673,-843.06244
-5413.9673,5745.1665,-1991.5493
-4334.5156,6778.0244,-782.789
265.22403,2483.22,-814.1685
1427.8004,1130.6978,-921.51355
1285.6338,250.98006,-197.50223
1147.671,293.6924,66.09942
1869.995,-199.87662,168.64903
1477.5176,413.4739,90.44589
1419.7993,-347.35492,204.1037
624.26935,574.7669,-208.92929
1528.6737,-40.254124,-172.98157
-987.7204,8025.122,-3173.82
-5054.1987,7846.8857,-2680.585
-684.26935,808.19995,-691.8474
-1754.8724,1115.7593,-738.238
-1884.0763,-520.9949,-282.96616
-1407.2856,-945.30774,-343.77158
-2013.6272,-1810.324,-788.2168
-1627.2272,-2002.1735,-353.0747
-2093.725,-949.81067,-183.511
-2340.8853,-313.9952,-408.8911
-3061.6638,2509.1562,-1595.1741
-3845.859,7040.806,-1806.4875
-1677.4673,5447.5605,-360.3854
719.77203,1674.9458,-748.7122
781.9835,718.96515,-251.42659
1245.1965,110.49352,-136.54308
1062.8359,130.50562,51.85561
1824.0802,31.593376,-85.047874
1395.2319,-15.957323,174.3776
1347.8969,-194.03365,132.0182
349.27707,145.2789,142.61803
2006.6873,900.51404,-382.16547
-2388.4016,9622.484,-3290.4507
-3841.0212,5471.7217,-1779.1396
400.06946,129.06598,-529.7051
-1933.8046,857.2244,-686.1807
-1219.5522,-756.35004,-179.28339
-1546.1925,-353.99588,-256.95493
-1527.8126,-1528.0824,-372.35016
-1306.812,-1556.0928,-357.62524
-1650.0953,-618.18134,-87.29842
-1799.089,44.63413,-251.08934
-2026.542,2855.8691,-764.65045
-2884.4407,7687.284,-1982.4777
-37.269863,4371.485,-256.90253
658.8143,926.3193,-375.33
677.1525,662.6911,-390.478
1188.9788,-423.9468,-211.78621
981.87726,-239.21999,100.0621
1427.4718,-292.83807,280.17996
1451.784,174.71745,515.82513
1403.1688,-185.10875,507.77493
577.0631,340.53214,176.21861
1581.9685,181.6945,-325.1373
-1085.0234,8677.547,-3291.1802
-3906.2144,6345.706,-1989.902
258.40558,142.06126,-454.14185
-1316.8834,1046.9297,-647.1501
-1377.9476,-685.8592,-93.34001
-1110.4226,-357.43112,-203.39644
-1481.8798,-1446.3994,-529.4259
-1359.4548,-1623.6473,-453.01508
-1780.3206,-789.4463,87.769485
-2062.787,-615.1427,-405.74445
-3513.5706,2335.906,-1021.1339
-3978.2712,8487.26,-1394.1492
-527.0691,4520.8833,214.25131
513.4743,1398.8687,-235.78923
1077.3636,636.8347,-173.1502
1035.785,118.24578,-77.725
1306.0303,-445.48935,232.47925
1302.043,-159.92859,134.14287
1081.6404,-181.82962,302.2193
1001.28864,-67.887,52.30216
614.96405,-151.74751,204.52669
1889.6846,1773.7916,-620.7637
-2663.4434,9654.945,-3634.872
-2957.5583,4078.3516,-1105.3173
647.25366,219.94194,-427.6423
-1768.052,741.05524,-470.1357
-1021.21436,-844.3953,-131.67967
-1512.0167,-869.9682,-404.1737
-1284.9211,-1588.7009,-474.77612
-1666.7301,-1457.6735,-214.457
-2171.0242,-555.27344,-308.82974
-2450.2488,-891.0681,-714.8131
-4320.849,3559.2668,-2001.4646
-4358.6562,8550.45,-1976.1305
-784.36755,3279.7092,-406.32916
1204.1511,1680.2814,-871.6945
1921.6398,251.65263,192.59685
1447.2454,596.27496,363.89743
1683.1826,-239.3462,780.5799
1145.7876,617.9753,383.1159
1120.522,-346.69073,483.25043
613.0916,695.03174,-143.48036
744.2988,-573.7307,283.68576
468.31104,4889.23,-1865.7787
-4875.1895,10196.59,-3768.6323
-2054.8677,1615.1512,-1289.9763
-137.97284,426.20245,-728.36426
-1742.7644,-45.678883,-438.00787
-980.4317,-872.5112,-66.6545
-1866.5668,-1330.3533,-426.44733
-1272.1451,-2872.3975,-659.23346
-2823.24,-2073.2966,-252.77673
-2911.4739,-887.0833,-761.3873
-4525.1753,1669.4434,-1854.4834
-4706.9756,9334.795,-1778.3678
-1376.2494,5018.191,-1073.18
713.8475,1079.7245,-97.58604
633.8418,539.04816,-33.83416
1335.8617,23.484964,330.87027
1067.9896,80.685455,219.50862
1230.4043,-328.8617,512.7635
799.65704,9.675723,137.94751
992.9007,-207.2402,397.5148
271.60892,61.684536,-145.93353
1358.4078,17.607502,253.0728
-672.8014,5121.9116,-1013.24384
-5289.043,8642.284,-2377.1592
-667.0847,1861.6954,206.97862
-875.238,584.5977,-315.48987
-1068.7849,479.07114,-301.6218
-1515.7324,-676.6183,-196.92513
-1720.0215,-1528.9344,-803.4497
-1271.4296,-2658.8308,-1165.2765
-1836.6606,-2154.257,-381.65942
-1993.6936,-786.0373,-80.278465
-2799.723,1675.1682,-1099.0216
-4723.1465,8129.7334,-880.80084
-1678.5396,6395.56,114.31685
855.32556,1152.665,-319.22333
713.92334,1194.5745,-470.16837
963.26276,-185.70444,-104.24895
974.5669,-156.02074,-253.83173
1433.1467,-447.1064,-84.41154
1699.4459,65.62829,-105.57828
1297.287,-381.28937,548.32214
771.7328,387.3025,41.349625
1385.388,-330.57056,419.2734
529.6738,5639.2935,-1938.5857
-3777.1514,9048.853,-2944.1929
-995.5706,1323.2794,-165.39052
-254.2136,836.80457,-1176.9332
-1697.1171,32.28523,-391.64636
-1499.5427,-981.81915,-566.97284
-1928.2703,-1339.3226,-670.0217
-1328.2377,-1883.241,-921.80615
-2075.077,-687.67053,-59.446823
-1908.975,-733.96063,-427.86432
-3721.1182,4201.021,-878.39343
-3704.8904,8706.421,-600.2658
276.97708,3396.216,-27.369074
1095.478,662.92535,-562.0757
800.395,387.78867,270.42404
1151.7103,-310.98056,-35.9926
839.1757,-285.72797,265.15457
1693.6732,-505.63745,114.01018
1128.6115,-200.23427,519.2471
1101.5222,-139.1387,188.14864
395.19324,252.0631,691.1454
2039.2291,1322.5497,-311.45422
-1988.5228,10278.6045,-3591.2954
-3370.8323,4726.4644,-1420.7382
346.40268,174.58478,-555.3394
-2062.975,1025.9744,-518.92535
-1716.9543,-970.9427,-183.865
-1846.6663,-1238.4319,-686.28314
-1016.7708,-2287.4531,-916.27875
-1869.6826,-1344.739,-162.42506
-2067.0525,-679.785,-177.55846
-2776.7239,517.0106,-672.6307
-4531.939,7144.774,-766.43884
-2381.1921,6962.14,309.19052
925.10815,1872.3796,-314.02158
1117.5935,1205.4716,-408.74417
1120.9569,-166.60858,208.20618
962.69385,151.13196,2.2500236
1393.9873,-345.8916,161.43217
1448.3442,100.05467,66.1379
1302.0011,-473.63345,270.85526
617.7547,387.357,-259.83896
1737.2179,-52.8481,162.24643
-1151.1373,8527.101,-1849.8677
-3747.0967,6578.063,-1578.9231
311.14917,453.6628,-35.444386
-1077.4755,1102.8486,-670.03406
-1253.9838,-442.92288,-164.27132
-1494.7428,-1070.2838,-449.25964
-1417.6046,-1685.7465,-746.5691
-1570.1167,-1532.4686,-451.5453
-1999.1267,-795.5791,-256.5434
-2070.5933,-777.9416,-584.49023
-3890.6616,3600.3694,-1198.7357
-3950.5422,7759.3555,-603.30023
-794.1673,3831.218,239.99751
934.87177,1363.1285,-632.8325
1257.7775,490.6487,35.625706
1484.165,169.16238,171.56183
1299.627,-241.50964,506.65
1334.6183,123.0129,290.39777
1155.1498,-131.678,431.62762
778.7822,95.80016,135.78352
729.10913,-53.07993,332.99658
952.79706,2827.8804,-24.31386
-2593.9185,9419.62,-1942.399
-2435.9036,4046.886,-711.1337
-440.6391,681.63574,-319.3008
-1539.495,1025.2415,-244.42255
-918.51685,-514.4114,-283.4928
-1788.0186,-276.98102,-1006.4008
-1861.9036,-2014.5789,-1245.0266
-1650.5282,-948.0991,-757.4612
-1390.2719,-497.68762,-136.15816
-1394.9783,-283.8969,-232.46115
-2749.724,2632.5767,-79.539215
-3799.9026,7785.9253,15.046728
-609.6225,4515.1694,392.42337
465.66016,1165.0209,238.06813
1252.6774,584.6962,-19.237911
886.38403,116.11103,48.919876
1364.7366,-450.24988,182.86523
1227.9617,47.683403,133.917
1337.8674,-248.279,366.17947
675.7488,317.4003,192.34969
1188.0697,-352.73767,153.2344
269.88446,6036.162,-1473.9669
-2802.0886,9060.095,-1694.2622
-615.9634,971.70746,-408.96548
-541.3524,1202.061,-752.8096
-1250.1785,-416.43594,-621.65564
-928.776,-376.36206,-1038.7759
-1983.3069,-1130.9843,-1160.1456
-1744.1509,-1205.1772,-1027.6267
-1785.9581,-889.44666,-338.2279
-1882.1703,233.27287,-213.59976
-2604.3967,290.50192,-48.769394
-4586.3267,5953.28,147.87668
-2458.1287,7002.776,338.54303
502.19925,1625.0815,227.61969
893.6429,1003.70514,-143.24327
1445.7931,244.63545,72.18286
1215.7839,115.566216,-271.6719
1893.8129,-131.62837,-231.75392
1440.0573,346.36322,-54.019085
1198.787,142.95815,182.89937
418.11752,180.72731,-94.43698
1227.4382,1846.348,-732.43994
-2422.587,8581.827,-2275.7605
-2316.8433,4866.5615,-783.73126
-441.8198,1317.2802,-785.128
-1245.2976,851.0909,-530.13617
-1361.4961,-253.84756,-256.8116
-1302.9438,-111.21693,-375.71915
-2268.9436,-410.4348,-520.2809
-1685.9133,-1448.388,-698.1875
-1638.5586,-709.35754,-314.714
-1503.5273,-387.44534,-37.12763
-1831.8853,1217.0784,-99.98444
-2729.0542,4835.051,-364.09103
-1628.918,6495.413,-379.90106
374.58435,2328.8281,240.58154
416.02124,820.9074,-287.22006
1072.2,362.56113,-208.27092
1005.21436,-198.18375,-255.29301
1558.9435,42.4335,2.7923577
1338.7422,-130.3742,2.142874
1232.0322,-131.43924,129.9144
644.9552,-120.715614,-170.39098
1553.9448,1983.2391,-318.13586
-1752.9723,7556.8174,-2027.5902
-2085.2476,4518.2744,-348.46988
-1.5749364,792.9726,-280.2967
-789.80444,824.3115,-348.6254
-971.9644,-77.50561,-220.04509
-1333.012,-348.11658,-158.48778
-1649.7731,-899.00287,-544.4079
-1396.5009,-931.871,-223.10143
-1336.197,-339.86444,-87.11674
-1174.7162,-502.34216,-114.91714
-1694.3451,448.949,-635.36584
-2929.6409,4787.7036,-319.10956
-2281.7896,5932.685,450.2196
134.52228,2057.3618,363.69553
608.7288,1093.4976,-363.89474
1231.2981,614.0796,-230.3641
1075.0541,108.04543,-34.234447
1755.2524,-33.31478,315.5929
1321.2302,87.14906,183.4753
1212.9221,99.47931,372.90033
564.2398,-26.630219,-75.20624
1646.9633,1615.2632,-225.85814
-2458.4497,8095.209,-2885.1003
-2734.381,5104.7593,-1056.8087
-284.07422,778.87616,-109.59345
-867.1945,1221.038,-480.96048
-1234.1714,192.68005,-225.34218
-1465.2689,-605.5466,-273.79697
-1907.1475,-1034.5673,-898.4491
-1659.7362,-2041.9692,-1357.6954
-1601.1952,-1257.0154,-399.10715
-1986.6641,-933.3178,70.279594
-3018.257,1980.9922,-515.0124
-4208.628,6612.9976,-942.56085
-2537.5894,5340.8955,-619.0241
320.49536,2683.0408,107.40295
723.0756,770.2207,-629.47784
1431.2478,685.7366,137.41075
1380.0221,-137.48502,170.95317
1688.3416,-102.04648,572.08594
1129.8864,-165.45128,317.20288
998.44403,287.7866,625.0785
371.7427,-89.580864,-68.4758
1691.0758,2068.099,-595.33093
-3121.299,9004.941,-3904.4949
-2521.898,4272.7715,-1748.0618
-247.02422,509.34708,-239.51132
-1562.883,636.8539,-524.6893
-1325.3755,-396.94003,220.6524
-1273.6447,-1284.4194,-213.31526
-1232.0542,-1100.3848,-474.86642
-1149.2917,-1163.5835,-550.52826
-1535.765,-627.73096,-416.4133
-1635.081,-435.80344,-984.2779
-2248.9531,301.9998,-1081.2451
-4442.028,6061.739,-2757.565
-2242.9834,6715.216,-1371.8514
60.720516,2322.8723,403.97797
634.4748,1358.2214,-638.1165
1623.8628,359.97705,130.69951
1483.0417,-101.88863,-19.279467
1845.7496,-315.21426,448.40952
1477.0789,46.139057,153.6204
1685.5591,-198.96475,616.3274
528.3849,210.55855,-70.45522
2035.7876,259.4265,-70.78214
-1273.6217,8276.478,-4875.272
-4895.2915,7085.0327,-2515.0076
0.5241658,613.2273,-299.09448
-1745.7656,1221.2847,-961.6642
-1655.6499,-331.97357,-222.52466
-1737.7131,-946.72614,-269.49615
-1234.881,-1436.525,-409.3723
-1414.9756,-1518.1415,-551.91516
-1430.6133,-869.3579,-24.020168
-1644.0144,-626.38434,-574.7299
-2270.8054,1889.3542,-448.43884
-3722.8572,6287.9106,-1870.5559
-2507.5527,6540.16,-830.0318
431.78873,2661.5847,-8.729879
1342.8046,546.7398,-718.4559
1151.6464,497.74106,-176.87575
1347.0237,-215.83801,-289.39603
1461.6316,-626.74255,381.63815
1172.8284,-160.90187,185.9517
566.0581,-125.24517,705.35443
621.7796,-149.21149,-337.98358
1770.4849,58.37402,445.2915
-465.9031,6021.044,-2461.953
-3859.7214,7210.6367,-2462.5906
381.00497,809.8188,526.7531
-520.4216,827.8101,-519.2267
-1019.9504,434.84317,98.38648
-1473.1946,-805.4927,-316.82022
-1068.1688,-1708.1063,-631.2529
-1422.5325,-993.18634,-586.3563
-1796.9949,-467.208,129.74753
-1580.2184,-718.5462,-195.37067
-2333.292,1162.1807,-539.7053
-4071.9622,6763.5317,-887.58484
-1930.2249,6417.8115,88.03657
997.55524,1854.3402,-207.99957
913.3339,384.75708,-240.7905
841.70703,184.59622,66.31029
1221.6451,-453.61124,-28.79191
1224.1719,-438.35443,194.63588
1572.0219,-256.23593,108.23066
900.5423,-249.23853,517.9337
749.092,-15.225634,-114.85224
1289.288,-233.92067,470.90878
1631.9905,4329.3984,-1088.9541
-2879.4624,9065.586,-3032.4531
-851.07654,2799.9192,-379.2134
119.91412,723.0159,-947.9485
-1312.626,40.009727,-362.31418
-960.3408,-524.62854,-367.73764
-1406.7711,-891.8775,-715.60876
-1452.2955,-1448.2238,-1314.6514
-1545.7751,-526.5862,-749.57275
-2013.6871,-435.0628,178.15303
-2382.479,2241.7122,-568.11707
-3042.5894,6415.4395,-661.6284
-1567.7847,6001.4673,623.5614
950.1732,2066.0542,-83.26072
928.9378,1203.2506,-85.39261
1243.1665,464.482,-150.05707
885.0265,-159.25931,15.890493
1135.5126,-151.58694,-43.444195
1327.2727,-137.00262,-33.440018
1193.1215,-167.5772,308.89676
590.85455,103.11698,19.771124
1489.565,352.88953,427.56006
-576.8091,5535.2124,-601.6396
-3510.0764,8776.227,-1996.064
-751.5041,1310.7301,519.8836
-615.075,734.24646,-558.67676
-1069.7661,257.94128,-294.46375
-1508.7917,-1052.2024,-575.5713
-1563.7594,-1200.251,-838.1819
-1110.6824,-1331.4385,-869.68964
-1584.7007,-1221.1947,-125.31011
-1756.1797,-607.87354,-266.51862
-2759.7783,800.26746,-998.92194
-4402.358,7324.8774,-1032.7686
-1531.6196,6256.585,210.5978
333.33267,1477.7804,-182.51334
1142.64,1095.9227,-453.4184
1209.6102,89.704605,-114.060295
1094.164,-159.6517,94.89363
1402.1573,-339.37796,261.22662
1247.548,187.70638,284.0986
982.3016,-301.11526,517.86523
531.2916,175.83702,-92.764694
1506.8384,1.9892544,348.69263
-385.57468,6733.1147,-2517.459
-3858.4165,8100.1294,-2719.8887
-256.2305,887.84314,249.28929
-642.074,1113.1793,-1107.323
-1528.0392,-386.36383,-315.5269
-1309.6964,-1353.4034,-555.27106
-1513.4868,-1622.2305,-636.17975
-1482.8016,-1942.5707,-728.8796
-1891.5533,-1160.0115,21.956533
-2450.5305,-321.0588,-528.6839
-3901.3696,2759.6868,-1350.3856
-4961.1045,7927.011,-1159.0317
-817.2642,4631.7603,-76.76425
948.06586,1017.5566,-582.09686
776.32776,835.9535,-35.82694
1050.8827,-52.103306,-183.01225
1066.6411,-197.73729,209.91867
1301.8085,-424.48087,68.47398
1100.3499,-56.89735,236.98576
1195.1489,-364.10245,219.0954
557.61676,351.4101,205.3931
1496.8721,352.14157,186.99844
-2648.81,8030.6724,-2930.2485
-3857.4133,5987.059,-1981.3778
870.0617,107.76774,-131.73613
-1275.9746,945.4846,-680.458
-997.3641,-483.7498,282.3924
-1233.6553,-917.83124,-230.99487
-1107.6561,-1980.6112,-894.3389
-1757.8082,-1952.1678,-802.5989
-2217.6472,-1149.3516,9.798261
-2549.2295,-617.7107,-628.8216
-4518.291,3883.1204,-1913.4976
-4414.0874,8262.588,-1008.0805
-375.1017,3318.203,154.11758
673.342,1212.3253,-644.01965
1093.2145,537.65204,-12.247996
794.81287,136.09877,-219.6829
1264.5338,-468.05722,270.66693
1497.9895,-81.189224,-34.502094
1427.215,-136.0287,506.21475
1046.6016,153.70242,289.5101
1209.3336,112.56994,257.47195
1038.301,1891.8611,-125.60119
-1735.9175,9321.359,-2874.7007
-2943.001,5046.6475,-1549.1707
-265.44632,12.213026,-506.42038
-1432.3646,1171.0516,-1031.3378
-1133.1162,-895.57446,-28.80963
-1673.0945,-166.9716,-691.4962
-1957.0188,-2387.99,-1151.4725
-1836.4385,-1678.3691,-1660.3992
-2550.7222,-1113.1093,336.922
-3117.3564,984.6014,-1229.2416
-4234.0913,6853.9175,-1633.5737
-2577.949,7423.573,326.88654
784.00366,1603.0641,-111.592766
506.5725,1377.8308,-372.27335
988.0205,-42.308414,130.98337
859.4629,-20.06815,-259.49954
1898.5864,-517.9351,259.41888
1576.0293,398.81516,43.72601
1428.533,-540.5061,936.7888
667.85675,589.3344,-169.95717
1616.7466,-377.38965,689.0477
-584.2346,6495.301,-1860.6252
-4056.1829,8364.518,-2294.7578
-469.33032,652.7024,99.046745
-356.1627,1161.611,-642.34863
-1497.76,-62.19388,-173.39626
-1241.4554,-627.4453,-158.26492
-1919.0541,-970.6981,-633.3968
-1189.9227,-2134.292,-521.55646
-2000.1334,-1870.4159,-502.3494
-2049.132,-1563.2635,-163.35587
-3498.848,2592.8372,-1939.1211
-4189.545,8143.657,-1533.6686
-1799.12,4871.374,-24.737215
686.64984,1452.8853,-585.0799
430.8982,870.92786,-239.14864
1260.1757,-264.0691,-14.564143
1152.9484,-91.83473,17.764019
1929.361,-106.77339,306.53366
1340.8833,291.55875,592.7212
1294.9557,-113.405266,750.4586
389.87012,305.62955,-14.172
1652.7295,117.45911,454.16272
-1924.0487,7893.949,-2089.5452
-4297.344,6758.9795,-1617.1898
309.5287,625.73926,-277.45987
-1067.3975,769.7008,-529.33563
-670.12634,-479.87103,-114.0179
-1345.5493,-804.76996,-697.1805
-1637.708,-1846.876,-831.4968
-1395.4108,-2278.064,-701.8938
-1991.3036,-1106.0331,-309.0638
-1728.3925,-369.70474,-478.3324
-3517.4255,3825.1687,-720.50287
-3398.5967,7460.568,-410.44565
-384.13193,3211.0378,221.73369
275.02554,1213.0355,145.71877
539.4634,361.579,410.9782
1004.5821,325.10132,286.94672
892.0458,240.86003,516.7361
1352.931,-1.5055494,375.4099
1357.1018,-115.75016,272.21924
1439.6417,-124.24997,105.233505
745.0542,235.3827,148.21718
1623.4265,2425.384,-108.82753
-3130.8713,10304.191,-2310.901
-3237.8196,3203.9944,-488.13068
-483.36066,725.324,50.239628
-2046.5887,825.85614,-327.44235
-1457.2528,-783.4284,-247.3298
-1558.7078,-2102.8594,-981.9056
-1272.6461,-2193.1387,-653.3607
-1920.654,-1266.726,233.10197
-1669.9675,6.6356864,-223.63203
-2235.7441,208.04703,-735.6612
-5236.623,7019.8237,-516.3708
-2449.3638,6013.085,186.85127
650.0283,1129.8439,288.43353
697.3561,1206.4008,-172.75491
1642.1151,130.1672,224.92586
1427.9199,212.71994,488.7909
1885.815,-370.44434,563.5722
1199.8048,28.205107,250.6921
1041.6582,-62.42935,269.26126
475.90665,8.440946,-74.15065
1244.8242,2429.7483,-278.56757
-3112.0723,9096.227,-3109.346
-2621.3848,3916.0107,-1184.9971
-501.20108,1229.6102,-299.92752
-1621.5476,575.00775,-603.41766
-1421.6848,336.27634,-294.96945
-2193.4265,-542.67883,-531.35803
-2074.0977,-1545.951,-733.00256
-1473.3461,-1289.1,-465.10547
-1415.9264,-7.811339,212.27522
-1102.0503,-1008.74725,-80.79465
-1635.0455,2173.7502,-571.474
-2512.2202,6492.6006,-1001.5029
-1094.334,5108.9214,-163.23721
531.5199,2151.0134,-524.43756
703.2276,907.9415,-662.2099
1283.2549,315.5692,-222.80423
1620.5195,66.525024,24.309948
1359.3615,-376.53973,340.12573
1015.19073,-103.93654,277.97635
1121.5864,-308.7054,247.4724
894.38617,81.86902,-178.58902
1940.1768,219.85313,143.51732
283.70865,6943.6196,-2577.0403
-2331.9038,6786.699,-2754.3772
534.1792,1095.7585,-583.60406
-908.9063,1124.5537,-1100.0784
-1797.444,-462.35458,-124.66999
-1229.423,-1383.9222,-1217.7178
-1470.1023,-2009.4089,-1130.1292
-1771.5474,-151.31192,-365.52512
-1476.5813,-234.19794,699.8046
-1441.6334,13.246158,283.26892
-2276.1968,1317.451,280.27448
-4559.3467,5671.1646,913.0021
-2102.4016,5390.27,605.06976
1047.041,2175.1282,0.2028643
780.746,371.8337,374.87207
1221.8236,222.69695,47.31982
1567.636,-269.26645,372.93857
1675.0162,82.53793,79.85715
1066.5015,-153.41083,532.3925
687.73914,241.52739,56.47125
1085.25,205.78488,30.262995
716.662,6157.6045,-3246.4065
-3421.5645,7681.1514,-3239.6614
-1005.0368,1162.0958,-1339.592
-784.5197,783.39435,-758.3975
-1245.3118,-80.54971,-356.30298
-1293.991,-250.79497,-341.34384
-1778.0426,-858.6277,-764.8965
-1366.4462,-1504.9023,-745.8153
-1928.2692,-1575.5143,-434.4977
-2260.4932,-107.802216,-202.35129
-2456.4097,-380.29245,-652.8139
-5204.7383,4520.7085,-1047.427
-3769.6301,7434.2944,-591.65784
-380.6157,2585.8987,392.00455
604.3001,1239.4877,-504.9242
1324.3757,684.6279,-217.65417
1413.1415,96.392685,-93.137474
1654.4276,46.439434,482.61655
1556.4918,354.10388,227.58769
1198.7103,178.06993,503.68417
939.8552,266.64618,-205.76985
831.3788,181.92386,149.24211
609.9146,1543.2446,-2113.4497
-6195.1855,8145.957,-5501.1875
-2731.2048,2703.9812,-857.88586
-737.211,1092.3654,-670.38354
-929.40216,893.1693,-1175.7777
-1374.809,-616.0799,-751.1296
-2172.5237,-1512.8928,-585.66833
-1367.3315,-2918.3823,-822.8045
-1548.4615,-2097.5518,-370.38977
-1755.7969,-1010.277,40.082855
-1849.0602,980.422,-669.0205
-3835.8215,5727.494,-1392.515
-2300.8743,6446.0347,-544.1813
129.5936,1894.5549,220.98622
207.76971,1624.1708,-386.83194
997.7242,301.6871,4.905929
1116.1919,178.26558,-15.913021
1476.6719,-332.5414,553.4894
1211.3488,211.25308,259.98392
1393.4598,-121.06302,782.6618
828.0505,470.8721,152.52495
1033.934,-96.48265,568.03235
253.58015,4625.901,-2999.5186
-3674.8464,8181.471,-3733.5852
-2018.2806,2423.4446,-1082.5681
-1033.906,1014.4214,-1709.2716
-2064.3079,-145.82875,-588.5293
-1626.682,-1301.3267,-484.78452
-1511.8124,-1699.0144,-462.9274
-1262.2662,-1921.9767,-646.3267
-1927.7745,-1531.0887,-128.41472
-1924.1677,-576.4042,-12.1994295
-3104.04,732.2949,-865.3624
-5271.8325,6020.3564,-1309.4281
-3104.9058,6098.6216,221.67606
44.212368,2231.527,-71.06037
471.89154,1585.01,-353.6489
1287.6188,589.779,-204.22511
1483.6763,384.96185,418.80072
2074.444,260.246,545.2944
1487.9634,479.61087,615.53644
1382.7249,358.4827,248.25266
942.0303,671.8725,-28.666933
1091.185,2927.2168,-1390.2358
-1879.1576,8642.441,-3125.4456
-3401.6777,4193.681,-2031.5211
-1697.5286,1140.0336,-1340.6426
-1687.41,538.249,-917.99725
-1247.7411,-623.4833,-354.6812
-818.29224,-677.83655,-170.71547
-1136.6099,-1366.7706,-471.26917
-972.7194,-1352.7019,-497.6136
-1368.5325,-682.5236,-84.07601
-1550.5984,-315.12122,128.56526
-1492.386,366.81638,-68.91085
-3886.536,3657.9707,-1137.4026
-3889.461,6617.108,-126.75306
-117.768875,2230.0938,510.43613
608.0771,1256.6033,-303.46143
1495.1882,794.124,-231.82613
1193.7535,596.1159,421.98322
1670.5991,137.83203,665.4843
1345.3982,427.34677,298.8985
1403.6954,154.42859,293.7756
498.44815,610.5551,-23.86873
1300.4237,1568.5656,19.627863
-2231.378,9590.3,-2687.5847
-3584.199,5713.288,-1629.3317
-1079.0157,732.6881,-668.7986
-1762.3519,1116.8035,-603.09644
-1713.7649,-292.9176,-310.7487
-1642.213,-891.27545,-417.8617
-1738.4506,-2117.02,-873.0954
-1744.6276,-2184.9902,-389.2495
-2631.2937,-906.1767,34.677208
-1969.3145,42.957863,-268.81998
-3415.6108,1691.0094,-1139.0093
-4410.206,7127.322,-596.84265
-1630.016,4226.7554,229.28752
296.18594,1692.9642,58.167904
761.8716,1285.4827,-212.96634
1297.0992,692.40265,2.1701386
1479.7931,705.32556,351.0092
1562.3893,339.6365,363.6916
1085.9545,290.91714,285.7068
886.396,89.772125,152.4626
371.35406,165.13228,-57.211357
1144.099,1119.0557,-650.36426
-2221.812,9285.452,-3102.8872
-3876.913,5057.227,-1968.4625
-141.33104,730.9958,-781.3984
-1516.8676,921.6917,-664.46936
-1079.9637,-413.1294,-319.48965
-1309.6842,-469.5477,-135.60898
-1389.3651,-1037.8861,-771.45544
-1526.0177,-1552.9655,-880.77563
-1741.4176,-1177.7177,-286.62527
-1736.749,-484.55612,101.17133
-1967.4558,386.49695,-711.82874
-3970.3623,6126.8623,-1333.7842
-2434.968,7146.1914,-257.29633
398.41266,2183.059,-214.02104
780.00146,1180.0518,-189.89502
903.78534,165.84277,136.39072
1043.291,40.800426,179.80013
1433.4945,-331.00458,319.92133
1319.3341,174.41379,166.17192
1149.08,-466.27484,388.7481
599.72327,331.64755,-132.87143
1306.2417,-475.33096,209.16936
203.0031,6673.6377,-1707.7272
-4074.2297,8533.265,-1957.7546
-399.4579,512.0383,-129.41849
-634.20483,987.2896,-439.3723
-1324.1772,-498.3837,-226.77579
-883.56885,-789.5751,-394.87634
-1441.3999,-1531.8926,-633.7779
-1248.9243,-1445.5579,-392.65924
-2062.0718,-1191.3219,26.262842
-2909.8367,-386.02576,-76.01048
-3183.6162,410.7517,-797.5753
-4843.3823,6711.937,-1002.75757
-2626.3687,5863.1157,459.17252
200.4487,1586.9835,-20.796892
633.57935,1120.962,-413.9759
1150.9673,-29.682156,-160.92072
1381.1187,-2.0322368,117.924736
1912.6151,-64.27026,339.32635
1285.7737,405.9038,427.77005
1313.0759,-186.14987,366.85394
365.40274,276.72336,-97.892456
1573.4604,547.10925,-69.475204
-2027.3684,9255.411,-2229.9749
-3704.5835,6560.4214,-1657.4508
-266.74765,118.82335,-344.02945
-1301.461,667.7498,-691.48474
-1002.9022,-818.833,-332.04474
-1232.4109,-541.2726,-296.25424
-1224.9674,-1463.3435,-626.3536
-1256.4517,-1551.1791,-962.5409
-1770.6848,-959.37976,-478.04803
-1908.3585,-154.1327,-213.47076
-3090.444,1474.6785,-1467.7036
-4629.039,8366.223,-1298.3999
-1168.0404,5212.6694,544.5729
565.53186,1464.3389,-189.12964
673.2293,663.1219,-110.49754
1155.777,-540.4083,-20.327238
1052.6041,97.52735,151.75352
1543.9824,-22.970966,102.25703
1081.9762,-289.5711,128.77933
1283.1143,-300.9607,57.711
723.8204,-155.63899,-104.26936
2011.5715,1358.6996,-288.61093
-3224.3193,10128.554,-3209.9758
-2634.5115,4746.952,-1039.7794
117.60698,166.9484,-175.53925
-1734.9413,983.3722,-446.54434
-1253.1987,-656.55994,-128.52423
-1503.3542,-1373.1042,-642.79016
-769.2909,-1486.7906,-609.92236
-1444.0365,-1037.8606,-331.6863
-1555.9232,-523.43726,-168.02011
-1881.4623,-375.80258,-695.201
-3026.8967,3178.3333,-792.8842
-3869.7969,7348.269,-417.86975
-1146.7216,4704.7285,-21.2586
1291.4135,1512.8044,-514.04584
806.7819,703.1914,-462.1241
1256.0094,-44.52995,-98.404305
1577.051,-291.19693,-165.07358
1796.6277,43.542698,201.80646
1037.144,-246.31726,100.51676
1044.6735,-26.88585,184.92618
664.20624,-92.645294,-503.16287
2148.8843,1175.4806,358.02148
-3200.1265,9585.117,-1585.138
-3511.3137,5846.8916,-847.566
58.226128,365.27463,870.6423
-1831.3728,1479.1638,-733.0758
-1119.9419,-671.1411,-275.8053
-2132.2493,-1039.6593,-1207.163
-1648.2906,-1312.068,-1013.0641
-2063.179,-1066.7021,-341.8694
-1508.644,-937.76074,537.41864
-1807.3408,329.65555,-280.25543
-2826.3855,1252.9669,886.57043
-5454.0957,6338.5063,2833.4797
-1160.8794,4953.3706,1403.181
1042.5875,1113.2961,-106.12536
1353.0544,469.4578,-199.18925
1132.5499,325.63443,-262.647
1271.2831,191.86517,213.63284
1292.507,-21.849655,-56.688217
1508.2186,-287.4282,576.72107
1003.22614,247.70476,313.46686
1408.8511,-421.42648,600.349
321.18555,3703.2188,415.85675
-3355.7068,11283.277,-995.13654
-1603.1118,1294.0027,271.89618
-669.1873,514.31055,-383.9905
-1277.3364,177.25949,-39.149433
-1164.1902,-456.77615,-282.5139
-1405.0812,-824.83563,-691.4405
-1270.5468,-1525.4371,-735.0959
-1296.7039,-1628.3024,-234.51498
-1908.7505,-861.08905,-44.5178
-2504.941,-176.10612,-223.10968
-4538.029,5770.576,-1021.3507
-2607.0198,7879.041,444.8964
-66.74116,1694.1224,574.2359
257.49557,1409.65,-496.54373
1316.6122,646.1256,-640.47705
948.19135,245.62524,-431.61417
1485.3457,-186.3275,-310.93643
1655.2579,205.67082,-271.0952
1481.5172,-124.56725,141.16412
704.17584,37.16957,16.953812
1174.4491,-134.93382,78.75603
1433.193,3626.2012,-566.22626
-2567.3357,9013.046,-2092.61
-1550.4202,2922.8662,-195.99413
208.13216,302.41577,-521.46857
-1528.4918,515.51184,-506.54242
-1010.1143,-1024.2991,-552.1689
-1860.2667,-1134.3335,-686.3019
-1416.2251,-1317.862,-638.2175
-2096.859,-767.6946,-357.1379
-1630.0917,-698.04425,-460.69772
-3486.206,636.58704,-911.67267
-5007.2393,6477.583,-1722.9469
-2655.739,6248.47,-795.79144
317.982,1690.8707,-134.18341
1012.3805,1271.8506,-219.58417
1433.7367,195.73116,137.14664
1194.8412,697.27716,272.02115
1872.6713,-52.907413,332.19104
1471.6835,236.65543,200.6189
1200.3467,-209.74438,305.57193
335.2717,635.9397,112.5303
1555.0494,89.26986,-100.8488
-971.3825,8747.477,-2447.379
-3768.6187,7159.924,-2099.6309
-826.85345,-34.529877,-758.3809
-1426.9789,751.50116,-309.56873
-1438.1235,-618.90796,-229.13971
-1378.2756,-589.24384,-348.1785
-1489.4706,-1837.9794,-641.52155
-1302.5126,-1760.7511,-389.3533
-2208.743,-752.765,-194.97392
-2512.8997,-455.64026,-626.244
-3938.2964,2946.5786,-1822.3832
-4249.1235,8080.3843,-505.33997
-871.5043,4096.14,-300.84888
959.9315,1624.7114,-701.9839
1120.8838,563.8808,-24.486767
1225.1238,258.6874,-92.02481
1252.8268,217.09712,50.21835
1834.8746,295.46304,49.77348
1368.0739,12.566735,402.9204
991.6858,401.8971,227.61855
525.4293,-223.45215,49.40051
1354.4176,3185.5107,-1017.1192
-2259.1858,9618.66,-2592.1733
-2231.198,3010.2444,-1205.8184
-244.16226,525.236,-599.8089
-1355.5663,149.60793,-538.24243
-1066.7397,-451.96777,-143.26479
-1503.7565,-877.2996,-579.4082
-1293.6641,-1474.37,-829.86816
-1632.59,-1024.2211,-437.99387
-2093.529,-133.00714,-30.10921
-1780.7755,-378.25955,-435.58218
-3586.9646,3886.7324,-1043.9639
-2948.87,8038.819,-295.13107
49.08266,3142.3965,152.17677
689.7349,1224.9211,-358.0749
1145.0527,388.36453,114.88332
965.9863,30.706285,150.27707
909.83417,-113.54208,380.0386
1199.7429,93.0426,112.17091
1299.4879,-136.1493,291.53262
1210.6946,15.550451,3.1403525
747.3305,54.10632,340.9843
1772.1111,2213.0503,-1238.8031
-3016.3274,10259.339,-3975.7117
-2637.0786,3459.7917,-1852.4215
205.53284,89.58711,-703.2633
-2108.1836,35.33356,-457.64465
-1144.7952,-576.1657,23.149965
-1587.8405,-1224.4395,-533.9277
-856.0416,-3006.4146,-1027.9286
-2114.5195,-1732.625,-337.77832
-2279.87,-583.2989,-614.22076
-3404.0608,417.21335,-1258.9242
-6205.4497,8103.4434,-1052.2197
-2231.565,6605.2866,-332.4057
376.79294,1031.0381,-366.7304
695.29126,1017.8806,-204.95717
1202.5216,-164.51787,-20.083017
1027.0698,596.86615,-48.263245
1483.9231,-469.7719,-128.28033
1891.1345,162.28004,-73.95563
1490.4447,-420.12195,212.16782
829.8768,831.21515,-47.446037
1129.1965,-691.9214,-42.747337
483.75998,6426.0425,-1687.2552
-3521.8774,9925.469,-2751.0183
-1858.2354,1294.4811,-1207.5023
-1163.6039,789.5616,-680.8621
-1856.564,-416.8784,-610.6265
-1439.799,-1080.2052,-222.29803
-1636.3875,-1826.7249,-606.8876
-1220.4762,-1940.2224,-290.70367
-2425.8438,-379.2707,-264.38672
-2052.504,-608.6543,-480.11075
-3621.963,1721.2065,-1210.0177
-4606.8833,7143.252,-1260.8893
-1854.9307,5228.445,-31.135544
319.19653,1852.403,-414.46442
1125.866,1011.0915,-490.1051
1256.2711,281.1911,62.481045
1153.3169,452.09216,240.62885
1858.0371,54.50052,268.24493
1607.3926,144.18092,142.3969
1176.9937,-177.23442,238.33792
828.8471,367.73325,-277.5662
1959.9406,-529.3616,-253.8014
388.01395,7366.2407,-3037.4011
-4078.3403,9666.796,-3028.9094
-1848.2592,1684.1392,-1049.4384
-2814.5625,1068.592,-918.74677
-2016.292,-1199.6719,-447.63718
-1894.2773,-777.50104,-683.06793
-2013.3501,-1770.1141,-427.50357
-987.67365,-1292.7739,-313.95712
-1931.5558,-1004.6999,-469.38333
-1762.7557,-253.14978,-474.1222
-3845.0168,3921.3425,-1162.1986
-3275.604,10333.706,-1420.8527
795.15466,3171.9192,-289.0363
928.33093,1332.6989,-546.14197
1494.2207,-48.476387,45.245407
1173.2675,213.53143,-152.54787
1495.8939,-351.018,128.02498
1473.995,83.69191,40.77522
1354.8198,-549.5859,411.56396
902.1365,236.37108,-22.112757
1009.3366,-309.8891,146.86775
977.39716,6680.7324,-1688.5023
-1993.7316,8027.8413,-1775.1165
-1237.3856,1444.5496,-594.71783
-805.16785,643.0397,-304.20624
-910.25073,-491.70395,-404.90976
-900.6826,-422.74557,-537.1008
-1533.9232,-1016.5574,-716.6473
-1407.2855,-930.2785,-491.0867
-1568.2834,-406.24106,-319.61307
-1627.7206,-227.3077,-339.13257
-2041.8896,437.9062,-427.50903
-3891.1755,5322.859,14.9318495
-2201.2979,6542.4595,144.19775
292.82193,2452.7864,242.2519
902.89935,1176.8735,-258.58524
1496.6056,385.4776,212.16287
1401.6882,-51.38731,283.155
1782.7666,-92.6354,489.24405
1265.578,176.5744,331.24664
1134.4995,-56.652416,505.27243
502.5958,258.11514,-35.501366
1520.4186,2493.9607,-165.32468
-1390.7018,8998.589,-2811.9075
-3054.8848,5193.8364,-1253.6163
-653.04755,491.05682,-576.31995
-1280.9315,724.3853,-737.2415
-1131.4756,-538.3316,-439.49277
-1525.4352,-632.597,-358.01724
-1420.9927,-1663.6854,-874.1038
-1722.5017,-1327.0193,-754.4922
-2520.1343,-693.3783,-442.90732
-2322.9656,-81.15557,-160.9309
-3535.8872,2847.3145,-1197.1735
-3862.474,7868.79,-576.90845
-1002.85596,4967.229,234.47798
859.4598,1319.8094,-586.6981
1107.4954,801.6469,-367.81494
1222.1324,14.283721,-153.03325
1468.7344,-315.83145,50.76223
1487.5773,-26.539164,149.60048
1091.0995,-151.67659,274.23352
815.1596,-22.609482,177.9942
876.7808,-251.19911,-67.56758
1834.9438,2004.7255,-91.8817
-2904.5906,10181.084,-3557.4119
-2509.4402,4091.8088,-775.78345
479.94095,-43.10161,-630.812
-1783.228,576.4747,-787.40283
-1717.3833,-1064.5424,-253.73978
-1926.5411,-1233.0353,-612.3289
-1451.0454,-1659.3846,-609.1316
-1742.7925,-955.2766,-19.100338
-2066.2283,-694.05115,-455.08508
-3020.9946,140.17523,-655.09674
-4510.892,5908.4053,-1584.4874
-3508.3694,6845.6665,-425.19357
39.964653,2685.4436,-179.65201
1419.962,1385.0553,-1200.4609
1584.5865,200.14893,-93.71371
1291.3829,166.52577,-20.25801
1894.7871,-490.77383,432.62048
1134.8937,564.5434,399.40643
1058.5403,-256.78998,558.53326
360.02377,73.454185,-111.48955
1745.5817,583.113,110.78195
-1635.4122,9196.166,-2892.102
-3745.068,5817.914,-1562.8073
172.07413,102.60301,-331.14322
-1090.9141,770.305,-757.3384
-1196.946,-499.74698,-126.488686
-1254.4384,-723.81195,-294.0401
-1596.0393,-1745.3604,-802.93256
-1620.7307,-1657.6951,-668.59045
-2396.325,-336.5929,-39.608597
-2348.5872,-539.31055,-692.1268
-4252.9995,4637.216,-1404.9625
-3028.0076,7985.2583,-23.320234
-104.06122,3102.832,318.54626
1004.8472,1042.1982,-475.70856
1389.629,390.9716,-16.284122
1165.5239,-45.14318,4.6756525
1059.5505,-344.06787,342.35233
1058.285,-72.60938,39.00964
1038.4452,-204.83311,443.94775
826.1389,-8.470897,216.09668
1280.2709,-34.69382,945.2297
1667.6643,3051.1777,-292.04852
-3227.2537,10808.411,-2931.4072
-1505.4252,3048.978,-385.5994
107.47289,238.9799,-1126.1193
-1537.9967,491.72406,-617.41516
-1425.585,-723.30835,-863.14154
-1712.1165,-1309.2476,-586.5931
-1348.9921,-1299.7896,-1034.3413
-2084.7517,-782.8912,-247.84866
-2065.2507,-376.3454,-235.10684
-2986.3877,-92.80842,-692.7776
-4981.0205,5369.4966,-1183.6102
-3766.4116,7627.8926,-63.780197
-69.69634,2722.688,-117.60695
1456.8179,1570.3883,-1040.2474
1546.5159,406.087,-677.2427
1410.6654,5.923885,-301.303
2159.0781,-26.501272,-294.014
1205.4523,200.20963,115.5797
1177.537,52.756523,84.47315
591.4316,-203.71565,-122.952934
1624.2828,2457.66,-895.4169
-3197.962,9962.953,-2666.8274
-3145.083,3680.1802,-878.6395
398.1209,637.5871,-436.1892
-1432.9614,803.09106,-398.0908
-1103.2395,-298.72693,-239.43202
-1750.177,-573.95386,-395.43542
-2162.8186,-1458.5581,-884.04297
-2123.5476,-1434.737,-809.5915
-1694.0275,-908.80707,-173.85185
-1894.6484,-99.491745,-39.052372
-2948.9863,1802.8992,-787.36774
-4914.4307,7894.6294,-1355.4984
-1795.2089,5110.207,-409.2303
1082.3384,1217.8002,-979.31885
1042.2188,800.94806,-263.60565
1156.5377,-100.02208,8.596356
1417.5133,-187.03192,222.04462
1737.5812,-280.00403,290.71854
1286.2168,-173.15071,608.49603
1266.4645,-357.00122,5.970685
1167.9949,-205.12187,433.22986
1950.1061,2864.317,-846.41095
-4365.102,10362.151,-5097.7065
-2029.1569,3088.446,-1221.5165
420.08594,-60.521114,-914.5847
-2219.529,-446.73065,-317.82672
-797.9535,-924.5627,96.033226
-1537.817,-1723.807,-3.9080024
-957.0046,-2300.8093,-129.21957
-2124.027,-650.8647,-0.5652217
-1584.4673,-286.4609,-580.5381
-2868.289,486.8068,-666.7979
-5054.771,6693.4473,-1929.5355
-3100.8567,6729.441,-404.2646
557.6039,1858.9397,-849.2811
1691.9928,695.5591,-614.0531
1540.5446,-161.3091,85.43114
1186.5642,24.671198,243.45035
1859.8875,-83.79315,361.30762
1192.3219,38.078613,485.74655
994.55536,-86.66528,349.14627
403.33755,-4.2266,94.54953
1489.921,1708.9725,-423.88538
-4188.344,9779.283,-2327.5854
-2670.894,3260.7324,-1799.6711
426.07523,-32.79324,-508.52634
-1475.8815,404.63538,-428.44995
-1074.3956,-556.1565,164.29045
-1521.5931,-871.50714,-290.77155
-1281.6366,-1882.0367,-708.79584
-1460.977,-1732.2971,-362.9222
-2558.3052,-686.9838,-271.41946
-2483.1438,-1527.0634,-1243.5397
-6573.0967,4738.1445,-769.2565
-5611.3975,9392.312,-245.74048
476.58768,2921.0793,-713.61664
1329.6909,1388.9688,-407.52588
1499.7095,272.03882,112.975105
1596.3853,872.7286,25.822344
2333.1653,-399.76227,81.065445
1617.4872,357.8295,-80.64725
1376.4106,-382.8271,118.59835
944.6882,633.87494,-350.20105
1397.0472,-614.92694,137.09114
-39.498016,7473.933,-1707.8489
-4855.974,10529.021,-2506.1426
-2407.611,1008.8008,-930.35706
-1909.6482,1180.5256,-807.99835
-1778.2878,-937.6386,-387.3286
-1008.7838,-292.3892,-234.36185
-1719.6088,-1574.4486,-648.7075
-1095.97,-1928.5063,-905.04767
-1907.6918,-1358.5624,-367.70557
-2289.3652,-572.89264,-352.5547
-2962.832,140.3152,-567.2053
-5394.5713,6884.0615,-1821.1329
-3096.9043,7636.064,-434.95627
360.94467,2544.216,291.73172
981.6083,1103.186,-494.4263
1888.1218,229.91888,-279.0869
1269.3761,-106.87882,-335.8311
1886.7007,-726.86194,105.9136
1169.0916,289.8343,41.87072
1137.8114,-291.0566,607.8136
257.58875,300.14365,-319.34998
1829.4805,51.672165,754.7844
-3508.2205,9755.736,-2413.995
-4032.6445,5731.645,-1475.3953
938.04144,-258.37732,832.7829
-1022.3846,1320.6353,-772.16644
-1000.5367,-699.08466,5.1001267
-1746.3892,-1422.2117,-816.4432
-1058.0142,-2128.472,-742.1696
-1862.0045,-1781.6765,-415.8297
-2220.1267,-697.96783,132.52399
-2385.8325,-769.79315,-674.5136
-4614.909,2433.6477,-1277.105
-5765.6226,8336.339,-426.67044
-1344.2898,3913.8467,397.77585
898.92926,2038.4672,-806.413
1632.3337,616.5025,-254.5905
1332.8539,717.8014,6.478603
2109.4485,-95.43722,73.40675
1715.551,640.17456,-110.62809
1483.5056,38.48266,287.5521
993.0527,273.23926,-175.77223
1280.1586,1057.4117,-640.4607
314.79367,6730.6206,-2318.3623
-2580.0898,7176.3643,-3524.8914
-2553.0803,2603.9897,-1900.5022
-1246.1166,238.77876,-875.55945
-1576.0747,145.76459,-712.5409
-1547.3079,-1001.1892,-535.8088
-1730.1324,-1426.5352,-862.67224
-1500.9111,-2241.3767,-889.51886
-2268.5305,-443.9255,159.61879
-2245.3247,-235.33664,-87.553375
-2222.098,265.44962,-278.0857
-5302.356,1725.8512,-1557.2877
-6542.483,9292.6875,-2308.237
-982.90466,3125.604,304.61475
898.9929,1345.186,-1488.0845
1550.6343,-21.955038,-436.56525
1271.6732,-88.36728,-573.69617
2153.1262,-478.1876,39.12322
1299.2946,632.2847,-91.36709
1266.4801,-301.5389,577.8389
497.7372,334.88864,-468.4871
1465.7987,-462.50012,-73.045845
-936.96936,7020.8096,-3244.8118
-5352.698,8338.913,-2879.3188
-108.794624,530.83514,-566.55817
-1453.383,936.48676,-492.38452
-1847.6014,-192.7447,-44.853283
-1280.9163,-768.91046,-13.207052
-1186.4948,-1653.9811,-40.83262
-1141.264,-2497.497,-166.43674
-1929.8601,-936.25854,-560.48047
-2644.6401,-1011.845,-810.9495
-3177.687,120.620834,-1118.3975
-5312.902,5757.8604,-2679.0066
-3908.1157,7971.583,-1379.318
82.85587,3149.2815,-769.52734
1484.5819,1061.1488,-837.22925
1212.2855,389.6272,-182.1724
1430.6171,-216.22078,-213.67343
1524.7062,-251.3905,215.62381
1633.4949,368.03848,123.96496
1089.4083,-309.06818,409.40158
735.5683,281.87436,-48.710644
871.2479,-318.8195,93.517815
899.32416,4702.1094,-888.03784
-3610.557,10107.3,-2549.9995
-2153.5098,2142.508,-629.1726
-444.7305,741.8046,-652.5381
-1715.9121,484.58673,-412.7999
-1521.8401,-996.46277,-136.67491
-1667.5491,-1504.8292,-624.4885
-972.3015,-1961.09,-595.22876
-1912.1067,-1158.5657,12.177305
-2020.93,-672.84985,-306.44595
-2843.7139,293.8341,-921.10785
-4604.9497,6595.814,-1958.7239
-3003.3218,6634.1533,-343.32364
301.85748,2773.9204,-573.2344
1413.3826,1141.9902,-472.40698
1293.0963,224.64864,180.39696
1371.9108,196.54651,175.36406
1960.7631,-284.7925,384.57108
1441.5635,280.46915,403.21478
1174.8822,-492.74075,378.19067
648.96136,635.6022,-132.43044
1236.7117,-900.8624,-35.113102
-268.775,7575.102,-2666.8713
-5032.616,9893.457,-3097.833
-984.3362,59.12772,-1131.7805
-1659.3917,893.74097,-473.4339
-1609.4404,-687.19806,-62.795975
-1506.5637,-615.9909,-257.02597
-1569.3856,-2401.9197,-661.09644
-1628.1769,-2793.6143,-658.6433
-2976.7087,-1526.8834,-623.91626
-3288.4976,-903.91235,-1078.1597
-6400.3745,3963.7617,-2154.5386
-5154.0513,9820.918,-1592.0413
-815.1164,3193.5786,-397.17767
839.15466,1548.8341,-434.21692
1358.9442,33.291683,-210.39513
1254.0616,275.27994,2.1369827
1772.8809,-143.04771,106.59624
1921.9978,443.27353,238.15971
1477.6669,-130.30003,326.21573
802.3181,550.6469,-4.32896
1043.651,161.63934,-198.96303
-149.42607,6259.178,-682.85004
-4744.895,8362.967,-1213.1797
-2066.5176,1681.6053,-368.57437
-1497.5343,763.7527,-412.01187
-1594.2496,-70.28447,-58.176056
-1392.8497,-697.09735,-237.10844
-1396.0135,-2081.7566,-782.62994
-1228.9707,-2495.85,-430.97443
-2071.4768,-374.9628,-489.18503
-2133.2456,-807.6299,-745.581
-4052.4714,2192.1255,110.67434
-5342.4253,6467.1353,1293.7673
-1425.7181,3748.1128,747.2695
362.86078,1767.9872,252.53464
968.11426,839.90985,132.85394
1353.6688,482.6077,89.079926
1307.6022,327.93478,393.40903
1690.6893,171.66214,503.41455
1415.9543,30.058323,663.0375
1086.658,326.3724,548.0244
597.78015,392.4665,205.9193
969.54565,2717.9238,305.88828
-3683.9624,9918.311,-1275.0977
-3397.1792,3152.5498,-695.41644
-587.15234,724.9227,-193.75107
-1335.325,670.83417,-601.16534
-839.56683,-410.17172,-239.0144
-1537.243,-1018.00714,-699.6632
-1185.3093,-2068.1704,-1264.0532
-1942.6711,-1866.717,-861.3786
-2491.1855,-702.75323,254.32085
-2287.3474,-734.72156,-525.89343
-4145.5386,3309.2783,-952.5346
-5013.337,8534.24,371.51398
-187.57253,3144.8884,272.21948
114.776695,1357.0775,280.43042
734.95435,68.478836,264.20428
1060.3077,319.43954,151.42326
1389.9779,-191.58337,299.14536
1416.207,297.135,244.36664
1483.8683,-494.60696,262.493
939.9098,422.59988,94.83499
980.6282,-446.6667,3.9803643
316.392,5295.421,-107.18819
-4006.605,9362.521,-1484.391
-1817.835,1734.0043,-384.3814
-960.5178,1093.8834,-47.084362
-1474.1816,139.5926,-127.95159
-739.34125,-546.3229,-292.67856
-1359.9796,-1088.4717,-676.36127
-990.4626,-2119.6296,-949.49615
-1775.4526,-1498.5748,-388.22256
-2377.522,-748.09985,-716.835
-2452.2688,-169.2076,-601.6115
-4420.523,3236.9756,-1140.8561
-4931.9883,7902.063,-1916.0994
-798.10425,4116.6704,-580.0698
758.35394,1630.3658,-994.3141
1112.8071,517.5787,-229.58667
862.5091,253.87613,-213.01497
1538.5693,-306.624,12.109707
1719.3062,232.6978,57.664635
1350.6948,-328.45734,439.90747
887.03925,318.1686,-177.98537
884.9846,-618.25037,120.42088
1079.8374,4203.9907,-1320.0527
-4856.526,9962.692,-3326.731
-2804.0137,1746.1383,-579.7951
-782.01575,623.3242,-705.2435
-1900.458,-259.36978,-327.47885
4.913375,-1846.4446,-67.39608
-968.53064,-2413.2468,-284.315
-592.73083,-2382.692,-201.3482
-1980.1932,-1006.0606,-287.4304
-2369.551,-1351.8947,-747.21954
-4960.0757,1981.1029,-1135.0577
-5010.2964,4737.3384,-1348.9376
-5085.2124,2801.9646,-1363.4838
605.71783,5556.5225,-947.1883
1044.2021,-282.86935,175.41025
1075.6974,1282.9305,182.5417
1495.1935,112.033554,400.8413
2204.013,883.22534,529.2755
1386.7352,328.74948,528.94586
1198.8488,666.90015,427.63126
639.0189,-480.74905,-62.486565
1194.7769,2882.8386,-1020.5203
-5525.037,11288.347,-3522.0737
-3633.0596,2890.3374,-2224.3884
-1987.3401,-32.709915,-869.3058
-1359.3802,327.7253,-129.92125
-1196.4747,-459.3234,47.885967
-828.46277,-1044.4569,-148.64424
-1262.0293,-2058.465,-1020.1067
-1256.222,-2086.575,-566.9745
-2545.1687,-974.9946,-618.2407
-2388.8142,-659.77734,-821.6205
-4169.6187,867.7171,-1617.2928
-6801.3887,6182.225,-2181.469
-3591.6199,5996.147,-280.98804
814.0973,1786.6471,-754.7042
1115.2444,1251.2722,-464.66818
1491.7075,331.0438,240.8653
1322.1036,83.91875,320.24487
2232.3394,255.23459,214.7115
1025.7505,247.19658,248.34732
1273.5298,91.34714,133.62572
238.3021,-14.264021,43.993706
1462.5543,2202.5945,-739.507
-4681.0625,10259.937,-3124.092
-3826.8423,3697.9922,-1599.0754
-786.1958,828.8377,-592.7382
-1682.613,475.71362,-431.9437
-1361.9855,-294.1195,-1.5107515
-1956.2853,-936.27747,-602.1805
-1608.5988,-2603.1792,-1421.5934
-1563.42,-3179.4004,-532.4315
-3189.836,-751.1795,-195.34627
-2829.869,-642.28925,-901.6929
-6501.5845,3712.758,-1879.9232
-5192.7803,9254.766,-1178.096
-534.3112,3628.631,-808.7848
718.3979,1132.773,-540.5432
1278.4379,343.10678,-318.28006
1215.4465,574.20703,-185.48135
1546.6666,376.50674,-475.04175
2121.653,-81.76567,-60.235584
1226.99,652.4949,108.090805
1299.0802,216.19244,159.90958
339.3088,286.55518,-182.12984
1047.2538,1133.7491,-595.5182
-2982.3335,9248.48,-2709.4297
-4817.4443,6295.3447,-1858.764
-1696.6603,855.3575,-861.7729
-2301.9575,578.789,-669.30664
-1430.4929,-935.0836,-272.5573
-1261.1526,-943.2342,-8.224838
-700.891,-2483.4312,-808.9564
-1047.0002,-2545.8552,-432.0031
-1869.3784,-973.5291,-449.15292
-1813.6732,-749.0533,-853.33374
-3367.2866,307.5483,-1836.4589
-6700.347,7577.996,-2572.2625
-2699.3845,4454.2773,-1376.308
617.3448,1886.5646,-647.15564
1043.6416,1009.202,425.89612
1066.5995,559.3966,551.475
1012.55597,493.1967,599.71796
1611.1134,276.22922,759.1425
1378.4436,417.6443,690.61316
1461.818,393.3578,666.68567
247.96869,270.29596,150.90076
1645.3339,1202.1677,-673.45135
-3343.2031,9644.502,-4623.358
-4567.677,5090.172,-2617.773
-577.9353,174.1936,-1210.5283
-2289.7676,633.86743,-664.6046
-1346.1796,-775.71826,-91.871124
-1403.9243,-1074.4866,-82.35625
-1091.6705,-2298.8877,-857.29395
-1574.7979,-2299.249,-228.27847
-2250.9592,-1393.4344,-206.32008
-2932.5652,-241.0933,-103.04802
-3307.7632,1349.7188,-1425.8766
-5704.0127,7954.8145,-1202.6526
-1909.1031,5508.882,-72.090096
735.48926,1268.7623,-786.32007
1075.6395,1127.5814,-163.87296
773.44214,-84.16438,113.34355
1247.0566,325.36676,112.58043
1367.6588,302.76807,-4.0163302
1924.1835,215.9188,92.52531
1138.5424,-225.13007,210.47484
862.0603,563.7042,90.711174
1006.8315,-645.5031,-148.50272
778.18854,5394.385,-2367.7031
-4620.431,9999.855,-3124.5603
-1348.3678,1515.6053,-1402.8564
-1282.441,409.12637,-581.86084
-1562.4583,-215.90233,-216.0187
-1918.6036,-234.98537,-100.69582
-1815.6583,-1444.8329,-515.95123
-1410.0178,-1854.8591,-610.2821
-1731.6055,-1732.1239,-295.57526
-1782.1741,191.13219,-4.1779857
-1688.5763,191.3636,-188.63307
-4800.0,5341.451,-1485.1547
-3725.671,7194.477,74.01092
42.36497,1442.7725,55.410004
542.49664,1387.9597,-733.22766
1417.6621,116.80365,-82.2106
1063.8186,282.21698,109.84547
1646.7394,-94.07964,483.0178
1534.9741,510.94724,353.49033
1539.3922,-399.4495,703.46173
619.6803,820.67584,439.94846
1606.8662,-199.4466,491.3654
-1240.3011,7799.5786,-1615.0724
-3961.9214,8346.041,-1038.1274
-840.5846,109.25836,-501.50586
-1256.4369,1308.3694,-738.5874
-1536.461,-480.07812,-424.84888
-1365.1785,-507.1984,-485.5776
-1650.534,-1837.8785,-671.02545
-1291.931,-2119.1782,-748.82074
-1876.1509,-2385.599,-492.48337
-2435.1936,-460.20914,-8.379665
-4763.649,2488.3787,-1562.7848
-5302.8267,8331.124,-466.84714
-2299.0188,3698.0654,637.5125
600.8943,1731.7004,-876.1386
632.4902,1290.6797,-224.3544
1007.2696,182.37863,-20.816795
644.7133,313.5615,-96.178894
1931.2319,74.24375,-390.23517
1764.5459,-66.53615,-145.29987
1229.4094,431.60464,244.82208
377.46158,76.69219,133.04868
1780.5896,1492.9384,-514.4735
-3123.778,9126.807,-3113.1184
-3365.0562,4644.964,-1029.502
-175.12677,305.51025,-216.65916
-1326.2028,765.6185,-678.65283
-1382.0466,-1075.2865,-165.84723
-1171.6527,-1503.658,-515.3626
-1237.6631,-2223.7095,-939.18713
-1696.9004,-1603.6735,-565.19037
-2491.3381,-590.9202,-63.86752
-2223.0972,-252.14001,-631.00726
-4504.8276,3106.027,-1763.2299
-4668.6094,7937.6987,-544.2306
-491.28104,3180.465,-651.8022
322.3035,1300.3682,-68.03054
688.9838,316.61932,167.97481
1098.8861,512.2076,-69.33427
1307.7732,201.48373,194.47008
2021.2803,663.5981,363.53882
1367.7289,55.341125,437.62283
1192.2789,254.2871,89.63197
531.8627,-170.39113,-7.7808576
1146.3325,3428.826,-1665.3065
-3879.5398,9466.04,-3544.739
-2906.5764,2618.4878,-1514.0891
-863.00336,714.2541,-808.5218
-1859.6316,344.35785,-338.62595
-903.0577,-694.6015,42.25964
-997.461,-1093.3079,-185.89067
-785.84076,-2392.802,-734.51843
-1039.5482,-2077.26,-471.9225
-1787.708,-766.74457,-309.10577
-2012.0577,-515.43677,-470.93744
-3551.7932,2385.8562,-1262.4972
-4973.33,6414.8613,-689.17053
-2094.9229,4331.743,511.76102
-229.29974,1105.0265,25.050287
559.0884,1027.0072,-395.98688
679.2071,245.67365,38.83753
1084.406,80.27818,259.48343
1339.2502,52.532,342.09378
1502.4226,203.74323,407.73767
1094.9839,178.3448,346.18988
723.0795,375.2087,222.76321
1092.9962,3524.3347,-445.24182
-1894.2583,7627.245,-1118.1368
-2303.0164,3709.266,-539.679
-1193.0831,1099.1952,-613.09344
-1135.0306,210.02199,-465.96967
-1134.1097,-529.6548,-336.1013
-1093.6571,-1316.8888,-368.23016
-842.78296,-1805.1616,-755.81537
-1282.5111,-1534.213,-470.82758
-2114.085,-347.11588,-65.112885
-2011.6957,-310.62308,-139.91188
-4007.7075,3334.2183,-1398.5969
-4421.7993,7102.827,-176.33408
-547.1048,3078.7083,-91.604195
775.2673,1457.8604,-302.47134
423.60776,739.4804,130.13103
877.29047,263.11923,91.9169
1293.1757,2.2162313,227.70624
2141.1118,28.898481,400.9427
1345.1954,-75.72046,429.58286
1532.317,55.478977,104.83717
582.37366,90.86815,-15.040507
1618.0228,2277.4146,-1294.594
-2548.442,11272.335,-3473.735
-4141.1865,4318.203,-2259.7407
-1735.9371,822.70703,-706.5972
-2577.4072,348.98514,-521.56433
-1458.7736,-819.4977,-208.1137
-1348.8318,-1440.6691,-278.62506
-1015.99243,-1870.9489,-597.0913
-1467.3174,-1545.8175,-163.30981
-1839.2174,-571.80994,-57.8255
-1829.5044,-604.50946,37.64809
-3009.6196,4278.9487,1097.2219
-3088.526,7169.5894,686.3008
-1859.9929,-240.36478,-990.4042
903.89966,4810.9062,697.2295
279.1756,1003.0451,1034.1998
779.4394,-993.5362,56.266582
848.8554,-583.7383,100.33287
1744.823,-93.58544,-30.092255
1856.6066,185.37326,416.36063
1108.8511,95.17862,317.41824
544.9904,-100.104675,402.99176
1676.1259,2663.989,-935.8777
-2279.6567,11118.196,-3447.8042
-3129.2866,4063.548,-1679.6726
-1278.7849,810.91376,-808.35315
-2206.281,295.87103,-287.06567
-1663.4373,-752.19525,-150.3626
-1311.343,-2182.48,-417.22852
-1235.8901,-2111.6738,-513.78644
-1944.2242,-1710.6146,49.71968
-2546.0115,-180.1524,-407.85144
-1810.9518,-747.5192,-608.13007
-5355.456,2252.4453,-1199.7524
-5828.2085,8019.871,-538.81146
-1130.7931,2771.6475,194.03816
125.35931,1842.3942,-246.89095
1413.6238,723.977,-298.11438
1352.6028,737.5397,104.01495
1891.0704,404.8126,-95.3396
1674.195,395.91968,46.548164
943.42426,353.20724,75.4039
775.0897,485.29572,41.026367
432.00464,119.49382,-356.79282
616.7662,3186.3298,-565.7629
-3944.776,8206.871,-2022.1705
-3744.8809,3771.426,-304.0567
-1006.7885,1413.4747,-157.20467
-1512.0078,740.82324,-334.76205
-1078.8247,2.7569516,-308.39206
-1831.1681,-922.76355,-197.43123
-1177.9182,-1726.1127,-892.2673
-1885.9873,-2049.9595,-964.6269
-2237.926,-1549.1672,37.394665
-2357.1538,-1701.0366,-268.6879
-3069.157,1279.2523,-999.4924
-6773.018,4638.5386,510.00824
-4435.571,6510.103,-174.77652
323.50296,2596.899,63.69694
355.69214,409.45227,233.0823
1077.2731,821.73737,34.172882
1540.2898,11.644194,92.410934
1664.4147,228.30048,91.171036
1671.6554,38.033367,-74.89801
1264.9861,55.02366,19.490055
521.48596,525.11786,-445.93805
1148.5413,-320.12988,-205.79446
-1303.6766,5635.314,-484.58878
-6210.991,8171.875,-1884.5532
-1735.0234,1280.9865,633.7994
-1922.9382,1574.2112,177.21037
-1296.7661,-27.413563,-295.9087
-2102.4917,-591.4181,-287.2957
-1003.23724,-3209.7903,-1010.83044
-1166.0109,-2185.648,-321.25165
-2040.9286,-1881.861,257.66998
-2212.3882,-309.15848,-534.22626
-2948.6436,-94.22735,-1217.6426
-5841.581,6449.355,-816.5746
-2973.5576,6466.6597,188.92845
-38.792206,2264.187,-108.656
700.4283,1118.4445,-294.93896
1236.9506,232.15205,298.8643
1509.4348,221.38995,343.87976
1443.6758,90.06089,438.5355
1375.3054,96.31802,347.60114
1150.1866,109.08869,441.90375
507.48032,499.73526,83.53617
1253.2937,435.1489,-24.869541
-1644.8337,7064.7817,-1580.8519
-5358.1045,6791.79,-1712.0842
-586.02954,699.87683,-507.42734
-1291.2837,974.67487,-700.7418
-863.69135,-503.16864,-105.74032
-1121.9935,-309.9448,-305.71286
-924.3597,-1923.0293,-766.4259
-1361.1592,-1865.7441,-626.0823
-1754.3301,-1473.6967,-137.19954
-2083.858,-324.9854,-204.40314
-2322.2334,-339.99887,-783.3413
-5149.7524,5068.6475,-1653.1477
-3307.4236,6504.351,-541.52075
-450.43906,1946.2273,328.87924
319.27408,1273.3649,-355.91467
973.358,535.3187,-166.32735
1209.8813,175.78748,175.67618
1697.1997,272.81146,482.0333
1564.8501,301.8505,458.919
1350.0521,65.513054,365.50232
576.19586,273.3601,-76.35135
1570.3806,1187.5358,-282.43277
-1952.0282,8502.348,-2358.9016
-4054.1624,5287.825,-1414.8751
-265.42624,432.95,150.6993
-1512.2772,1086.2017,-382.4936
-940.85425,-514.20087,1.9320005
-1217.8896,-941.85657,-562.537
-873.4112,-1964.616,-644.9572
-1363.2299,-1385.6614,-489.29105
-1411.6595,-674.95404,-60.24395
-1472.4855,-236.79327,-225.17569
-1974.0134,1660.9775,-458.60657
-3702.0154,6186.849,-276.97025
-1253.4093,4168.9087,405.79327
-52.38524,1593.5898,468.96255
438.3383,1086.9353,-9.151899
763.3406,464.80142,52.734856
1187.7433,62.65385,339.92233
1186.9945,318.6106,545.7531
1271.2101,31.943632,449.6063
1014.5302,257.28607,404.95575
692.01935,216.88847,60.174046
998.28235,1358.1462,-235.88814
-733.9523,7660.3447,-1839.8838
-2895.3179,5130.03,-1690.2709
-865.0261,1229.2017,-784.1963
-1226.5891,1159.256,-711.9123
-893.2117,-286.82544,-212.85506
-1279.4081,-540.8713,-318.37628
-1096.4359,-1625.1448,-722.6969
-1159.8488,-1212.7229,-963.13995
-1236.722,-1046.6245,-128.11702
-1307.3336,-260.09146,16.282743
-1761.098,-32.23169,-91.5064
-5463.9814,5376.3438,-905.6207
-3816.7283,5937.74,357.67368
67.6592,2132.711,266.8496
1012.02295,1174.8254,-584.44934
1368.6722,861.90436,-291.81805
1513.4216,191.70193,314.5931
2023.331,-98.67815,-66.07541
1900.1644,-226.27957,-91.35958
1223.2202,426.78403,-106.41233
814.9607,-88.30578,-75.10747
855.93475,3798.5823,-2108.8918
-3718.8337,9733.913,-3448.5203
-2593.029,2945.093,-1763.575
-1666.5653,716.12756,-946.3341
-1895.0615,-139.67474,-488.84802
-1083.5077,-329.5071,-133.90248
-1320.8367,-866.53217,-219.59224
-1146.7583,-1313.3604,-327.73892
-1379.4601,-1295.3556,-568.6348
-1478.9535,-758.7392,-46.500233
-1676.8005,-650.4636,-339.40103
-2365.257,-167.02469,-369.21255
-5984.3022,3165.3767,-3481.3782
-3489.6736,7527.5596,-2958.6353
-551.2669,2389.0989,-547.6987
424.42642,1743.7137,-1398.6932
1566.684,335.8611,-479.41858
1187.1919,-260.96384,-0.6945753
1913.3058,172.40149,686.0932
1093.4849,507.07877,259.03784
1332.3086,-187.84644,444.5391
161.68942,591.5098,-324.1229
1584.7521,-309.47534,231.19044
-2606.8074,8741.46,-3050.171
-6219.653,6996.945,-2521.265
-469.31586,325.0743,-399.4513
-2211.952,1170.9006,-776.66876
-1534.5417,-707.524,42.612736
-1671.6791,-1024.9113,-231.23936
-750.7043,-2144.6438,-637.5176
-1449.9468,-2220.1077,-351.9219
-1932.3265,-893.66864,226.76651
-2035.3037,285.2084,-434.8121
-1551.0625,252.87378,-435.47006
-5072.708,4286.6616,814.75116
-3356.6377,6388.843,532.7855
225.60812,2907.124,204.48997
668.20465,1131.9553,22.84631
1232.3049,399.70645,34.34961
1152.115,-39.008907,-56.537205
1576.1168,-132.70798,91.753395
1330.2249,421.03882,320.52597
1223.119,-54.715206,443.09042
311.4433,496.3344,159.00253
1330.0061,60.384575,-295.9078
-2334.5332,8448.864,-3414.0781
-5254.8184,7074.047,-2774.3472
-283.8801,387.86816,-786.33136
-1246.6166,896.43304,-779.6405
-446.02115,-817.25,-63.229862
-1170.5016,-459.5209,-602.4396
-776.29755,-1962.9874,-1006.1241
-1142.104,-1899.9984,-1733.9613
-1215.9927,-1445.3213,-425.39435
-1918.0735,209.06343,-75.54574
-1898.6666,364.34665,637.74036
-3165.9583,4648.6265,-3450.2444
-3191.7534,6747.9067,-807.33154
-968.5104,3393.4077,552.32733
627.253,1065.0892,-1347.4492
1408.1737,22.178148,-713.1986
1260.5685,-724.5918,-292.92966
1263.2747,114.26185,373.81802
1471.2937,-17.45492,70.80106
1989.9453,-296.4113,318.933
969.38,-59.858326,-50.120792
1483.5243,500.11987,59.813927
-928.20825,8412.346,-3508.1501
-4981.167,7232.7876,-1929.5447
-229.41963,193.8811,85.30155
-1595.3605,1527.1764,-554.8089
-1095.7174,-1082.7579,-59.704777
-1012.62164,-1133.2239,-295.83527
-379.08212,-2674.524,-455.60312
-1053.4836,-1507.8054,-688.59015
-1260.3163,-1569.6396,-476.1622
-2378.0193,99.85003,-417.31848
-2486.8591,-207.82089,-997.77686
-5128.4155,5653.427,-2438.852
-2991.8455,6374.3926,-160.175
-192.61386,2203.1663,-373.84622
1129.6995,972.0467,-152.68747
1245.3799,357.97668,166.32198
1696.5608,1.8083466,504.0077
1285.8489,793.0366,534.74164
1139.0406,-187.19025,664.0359
534.27814,533.6734,237.52794
791.5664,-285.73914,-39.16435
210.29012,4037.5137,-1166.072
-4107.078,8213.601,-2355.3572
-2227.249,2000.9203,-539.1207
-619.0409,835.89825,-402.4662
-1294.2196,358.65915,-249.6603
-690.2799,-587.9433,-121.06889
-1195.6665,-957.0796,-404.69016
-804.3145,-1976.2169,-763.6151
-1289.8838,-1814.3359,-618.7926
-1783.8909,-918.7446,-511.1835
-2329.2415,-409.72418,-487.43875
-3038.2583,1444.4663,-1070.722
-4572.7866,6399.9214,-1000.9272
-2095.9253,4477.368,64.07906
-33.75431,2179.125,80.57716
824.56024,1189.8414,139.1029
1477.4877,332.36453,192.5393
1792.834,157.58931,525.1499
1748.0684,651.2186,555.968
1194.4496,192.1121,738.5088
627.03815,903.8778,133.27608
993.8064,1131.8608,15.878546
-382.63895,6243.94,-1291.4368
-3695.9795,7311.9307,-838.4682
-1843.6135,1379.1294,-738.07117
-1202.6201,832.968,-855.571
-1590.7673,-578.4415,-397.6951
-854.1576,-504.51102,-129.9183
-1254.3099,-1293.8519,-336.66357
-1191.8291,-2074.668,-719.19653
-1786.479,-1055.3741,-472.0883
-2084.6672,-307.87216,-148.07098
-2321.9622,313.9425,-3.9683757
-3218.4243,3435.3035,241.69286
-3486.8325,6170.887,332.12933
-163.53378,2738.2769,474.76886
675.3247,1078.0358,-68.896545
812.1379,974.6104,255.66203
1057.0283,181.29652,396.80353
1436.1688,-199.86888,306.31082
1720.0509,-7.2451687,-29.182722
1441.1389,-205.79027,158.97247
590.519,243.5234,-6.433971
985.2757,206.73483,195.99403
604.07336,5511.5444,-1600.9167
-4272.032,9575.126,-2544.778
-1857.3475,1455.7925,-953.199
-1108.7521,606.0971,-430.50653
-2222.5823,228.50578,158.65042
-1405.387,-384.02856,545.3345
-1682.9419,-675.18286,622.76337
-1031.4526,-1577.9209,-601.4033
-1975.5049,-2325.7905,-385.62872
-2324.5552,-538.3235,-622.8324
-3079.6726,-342.17474,-1132.5972
-4539.04,6896.1196,-2859.1743
-3340.774,6941.5293,-769.19556
342.92197,2430.4536,-949.9321
1230.6564,1182.3787,-490.2655
1456.3912,480.36926,144.28467
1919.8035,-26.178528,384.31003
2060.1558,214.70976,588.06757
1314.9952,44.09851,399.64456
1422.2784,338.8309,-125.80412
697.93945,-106.168816,-219.14406
844.3976,3629.2834,-1431.3297
-4470.478,9464.461,-2804.9822
-2623.256,2869.007,-888.60034
-773.4722,636.84283,-603.9252
-1622.4928,179.59615,43.808277
-827.1579,-503.77145,0.9021556
-1234.789,-656.4269,70.79602
-1239.4764,-1382.2223,-119.390465
-1254.9077,-856.2097,-302.0662
-2002.2239,-950.1815,-454.18576
-1799.3439,19.444174,-278.07263
-2613.1797,-187.56226,-870.9258
-4689.071,6576.998,-3029.3406
-2077.2712,6532.4263,-1348.6309
259.68216,1134.6407,-854.4049
583.31226,1234.1979,-589.24744
1267.5125,-775.34235,-1.5478132
1495.1658,343.5461,39.53167
1963.4348,-525.4702,404.11124
1204.1678,340.09656,273.48425
940.00366,-529.82733,379.58215
326.61807,414.89893,-78.07625
1614.2976,-485.81332,-52.502563
-539.3571,7923.8516,-3495.3542
-4059.646,7608.319,-2973.8118
-316.84122,984.4552,-357.44748
-2089.4612,1091.0779,-269.38406
-1674.2772,-318.12042,217.77725
-1530.467,-1394.2743,-449.5299
-1313.9121,-3061.0308,-686.61633
-1793.8073,-1769.1129,160.63268
-2655.37,-404.092,-149.679
-2300.73,-547.0735,-721.67993
-5088.7397,3380.328,-1946.5724
-4640.674,9678.567,-1596.3772
278.23676,2555.9172,-772.96875
348.85352,671.84863,-567.15894
1043.8114,-28.4113,-13.756291
1033.5887,559.9415,-126.906
1557.7834,73.15543,110.77454
1871.9312,28.858704,8.1925955
1581.4022,-299.77676,276.67795
1007.86066,321.212,7.2898717
768.4081,-227.28532,15.998115
881.08203,4198.7695,-1557.7716
-5111.9517,9613.33,-3475.989
-2162.2383,1950.9193,-1357.6354
-548.29517,771.98224,-251.99443
-1880.2356,-111.20742,-455.3411
-811.81274,-475.88837,-4.3043404
-1866.9924,-1297.0222,-589.86127
-1344.6833,-2038.9303,-307.23416
-2397.8733,-1508.8716,-224.40976
-2341.6729,-365.83957,-326.10907
-2936.5227,-344.4483,-631.0791
-5081.965,5190.046,-1685.2422
-3541.8914,7661.181,-822.7104
-65.23616,2062.2288,-322.54694
361.61197,976.6449,-253.23956
1620.4579,148.25868,-30.725302
1025.5863,525.43884,102.75676
1918.9852,138.3866,98.52761
1443.0413,137.804,8.202646
1615.9025,79.11384,139.16385
332.7992,337.21802,137.41322
1253.0972,1893.4187,-430.9824
-2692.4382,8599.729,-2677.0579
-3116.1384,4282.1763,-1029.6055
-839.00574,1278.4337,-381.94128
-1477.7975,1002.5601,-560.75726
-1056.434,-272.57034,-461.9446
-1236.579,-504.74686,-722.2993
-1296.0785,-1483.7223,-812.82745
-1397.8695,-1469.5647,-313.22903
-1713.6864,-702.6075,-7.598148
-1716.1136,-438.4365,-336.7208
-2134.7424,732.9825,-220.58049
-3956.397,5779.9917,-53.78577
-2391.0405,6942.5586,-73.31956
362.591,1808.7642,378.89914
824.3659,1204.7485,-350.32526
1496.4678,27.443113,18.283821
1365.597,-171.73761,-51.12126
1794.0303,-204.19588,347.46692
1225.9138,278.7241,188.14314
1234.1786,-252.98273,517.48004
343.1635,235.28856,-177.01717
1486.0051,225.83643,284.80676
-895.99396,7283.489,-2644.0342
-4376.756,6856.88,-2232.5662
-47.67914,376.60925,306.87915
-970.4679,1213.8387,-582.5383
-744.6736,-210.43958,-182.2329
-1177.2759,-396.80222,-516.2074
-1578.1486,-1729.3394,-513.66907
-1437.1945,-1189.7264,-567.8938
-1608.3542,-823.1582,69.21672
-1521.5476,-670.00696,-223.73811
-2045.1569,1423.1127,-372.97952
-3749.7651,6349.306,-636.1857
-1548.9469,5462.1523,203.45981
730.7912,1569.352,-104.33575
1242.3333,691.78296,-275.63538
1326.81,470.8076,-2.4629793
1472.2543,-401.80817,612.32196
1377.7533,199.04524,740.16876
988.7438,-152.71674,893.10846
629.80615,295.40512,-28.135498
901.8807,-451.3579,235.8888
702.0953,5913.249,-1888.5566
-2919.1558,8226.661,-2146.6633
-1030.3052,760.57324,-296.10663
-589.424,1386.8337,-675.4984
-1163.5311,-87.318306,-218.1823
-1150.1328,-418.3158,-258.10703
-1199.469,-1050.8617,-246.39395
-1398.5487,-1220.4902,-439.65842
-1292.9637,-1122.7506,-16.284899
-1763.9398,-327.7871,-112.57924
-1387.0892,-458.24567,-179.61864
-3280.0544,3059.957,-787.9947
-3863.2642,7174.659,-267.81802
-859.1852,4239.116,225.6494
489.15073,1092.4897,30.454424
662.6747,995.62445,-297.55692
1295.2981,84.49128,215.79535
1214.3336,1.0747478,210.95404
1429.1785,-158.04887,441.70288
1074.6387,141.51112,131.3902
961.0615,41.165432,310.73785
388.57507,279.86835,-215.01483
1193.365,1779.0105,-85.68383
-2548.9448,7957.849,-1795.5
-2412.3557,4364.8535,-929.54565
-391.3643,871.0212,-41.306484
-1059.7527,872.47723,-225.76836
-971.72626,25.345743,93.94106
-1278.6047,-1423.7444,-493.77872
-1087.3438,-2206.4963,-949.79
-1717.0415,-1863.9349,-218.4903
-2416.7021,-730.9746,142.2404
-2203.607,-412.93613,-842.5702
-4589.692,2973.1848,-1017.8141
-5130.737,6834.1006,28.171999
-1310.6122,3401.091,-450.3635
731.3005,1591.2285,-361.7059
1013.23663,525.3864,-150.89064
1195.1405,725.1801,232.1147
1073.2874,528.446,176.8093
1554.7699,139.63434,144.3554
1219.7073,48.90105,18.030304
972.3814,342.5787,106.97333
419.91556,-61.720802,119.223015
1153.7009,3283.879,-1015.15936
-2873.2166,9060.337,-3060.7185
-2465.6204,2683.573,-1076.3955
-487.66553,725.1446,-690.3093
-1392.6765,-43.86219,-292.47952
-779.98846,-828.0965,-191.15196
-1234.8018,-1126.1305,-168.47005
-1045.5692,-1252.443,-454.40875
-1092.1013,-904.7855,-180.11543
-1679.9408,-159.36029,-360.56543
-1592.4814,-318.09113,-369.1113
-3166.439,1908.7776,-1247.8851
-4266.5273,6927.5293,-1363.6569
-1320.5027,4514.5586,-244.16939
-62.64377,1090.3402,34.58549
959.83594,1095.5176,-629.8327
1096.284,-1.8139315,67.23716
1031.6959,78.554436,13.211518
1244.6307,-147.60071,232.2898
1310.2247,254.71053,13.467539
1361.9371,-339.3228,283.17603
710.4862,511.99554,-286.18533
1600.3943,-375.14957,-344.7927
-595.4669,7159.9565,-2433.999
-4753.558,7745.0986,-1939.6469
-475.84,945.60333,-607.9805
-1697.0802,965.6374,-353.59048
-1308.743,-434.86734,7.0515594
-1339.9215,-467.90366,50.603844
-1128.3767,-1404.0499,-461.6348
-1207.745,-1295.4866,-545.8957
-1700.279,-1104.6064,-367.94717
-1832.14,-647.38983,-280.7927
-2040.7245,364.6586,-718.7824
-4128.6562,6308.995,-1811.6259
-2261.1653,7748.676,-812.4318
415.81775,1207.2833,538.39825
750.1849,1094.8975,-487.2327
1468.7311,-22.24187,-21.97865
1401.7064,-722.12537,55.983223
1413.1415,-716.94446,550.83997
866.2081,24.84294,270.19766
958.60065,-704.6604,565.0127
629.1372,347.2394,-241.59325
1723.9045,-643.21216,364.86606
-558.4767,7615.843,-2112.478
-4319.724,8643.123,-1976.8162
-170.75688,488.09793,47.990856
-920.256,1047.7524,-545.92487
-1229.0131,-718.9831,36.237816
-1054.7815,-293.63934,-367.17532
-1437.0289,-1311.0397,-491.82364
-1186.1572,-1476.5902,-596.1815
-1960.1068,-1356.9572,-650.64734
-1923.8156,-340.1455,-774.9631
-3797.5762,1651.5616,-1132.8129
-4352.064,9091.888,-1314.7432
-893.8765,5066.1104,387.70407
222.07039,1130.4758,-62.825806
1047.2019,225.35002,-197.97229
1055.7412,-590.47375,145.8291
975.0819,370.25146,40.292862
1506.1002,-160.35472,387.44778
1323.9949,92.61202,232.5707
1452.9961,-274.02573,449.65274
470.916,355.77823,-118.46647
1714.5002,28.105003,296.5014
-1050.3379,8206.913,-3251.4033
-3746.554,7573.2236,-2213.4216
-48.31181,148.7659,-397.0687
-1300.6062,1161.5427,-1301.2969
-1384.5812,-1252.3196,-469.9145
-1139.6362,-773.7817,-408.1147
-1208.4429,-1251.6293,-204.54315
-1093.385,-1250.1376,-428.4879
-1734.3009,-928.9978,-582.5154
-2070.8308,-610.9472,-390.90436
-3587.1628,1104.7194,-474.73126
-4845.3545,6756.4375,-3833.312
-2136.71,5758.5527,-1207.671
537.2246,1650.1755,-982.17194
1312.185,572.3195,-602.2016
1400.8345,-9.278159,41.19148
1424.6238,-203.91176,-81.71257
1616.7264,-321.7966,292.8836
1146.9606,206.71057,235.12106
807.2096,-250.93958,563.8785
764.36786,308.41608,-480.62387
1694.7799,-141.37384,735.04663
-1190.1913,7876.216,-2081.0942
-5944.2754,7775.7734,-2076.2615
465.72446,190.37221,13.032095
-1271.9504,1825.9404,-1094.8772
-1868.6532,-961.34106,-209.44395
-1435.1322,-499.16125,-894.047
-1488.3961,-2322.4644,-755.6426
-1271.6953,-1038.8092,-496.11334
-2046.6843,-751.4424,300.6943
-1785.5552,296.1371,-282.7229
-3054.9731,-196.6911,360.07123
-5305.0776,4937.466,-763.4626
-4082.8865,6141.6973,-1420.2965
-80.02602,2083.0007,-262.52457
1602.9275,2578.2395,-1444.8367
1422.4974,-154.0318,-515.4265
1483.1107,111.66782,-504.59805
1973.0492,-293.12772,-123.763245
1536.531,481.73254,10.578071
1354.041,-216.51997,450.27164
385.84277,493.26828,-68.45852
1932.3038,-186.74268,18.955948
-2871.784,9372.667,-2988.8567
-6158.8535,6049.933,-1937.3407
491.54785,83.40814,-82.29918
-1651.1412,680.7192,-329.16095
-3.494085,-1155.2142,205.12328
-656.46094,-755.09247,-68.01889
-503.7472,-1996.095,-645.76215
-971.4817,-1645.3705,-768.8996
-1667.5145,-1317.949,-672.3325
-2368.3633,-263.47577,-413.40887
-3067.043,1193.9056,-1086.7634
-4921.347,7288.2656,-1509.3601
-1958.12,5319.426,209.2479
289.25204,1500.912,-22.715147
799.3604,1035.7827,-376.71378
1230.4398,391.87286,68.77702
1293.4702,-198.28691,195.3514
1483.2708,-210.4349,396.67163
1332.1176,43.177486,133.53334
1313.9105,-221.52086,378.68262
543.17053,187.76997,-205.89676
1668.1836,198.9624,466.56052
-1849.0688,7706.7114,-2922.3599
-4591.406,6790.474,-2564.1667
400.2841,899.81287,690.4942
-1682.5021,1177.1945,-692.26624
-1168.7076,-153.55006,-43.703995
-1956.7977,-1122.9999,-1086.8428
-1566.206,-2554.0671,-453.38153
-2529.591,-2211.041,-84.30031
-3073.0845,-655.7621,-17.254217
-3548.9502,-698.1877,-846.30695
-5570.0176,4044.0825,-632.0239
-5456.8857,8436.871,-82.43159
-687.6052,3230.5603,-260.14188
1054.0742,1578.7319,-788.7697
1213.1963,29.25054,-94.04811
1158.5067,348.8934,83.52467
1288.3395,-295.49936,175.76047
1430.3522,271.77716,-69.5557
1356.953,-577.98206,168.8379
885.3638,470.97903,31.860483
889.4331,-425.00723,492.89862
298.69803,3233.45,-54.81672
-4502.328,10031.608,-1958.0646
-2251.3965,3282.0767,-895.0316
-498.35663,244.73737,-244.14536
-1142.6692,479.90714,-100.11773
-558.3142,-738.15,-74.32176
-1015.6323,-451.10287,-551.30194
-969.77716,-2041.9308,-914.9829
-1366.279,-1643.4895,-751.89264
-1936.4617,-1034.8386,-342.49176
-1755.2644,339.1717,-305.4038
-1635.5269,-572.4281,-749.0122
-6031.081,8281.024,-1983.6641
-875.1045,6705.586,-402.57477
174.76434,373.81076,51.174946
234.5048,545.24524,111.15802
1380.4154,-169.99437,-40.01725
1378.5731,118.13762,124.263504
1819.134,-173.3547,277.2136
1143.4672,129.33734,478.5051
869.07587,-2.7946084,434.03726
334.40317,147.24055,273.28394
1536.8403,1425.159,-1548.2075
-2597.741,9873.303,-3463.362
-3176.3906,4053.1147,-2239.633
258.7971,34.946507,-369.52725
-1898.1097,907.03455,-374.36896
-1445.0027,-400.35864,-77.12708
-2108.2986,-1161.2744,-458.82706
-994.3271,-2393.2869,-612.0858
-1317.2462,-1667.1162,-385.44986
-1198.7344,-537.4742,-167.68794
-864.6997,-156.00517,-231.72255
-1333.9573,2255.2844,-71.70589
-5179.9233,8308.808,-860.1762
-1503.986,5230.9077,-304.92346
805.3002,1153.5487,-492.69968
480.5234,221.9056,-346.54016
972.79504,-264.17587,-232.15866
891.4739,-215.72127,-414.56348
1065.8235,-433.7867,-210.19902
1216.5654,-353.16995,-231.00102
1174.098,-409.05795,91.36413
743.4242,-151.74953,-183.7997
1848.981,438.45248,-82.49467
-673.3486,7020.334,-3342.5996
-3233.1643,6246.8145,-2550.488
1268.518,196.56592,-642.96533
-1430.3457,856.74286,-669.44336
-863.02527,-571.18274,65.00113
-995.48114,-46.450478,-51.327938
-1243.5275,-1274.9746,-432.1592
-1439.1956,-1246.2239,-709.3113
-1836.6678,-936.9305,-867.5084
-1832.3356,-419.5201,-659.3551
-2988.8958,1869.5409,-882.1411
-3738.311,8590.238,-1267.0222
-638.54156,4969.6455,482.18604
850.6885,1198.9951,-328.11343
1350.8422,95.64309,57.519722
1093.9054,-33.430435,16.528284
1593.7509,-179.77223,361.8825
1924.2134,245.16576,350.21066
1440.5642,-387.57602,681.1855
710.65485,352.55423,227.67555
896.05914,-632.0842,125.626816
1120.6447,4434.1064,-1080.9353
-4397.675,10624.538,-3028.031
-2173.7947,1845.0574,-908.9769
-177.05023,787.68896,-500.25067
-1692.8352,114.552734,-86.88971
-516.6537,-198.47554,-23.527735
-1486.3799,-580.3263,-461.04514
-1258.9613,-1297.5168,-1182.1018
-1626.1346,-1183.4556,-903.61597
-1288.4415,-342.14383,-279.96304
-1557.2103,-373.34033,-212.48927
-1748.6553,900.11145,-536.79694
-4104.736,5930.7563,-732.8289
-2285.3682,6546.849,210.93704
216.6805,1481.329,282.90164
657.4019,1284.1588,-312.8257
903.58014,39.14002,3.8502743
1285.3243,141.44337,61.017876
1662.5715,-166.84798,277.37494
1519.965,169.76797,72.41734
1095.4397,-240.63898,248.5549
644.9544,454.6042,-201.96812
1350.6893,-63.532185,203.99236
-1267.3354,6679.7944,-1114.7554
-4704.365,7378.8667,-1475.3949
181.21439,437.23175,23.114054
-987.43896,1092.061,-374.30396
-930.6067,-28.765009,42.821453
-1483.0592,-179.15599,-223.79904
-1363.7622,-1316.8387,-744.3178
-1236.3815,-1505.0105,-820.7935
-1307.8385,-686.30646,-59.66217
-1302.7029,-283.71268,-108.90475
-1195.0784,1440.2527,-588.11017
-2973.8198,5937.2505,-1378.904
-1293.1466,5900.9805,-397.21198
481.45602,1337.2449,-66.52399
823.2879,871.73816,-462.23566
1103.3584,128.67584,-210.41652
1287.6608,-411.2253,-39.470024
1495.4883,-439.68112,519.7062
1203.3588,-231.90813,368.20535
942.6856,-599.1852,373.6971
781.4785,-104.03506,-403.91345
1868.1652,23.056273,377.14185
456.8232,7101.611,-1523.1003
-2504.2483,7304.8735,-1586.14
114.48152,609.29565,-0.9321331
-649.3244,981.45905,-627.7489
-1248.4404,-172.57913,83.1174
-1333.0188,-582.95264,-20.33698
-1338.0085,-866.14496,-26.808464
-1663.6259,-625.4684,-411.05994
-1244.4873,-424.48145,-228.1856
-1352.6101,-486.54498,-508.20227
-1506.7179,1945.1208,-527.08435
-2850.7063,7622.0527,-300.16064
-416.07397,4659.64,387.14328
903.3362,1319.9513,158.63399
1145.734,686.76404,-182.50568
1152.39,-11.45532,125.04469
1059.5546,-496.02985,176.15799
1022.6139,-454.47513,373.79565
1107.2068,-222.37326,61.899517
806.9115,-216.33423,391.5533
849.85834,-38.491657,-327.50256
1816.0403,306.9604,681.0337
-461.27496,6848.0103,-860.45074
-2845.4648,7756.3125,-1708.8424
305.6165,749.97754,508.95212
-704.9256,955.51416,-563.08295
-860.1635,-182.34364,-174.05893
-1413.6521,-1039.2528,-890.2837
-1151.7747,-1382.0029,-784.5533
-1756.8966,-1125.994,-786.9093
-1306.4746,-699.37616,34.089214
-2137.6658,26.308605,-354.8421
-1993.4419,-153.37317,-348.3076
-5182.437,2557.762,-281.02313
-5389.379,6847.3467,35.018383
-604.5784,4176.614,-53.508255
595.32764,1064.4598,17.184689
746.5731,1090.2657,-248.27704
1636.0571,132.26515,-61.2676
1255.4479,720.78925,62.9856
2048.8833,-64.137405,182.36795
1248.6361,370.9042,122.07856
1039.516,-60.768402,256.32422
229.47478,512.8023,6.111114
1129.8563,808.0686,-124.98903
-2888.3057,10485.44,-2293.8914
-3632.0046,5257.1597,-1476.6846
-1066.9248,563.8244,-569.43176
-1759.2771,583.4557,-470.06396
-1186.1738,-612.34814,-234.4111
-1186.5149,-817.30865,-148.55498
-771.0078,-1541.8384,-377.37595
-1458.8083,-1187.6849,-776.279
-1377.2334,-1073.6091,-299.075
-2044.559,52.90715,-171.25826
-1662.3364,-581.1859,-206.6404
-4258.604,4061.462,-903.525
-4134.255,7956.173,-42.30089
-426.3629,3012.7715,370.90475
824.72473,1190.2108,-306.58426
1160.4633,421.205,-20.68496
1013.30414,-44.27208,93.068436
1134.6165,-154.90938,201.08498
1030.8995,181.67412,349.6198
948.1688,66.483925,316.00003
826.0727,-124.43689,419.32953
475.31094,98.4155,-38.679893
1287.79,662.1927,220.11322
-1355.8235,8381.293,-2199.9434
-3869.5505,6114.913,-2090.8276
144.04572,397.04855,-343.17612
-922.2226,880.1621,-1005.7417
-931.15765,-381.15582,-245.68478
-1375.691,-467.11072,-402.82645
-1237.1938,-1059.6991,-411.5217
-1536.2269,-898.6941,-934.7778
-1176.9121,-659.7941,-295.22668
-1424.8821,-304.7748,-98.05778
-1421.0979,853.8755,-230.47182
-2848.5293,5229.544,-921.57526
-1795.9384,6539.5435,-416.83893
352.90118,2300.245,-143.45221
1013.8674,854.91266,-357.83957
825.9436,382.4712,-236.10759
1112.2767,-412.65744,-67.3427
1421.3862,-332.00845,-56.54206
1597.6586,-191.49529,141.07295
917.7845,-103.16636,427.2422
755.15186,-107.5483,-40.194374
1635.5083,158.61147,66.64931
476.1465,6173.6646,-1746.883
-3622.0403,7418.5747,-2381.3696
292.01962,1002.4458,289.48456
-603.1697,955.9436,-829.16504
-1160.2167,79.42492,176.70052
-1282.5927,-522.4036,-245.7319
-1310.9757,-1291.6335,-426.44455
-1625.8018,-1136.618,-841.5183
-1589.5134,-756.92896,146.75879
-1696.2728,-438.7648,-445.69458
-1846.9314,696.7101,-210.68352
-3716.1753,5738.3843,-922.0413
-2920.6514,5185.022,-362.02396
-842.7337,3563.972,551.9461
809.47723,490.58505,-595.5502
628.5123,602.1284,-523.5868
1651.161,69.306816,116.58863
940.1144,371.69382,205.77553
1629.7905,-401.94455,640.87695
900.9363,230.46559,319.4548
1195.0,-236.72466,496.529
242.8324,209.50993,-257.8711
1804.1117,1088.3531,-251.67068
-2542.8445,9631.815,-2802.0059
-3431.8613,5354.2793,-1616.6025
68.4876,566.5774,-314.80997
-1809.7974,893.5386,-143.81767
-1416.0485,-485.54968,30.608515
-1306.9497,-1253.7537,-175.49013
-1529.1003,-1726.3451,-960.1185
-1479.9614,-1451.7968,-766.98413
-1898.9515,-510.30313,-192.73888
-1812.216,-314.91898,-208.69356
-2504.9478,3113.8062,-1296.2512
-3666.6365,7434.3457,-683.898
-936.1802,5172.2466,-41.047718
967.83246,1107.988,-202.48096
822.6065,1131.8857,-291.23535
1145.6375,-363.73138,104.79978
887.2035,130.47356,-105.04555
1256.3759,-228.00075,180.68318
1014.846,128.4463,30.086386
1168.3336,-411.47632,381.47375
641.4442,343.71112,-50.508175
1558.0669,835.12683,293.8158
-2238.2175,8701.525,-3082.2058
-3538.8838,5359.348,-1290.2745
372.0352,710.02356,-354.2434
-1043.9294,1111.0558,-629.0958
-1117.3855,-458.41965,-20.327776
-1311.5745,-488.40094,-372.188
-1568.2042,-1363.4795,-870.82135
-1591.7683,-1936.3022,-1098.1787
-1728.9825,-891.2091,-177.52646
-1774.5801,-319.17267,-229.08041
-2099.056,916.20734,-461.11783
-4296.042,4584.159,-824.14856
-2732.4922,7659.724,-863.1847
258.53482,2355.2146,52.523373
783.0654,1117.3517,-408.1197
934.5674,237.9144,-30.588366
796.91956,425.1307,-174.59474
1585.4691,-5.387501,107.987076
1620.6582,274.6892,5.524743
1502.3043,-152.31322,116.4984
992.04065,494.45224,-462.2387
1381.0851,-331.07318,-204.28981
-210.02898,7565.647,-2056.165
-3535.5276,8314.878,-1880.441
-1330.0143,1468.0392,-529.7021
-1721.4965,1079.5184,-320.86365
-1591.2422,-190.56396,-4.4659486
-1287.0839,-126.293304,-113.72383
-1616.1139,-841.41986,-467.2673
-1815.2922,-1720.0283,-876.92993
-1611.7004,-862.4816,-644.316
-1312.1698,-443.54132,-228.67146
-1068.6447,693.95496,-176.84286
-2187.241,4111.9644,-1648.4568
-2095.981,6756.4795,-1588.4601
352.03867,4279.969,-519.4206
1115.0973,1023.6929,-316.831
1020.048,710.7557,-49.350994
1065.9213,-71.82288,10.193892
1183.6797,193.51404,284.16574
1175.7866,56.065224,286.6858
1051.7518,-177.51456,339.08777
844.9425,-140.41997,9.881964
854.91583,-239.29318,140.33014
1240.4103,2561.9717,-122.633224
-1950.6685,9148.09,-1735.7632
-1395.4281,2726.2031,-789.4217
368.49146,979.0013,-362.30438
-954.52765,348.74362,-193.7202
-610.53424,-122.43603,-287.32904
-1210.005,-321.52536,-337.19104
-900.9838,-788.6793,-548.67535
-1210.3042,-662.807,-621.2229
-1193.9711,-380.78006,-353.26382
-1243.327,-86.987885,21.989466
-1175.252,2041.0955,182.74368
-1952.9207,4627.2104,-263.47952
-738.9719,5960.7383,-43.51422
629.5438,2175.8325,195.68488
1150.1366,1125.326,-276.98703
926.96313,439.49893,-109.85345
1134.3281,-142.93413,-148.02489
1137.6592,-102.165276,126.96386
1283.7482,-51.193512,181.90865
829.257,-227.8192,239.21999
747.2492,-101.79857,-4.082241
934.785,-138.31567,-53.268383
1513.2063,2546.6934,-615.3219
-2309.84,8222.226,-2235.9072
-1504.7239,3887.5813,-649.58295
466.66864,535.6716,-412.06824
-1003.8806,758.16455,-104.31178
-1070.6359,-66.84461,83.06741
-1282.0962,-440.9096,-109.24716
-1497.4279,-632.53546,-485.43604
-1268.1865,-881.9725,-331.28836
-1074.4147,-505.21906,-154.26035
-892.0432,-398.56976,-118.29717
-1106.091,1236.632,-236.64734
-2579.192,5198.7627,-404.50653
-1405.5486,5595.007,12.500093
213.74323,2113.019,330.9748
228.91148,1028.0631,-70.523796
522.51654,518.0115,-57.035156
769.8989,-144.49646,-80.11962
810.4565,18.650343,83.806526
1172.5692,-193.06229,107.48467
990.30414,-277.9719,199.05893
847.62366,-134.18694,108.39336
869.93567,-58.270172,-81.54173
1850.131,1155.6774,-84.158264
-1006.2339,6792.851,-1835.2897
-2620.7644,5621.077,-820.22577
-103.372505,1311.2722,27.503864
-1384.9432,1305.0432,-55.54813
-1198.7227,234.19868,245.85048
-1476.7389,-471.91495,-169.6317
-1107.0446,-1272.9769,-517.1431
-1183.4675,-1302.9207,-703.6374
-844.76215,-604.1281,-146.93762
-986.4054,-474.22302,-89.89074
-1095.106,1636.4366,-209.73093
-2214.3484,4400.97,-662.36444
-1043.458,5453.369,-241.73993
404.16364,2715.2556,-135.68341
775.7922,1038.8173,-118.10239
604.2912,893.06964,-112.809875
942.1471,-165.35374,70.12453
704.2541,237.18593,42.909733
1063.6534,-296.29178,252.09386
964.8562,109.921524,133.61446
1116.6637,-434.39362,192.40634
1005.25507,509.5486,39.925167
1313.2853,483.3995,202.11197
-2342.3213,6610.4683,-2659.0623
-4026.8071,5782.6753,-1404.245
-38.053963,1103.445,-570.5587
-742.1868,1236.3197,-481.8245
-1028.8928,294.57214,234.51762
-854.6778,324.377,2.5358658
-1018.8901,44.063763,-243.5908
-1143.2272,-204.09215,-420.69412
-1289.036,-510.72366,-340.8568
-924.1014,-425.38165,-426.32715
-1135.1882,-377.6333,-402.80276
-964.2569,273.66687,-352.2396
-1844.6952,894.3777,261.8226
-2770.3713,881.9834,177.4869
-4012.3223,842.1734,-345.3806
-4920.0117,1091.0815,-974.1248
-4049.1072,1427.0818,-1534.3091
-2324.1545,1723.352,-326.5304
-1983.4951,720.33325,-269.76035
-1549.3369,1027.6593,-601.38214
-947.20746,1152.286,-1022.06464
-428.43408,1037.5732,-950.6096
-473.61002,922.04974,-542.3908
-441.99432,989.8752,-571.60223
-280.64633,1124.1414,-727.5177
-632.27405,1102.6227,-829.20636
-1163.6559,996.44104,-581.6021
-1323.3601,971.7355,-405.11853
-1963.5042,956.9068,-419.9769
-2833.7966,1169.0414,-468.9389
-3602.3157,1169.9867,-516.3039
-3655.9504,891.25006,-576.02155
-3841.7625,583.70135,-438.57742
-3304.5366,239.16457,-254.68214
-2718.7725,194.33807,-118.04289
-2015.3259,170.10829,-76.78395
-1601.5897,317.33234,-57.591248
-1257.61,282.09518,-43.693016
-1193.3212,310.3961,-75.87206
-860.1477,145.29144,-61.863613
-754.9276,86.65576,-86.47221
-407.30963,27.85352,-17.884
-420.31885,29.856018,53.224293
-232.06616,-58.5662,60.135704
-47.68192,90.968796,160.09297
470.6338,21.784286,305.1307
246.13573,65.24215,328.02954
143.80728,-75.51215,431.44333
