# PAMAP2 dataset (wrist-mounted sensor)

acc_x[mg],acc_y[mg],acc_z[mg]
-763.41583,1159.9473,305.45325
-203.90977,826.52893,441.79474
-279.73563,1364.6398,283.85254
-160.87155,1672.153,319.32187
-267.5782,1595.8398,338.51782
-195.45456,1019.86115,430.74573
-238.74603,727.7388,450.9511
-222.65706,686.4625,511.15012
-382.88565,851.9178,477.30746
-612.1151,1095.8368,473.96298
-1001.9268,1177.7058,330.09357
-993.98224,804.54767,226.13208
-918.55505,594.89215,232.31943
-780.895,498.55533,228.53394
-687.27625,367.2711,53.44219
-447.62012,-56.901035,-15.99276
-584.0383,-123.802246,34.083157
-587.3611,74.78424,-6.806008
-1286.4794,971.19666,165.39107
-2293.529,1416.0536,126.90867
-1950.353,1644.4746,71.45677
-942.9037,2065.5317,189.28838
-294.6729,1176.1229,-107.52873
228.33061,444.45078,-212.63339
376.0068,313.85513,-108.55957
476.61838,595.75006,-138.39418
498.74686,579.046,-51.03726
472.7143,574.7116,-30.58791
195.95921,1176.9248,102.61066
-372.8913,2625.7773,3.575924
-2152.771,3703.1233,-347.6181
-2047.3622,2201.7903,-458.89957
-1326.2554,925.0194,-233.1093
-1054.8438,619.6327,-269.4048
-728.79254,132.17207,-154.801
-714.53546,-245.5646,-225.86797
-634.03564,-706.3891,-360.42697
-722.74646,-830.96454,-357.65143
-849.78125,-581.416,-127.87706
-817.57654,118.17016,-62.60611
-1631.1361,1315.73,84.67853
-2001.9121,2757.2698,183.01509
-1138.2936,2479.9204,62.063057
-480.54617,1417.659,1.6582437
-22.665257,1006.01,0.304788
244.11345,920.57294,-54.089493
600.6875,573.33435,-87.11878
789.4679,224.75964,-55.53747
782.2286,197.2259,18.582209
602.5329,422.1003,-6.551588
486.45438,1046.0286,23.97711
-32.790863,2966.089,-123.37818
-991.35986,3623.7012,-281.09164
-1263.0048,2658.291,-148.42807
-1074.8613,1708.7843,-98.7129
-1072.4763,1050.5135,-46.780216
-912.76697,454.94882,-91.31611
-833.33777,-188.92334,-123.605705
-872.4509,-548.2554,-178.04819
-924.8658,-840.86884,-310.56
-998.76904,-745.8478,-217.92357
-1060.85,-60.460922,-86.48954
-1585.0212,1087.8702,21.606508
-1768.7902,2475.5544,226.17719
-1381.0878,2883.7542,168.63737
-783.7645,2093.49,113.93033
-311.41443,1451.7196,71.321434
-39.46707,1160.095,75.44508
269.37872,979.4127,-20.23019
593.78894,540.14703,-48.748997
860.91516,335.17303,-47.120228
931.3301,328.98856,15.789374
740.67377,563.45245,-17.056475
610.6012,1133.2551,-101.194466
-155.56699,3169.8696,-306.1903
-1367.1945,3870.2617,-366.9278
-1621.3997,2873.0913,-256.23553
-1530.5122,1609.1803,-151.65987
-1352.3109,989.0935,-81.04916
-1044.7452,465.1285,-128.28444
-819.33417,-2.940201,-160.26248
-832.5188,-436.8477,-254.59178
-867.2249,-769.2389,-340.25967
-911.6585,-915.15765,-357.41528
-971.73846,-428.32327,-129.91187
-1136.1335,220.05685,-4.7740393
-1831.3329,1622.9725,332.1633
-1943.2606,3023.1316,455.1556
-1225.4308,2614.0015,350.00256
-621.3664,1545.0167,224.26819
-264.02515,1079.1611,75.280815
-51.07998,1128.7458,12.939429
235.70467,991.0256,-71.1974
519.7919,665.6371,-71.45209
758.61456,485.2013,-124.19253
851.2239,475.11444,-64.69766
724.7809,693.0424,-109.15105
463.03238,1568.4191,-236.83823
-426.3597,3209.2952,-559.44977
-1256.9524,3619.5862,-499.9533
-1419.2103,2468.0989,-354.14795
-1337.3428,1334.0485,-246.41733
-1112.1747,844.42456,-120.502426
-704.3521,402.425,-126.91386
-610.14087,55.707634,-167.21715
-774.42737,-351.6574,-312.87567
-932.8339,-670.37634,-429.27682
-1053.911,-765.2555,-341.61887
-1039.8153,-323.22607,-115.49
-1192.2756,123.416664,-20.354704
-1820.2303,1261.6746,369.2593
-2019.571,2738.1692,565.7613
-1397.8234,2757.437,387.4062
-690.9715,1797.1464,256.8809
-311.05313,1197.2258,99.51755
36.019894,1243.8435,24.332695
353.18848,1087.5334,-69.39578
643.2644,720.26776,-126.02419
941.53564,382.01205,-161.60608
945.6335,474.24536,-45.806652
762.6894,740.14764,-21.807652
280.4747,1719.1514,-149.01595
-636.9365,3322.1772,-367.1176
-1232.769,3324.989,-329.87018
-1333.5427,2395.625,-233.93536
-1383.293,1630.416,-233.50183
-1225.3059,798.77594,-267.08813
-786.62885,255.06813,-237.98102
-673.02014,-124.08746,-276.41702
-786.63556,-468.76834,-294.9675
-960.5323,-642.1058,-334.3943
-1035.9246,-635.71564,-306.12152
-969.11774,-293.63956,-63.537487
-1171.2335,538.3258,-10.009704
-1700.3733,1978.3934,240.57414
-1404.7524,3076.5664,243.12029
-831.3399,2488.5872,307.49963
-432.16806,1636.4167,150.32626
-146.21036,1175.2153,76.93689
162.27545,1042.6874,-24.479877
387.5053,903.648,-52.896637
651.30206,542.48206,-97.08209
824.0791,362.08673,-72.70798
835.4898,422.69168,-37.92481
563.4126,1114.1794,-52.60878
36.482277,2654.1262,-348.46173
-978.95294,3821.8936,-511.697
-1567.8036,3037.785,-263.0255
-1335.5879,1630.1959,-205.98364
-1236.6935,844.31213,-152.26869
-1092.8943,326.36255,-220.13144
-853.90564,-120.803566,-240.8501
-816.91095,-475.0771,-191.42348
-865.90533,-806.5695,-171.74284
-941.03815,-817.66675,-254.86021
-865.70447,-530.0223,-50.91626
-906.1188,363.47192,96.80497
-1525.79,2147.951,394.0376
-1467.6,2819.6318,509.32425
-778.0211,2316.3926,323.18164
-376.50946,1842.3223,338.6861
-198.56058,1418.5251,239.81052
-57.947823,903.5243,134.39075
177.00371,616.024,0.7717814
319.6418,499.2701,17.909073
498.1198,371.10794,11.379045
588.0554,270.5063,42.727013
501.63858,563.1854,89.42739
255.41298,1501.3098,205.98334
-499.97168,2909.0066,97.26298
-1751.1367,3410.0903,-171.2455
-1517.686,1997.7631,-115.37723
-1231.4672,1128.0442,40.757927
-1023.7613,639.50476,-93.9626
-830.87085,228.3987,-113.24424
-791.87,-59.0901,-158.31125
-812.839,-414.05145,-193.91302
-791.5559,-749.1769,-338.41003
-843.6708,-752.2909,-255.95152
-881.0564,-190.14333,-72.30874
-1286.0065,1069.2694,79.15214
-1695.8827,2176.5906,389.52136
-1304.7231,2469.2935,330.9273
-743.29083,1944.0889,228.02136
-317.72806,1375.1456,229.78639
-134.32312,979.2411,156.70668
69.56656,865.4072,82.714424
292.93842,616.3767,40.36742
492.33737,429.8176,31.212282
646.5195,289.25702,26.829046
664.31793,429.24652,72.257706
554.9742,874.3281,115.51095
91.79544,2347.3254,51.141167
-1129.4132,3492.1628,-256.80707
-1600.8843,2764.4722,-163.8862
-1193.4092,1509.1864,-1.3392372
-1076.4542,806.5555,5.341454
-865.4826,397.8243,-61.162197
-716.75684,35.676853,-113.00922
-759.9586,-222.96227,-198.00792
-897.75256,-579.1554,-344.6571
-1031.1703,-785.534,-355.70868
-974.8021,-358.87384,-187.50049
-1279.0277,591.72363,-30.376144
-1791.2557,2272.5479,120.86538
-1062.4406,2569.2126,126.11491
-606.89355,1937.7366,171.18356
-230.15083,1517.0201,30.296822
85.30705,1168.1549,8.642876
353.24097,986.6908,-66.71316
592.4631,689.3847,-46.421154
769.2369,399.13858,-20.704763
731.4805,389.40964,37.300438
600.8754,613.92755,13.357956
464.0937,1473.1714,-52.12317
-293.9175,3160.3828,-296.38156
-1060.3014,3392.9749,-364.42307
-1089.1432,2248.8994,-209.08838
-1061.2931,1260.1545,-75.27602
-950.5659,692.4308,-81.714455
-834.55975,192.60683,-112.26117
-812.5084,-194.0741,-216.204
-1003.9597,-563.986,-286.02002
-1181.5074,-657.53705,-347.36368
-1101.8405,-370.12552,-139.94832
-931.5275,273.55188,-30.474274
-1247.199,1598.0684,379.1266
-1202.9203,2909.9504,522.84247
-740.4424,2586.6099,346.1287
-295.61618,1811.3229,277.2297
-28.771725,1269.0972,207.74608
220.9718,914.41345,54.78955
512.21857,719.9706,-33.31158
781.415,450.27792,-35.431694
931.17395,281.8319,0.45927423
870.6326,442.52,41.94002
657.2456,1096.0906,187.37831
106.3905,2998.551,144.99773
-1142.8081,3799.852,-93.16448
-1341.4825,2376.506,-95.4801
-918.49744,1367.7008,-34.797714
-900.1087,964.7003,-120.70275
-698.91974,390.19043,-181.3566
-656.1072,-172.9499,-253.7995
-821.8614,-525.1978,-291.78348
-1024.0856,-672.6126,-335.60474
-1177.6211,-438.11386,-232.3339
-1242.191,326.29977,-175.89651
-1875.7534,2187.2224,109.57486
-1451.6526,3007.4185,260.11673
-632.24554,2186.1746,298.23666
-91.040924,1378.1008,193.1582
223.28868,1149.8698,157.52173
357.69632,955.5078,88.98079
641.81354,483.5898,53.230316
726.20685,179.81247,44.060432
703.1002,257.27383,81.973045
529.8738,567.856,109.12114
416.04718,1227.7432,213.6703
-258.94943,3266.8647,94.51863
-1243.585,3415.477,-93.58944
-875.1882,1821.614,-4.6774135
-768.1912,1475.115,45.029076
-878.82825,1090.6848,-20.237986
-761.2213,515.5033,-145.1852
-612.1955,30.254358,-181.23936
-735.0919,-172.55977,-192.28123
-938.6065,-379.2395,-193.12805
-994.5953,-451.2581,-237.86664
-992.37683,-332.7065,-43.491627
-1179.3419,594.07874,45.30788
-1407.8416,1682.0771,363.79883
-1132.7291,2528.372,457.9888
-729.3026,2269.4727,362.66235
-451.86435,1604.5237,204.64474
-231.42722,1187.9835,107.63013
-75.57838,1140.4539,78.25798
216.68721,835.9761,7.4895883
528.30774,454.3527,-52.326004
795.2093,332.74365,-68.42329
791.17804,545.6182,-49.27164
706.6471,838.3233,22.58799
254.50725,2083.6208,119.988464
-638.17957,3225.941,-50.166367
-1123.3018,2809.0254,152.70155
-1152.3267,2142.4436,198.99486
-1266.511,1309.6622,86.00475
-1059.6721,614.2576,-88.79205
-884.59955,160.39037,-109.38816
-768.3531,-75.52052,-233.09595
-793.8247,-419.22168,-291.15283
-877.89636,-516.11664,-291.41522
-881.05695,-368.65445,-151.75917
-909.5935,-32.454605,-3.723159
-1251.7938,777.4108,220.41444
-1458.6208,2007.6343,456.42096
-1238.1296,2495.184,470.55148
-825.12976,1867.6198,275.9127
-518.57477,1320.9122,201.83896
-301.56152,1254.9816,169.06895
-20.227474,1177.7509,127.130684
311.47165,687.6469,73.33516
553.6209,397.44516,6.726117
732.98834,242.92067,-8.532815
678.55963,366.37067,26.737993
609.7248,531.89,2.1974616
218.90787,1810.3965,154.79356
-608.89923,3321.8677,11.38882
-1019.4059,2998.4119,-63.59605
-1142.6005,2461.158,67.44094
-1217.9806,1559.8685,-3.5526812
-1076.8312,648.32294,-108.91456
-876.1274,184.66985,-151.55573
-819.636,-25.63995,-198.74628
-851.7516,-197.76709,-195.77464
-962.84607,-287.48575,-248.12932
-1011.2119,-565.937,-235.96057
-942.589,-267.52057,-101.84844
-941.6821,67.843124,64.15401
-1512.7212,1721.0349,560.7247
-1664.0316,3077.447,688.7691
-1065.562,2415.9822,473.97842
-447.316,1659.973,423.52594
-131.22536,1311.1499,305.93417
116.069885,996.5168,150.63557
401.93454,650.7401,40.591896
616.4433,504.61203,5.1957464
753.8628,301.41095,-32.991074
672.3372,448.44293,7.9729586
544.3754,902.3048,182.87608
80.38364,2315.411,295.99515
-958.7523,3418.202,77.19452
-1413.103,2770.6565,237.43297
-1120.92,1732.9974,223.20082
-1182.8364,1108.6665,102.6666
-1005.07324,606.03186,-79.58968
-809.13135,159.20636,-166.75494
-805.685,-129.87373,-295.64374
-955.55927,-396.5776,-346.50638
-1018.3348,-586.4245,-461.94678
-954.4759,-473.53372,-252.81677
-906.5648,-40.924538,-70.168785
-1396.8889,1182.5305,159.35658
-1652.6162,2707.1584,375.12704
-998.2481,2794.5369,348.79913
-460.96716,1834.3818,334.8562
-191.81398,1145.7313,124.972786
34.782158,948.01654,75.925934
286.74954,929.9294,-14.118768
549.27454,577.2744,-62.68648
686.1397,377.32822,-116.42119
763.5513,467.03925,-68.04499
643.7632,698.2315,-26.698004
407.42062,1634.0116,63.51981
-453.9163,3031.8633,-122.891884
-1120.7661,3114.2424,-192.51575
-1097.3098,2429.5095,5.1303596
-1078.7175,1761.6544,-9.237653
-992.85223,972.2856,-57.190964
-776.73206,323.40604,-94.65374
-679.84875,154.49687,-105.15645
-771.0018,50.530468,-181.69728
-966.8878,-138.70375,-184.95386
-984.1609,-395.373,-272.823
-985.36835,-494.31522,-133.49771
-879.22876,-149.46786,-26.908207
-1077.4972,816.4974,217.66861
-1336.8123,2454.4387,604.74225
-995.77747,2905.4995,466.8486
-552.3579,2152.916,375.08575
-151.55617,1479.5587,348.8707
15.481791,952.62256,295.71582
197.87769,706.9703,168.21536
332.70926,448.03912,138.56212
466.93878,272.16177,118.615814
542.8302,341.843,149.68352
477.21503,551.005,145.69807
196.16522,1135.4111,449.09842
250.00662,2496.73,286.6217
-1337.6953,3454.929,-99.60875
-1231.8173,2304.6494,-17.96614
-1065.953,1568.0846,36.16677
-1026.4117,1000.5551,-32.858105
-807.94904,412.72867,-138.86559
-780.49835,64.282616,-142.09671
-883.6917,-177.46587,-159.01244
-1007.6652,-475.40488,-246.2546
-929.77454,-633.3665,-296.73233
-969.52563,-374.96158,-96.70623
-879.6814,440.15,-38.432484
-1298.7877,1911.7338,288.59518
-1196.2026,2539.1396,226.35202
-709.9524,2459.8438,69.86636
-267.09583,1920.932,125.42902
-77.3534,1177.9615,55.47544
161.69046,702.91327,-31.998589
408.4296,645.4618,-46.23519
632.3412,465.2125,-13.221472
784.56366,257.80518,17.540096
798.0426,365.20895,61.6937
582.7177,941.82733,126.10019
85.01289,2704.2563,36.428093
-1385.9949,3803.7075,-222.70036
-1356.1034,2485.1714,-64.53962
-1061.473,1393.7538,109.69304
-1083.8081,843.78986,-2.7147553
-909.8921,300.17657,-95.18046
-874.90814,-124.6549,-172.33075
-949.54004,-554.89215,-317.02664
-946.29785,-895.94794,-441.38928
-970.5932,-692.0314,-317.62784
-790.1343,-403.22192,-136.49438
-1456.5148,1178.1292,176.64238
-1784.6569,2903.6946,371.58884
-952.65063,2756.3704,212.36717
-480.68765,2050.0273,255.16727
-101.42544,1259.7527,116.03564
46.225246,912.0004,90.185875
263.55518,846.0269,27.40247
432.8199,638.8877,67.387314
625.3198,424.58054,7.7219906
715.7183,353.10492,85.088234
604.4564,643.4187,88.56171
395.82275,1665.2137,29.878958
-347.75153,3388.9424,-355.30237
-874.77344,3393.3352,-527.817
-971.8104,2580.9165,-244.57516
-1099.3895,1808.7904,-181.91022
-1076.5061,803.8181,-191.54314
-919.1507,110.03332,-286.49
-915.1773,-238.4139,-446.79382
-1287.4141,-578.2024,-664.567
-1464.9393,-832.8309,-699.1177
-1197.6436,-751.701,-424.53027
-1080.3861,-71.077515,-104.41441
-1740.1349,1625.3424,211.55731
-1393.5597,3011.7876,338.67944
-826.18225,2984.3755,352.79053
-476.49435,2101.9019,261.98395
-234.10443,1409.694,129.95209
-7.3649383,1141.8274,122.54313
289.55762,1067.6292,107.4527
490.8986,704.0025,53.715942
674.84937,360.6016,-18.19969
715.9863,310.63852,39.962368
557.5805,546.53613,6.8913927
196.18298,1644.5723,18.222551
-743.1717,3471.6545,-264.6179
-1417.5538,3433.0195,-282.61203
-1370.1415,2164.3179,-110.86502
-1369.4719,1335.1957,-41.90244
-1392.098,760.0467,-65.744095
-1141.2421,182.64714,-113.14481
-918.03986,-260.1867,-172.18181
-909.0114,-543.391,-199.9558
-981.01654,-774.0178,-300.31616
-963.2609,-748.11884,-234.59201
-1051.8562,8.465555,-25.015604
-1403.9414,1111.1658,99.53656
-1568.2343,2151.8281,335.95972
-1260.765,2618.9673,372.75317
-861.46204,2291.519,329.04816
-497.56573,1684.8445,214.5069
-268.05252,1255.0933,133.4695
20.961353,1111.6001,81.94548
310.12872,787.57513,-16.037203
620.0868,522.5191,-112.04258
847.66956,416.49506,-100.8763
888.3166,464.06888,-70.12755
609.9168,771.62537,-19.745125
-173.80202,2402.9436,-27.97323
-1130.954,3679.9858,-243.51634
-1809.592,3226.9043,-174.61978
-1741.1909,1840.653,-216.29292
-1484.9298,887.27264,-245.381
-1121.4873,330.48965,-246.87628
-848.0524,8.052481,-235.76756
-822.06,-313.93878,-325.07263
-888.0851,-555.21173,-328.3507
-972.58026,-638.7562,-329.67673
-899.0048,-416.25778,-87.38067
-1031.5565,298.61017,103.66912
-1377.7755,1570.9208,468.8871
-1397.9352,2578.5935,556.9909
-944.6374,2331.847,379.50345
-505.91693,1798.9083,306.69183
16.747627,1256.611,184.47992
256.32883,908.0437,66.78384
479.04395,617.6233,-11.184426
573.72296,378.91547,-44.873642
689.2077,199.66861,-48.267048
566.64844,298.6549,39.80278
406.94965,669.2055,106.87706
55.46241,2068.6306,85.41452
-727.74115,3209.1284,-219.60867
-1211.7303,2822.2234,-146.46034
-1073.0192,1949.6224,-74.28105
-958.27014,1091.0829,-70.25123
-845.5584,548.41656,-115.70876
-729.07117,75.32066,-97.76911
-717.1505,-283.8731,-176.14206
-790.6355,-717.9411,-260.99857
-910.5431,-831.52795,-324.13208
-860.89685,-575.68164,-106.90298
-1081.0737,186.41206,65.79756
-1669.4036,1516.5663,295.0318
-1700.7981,2534.8918,462.4492
-1167.2676,2308.6963,309.34042
-776.9496,1555.9413,189.76114
-474.3855,1222.368,66.688385
-190.92813,1201.9277,14.866853
146.33647,948.9157,-78.18034
404.0041,619.498,-110.038055
587.6959,451.1042,-147.48195
762.8157,322.9318,-101.75823
685.8902,435.54883,28.250189
454.43854,932.5958,162.08101
-79.39508,2364.0002,225.84007
-1098.6987,3265.0237,38.33471
-1494.249,2507.4678,-33.430588
-1198.0306,1483.7821,-25.416946
-1100.9631,1059.6178,-88.985275
-930.0501,625.5644,-133.3083
-779.08844,95.947,-218.07632
-661.4856,-326.8473,-290.1284
-782.1688,-570.39386,-335.08783
-922.55634,-509.9631,-335.38004
-924.1217,-471.41803,-164.71776
-1153.5348,199.08357,15.197391
-1600.7118,1408.7882,446.6249
-1481.3477,2448.8672,684.118
-1004.0914,2110.2776,565.9525
-704.5807,1444.9233,395.21912
-360.7826,1256.5048,308.59622
-41.24255,1073.8917,217.8611
274.80496,706.52563,128.84052
494.26108,418.1783,67.10504
666.1852,195.42656,57.937897
710.2122,204.67247,68.45591
474.7324,468.04425,189.50366
170.6613,1557.5778,312.25702
-654.3512,3151.1006,241.29378
-1204.115,3203.114,193.73997
-1121.1344,2156.9148,101.002495
-1059.9178,1307.969,80.87576
-974.4199,822.3887,5.9421196
-757.50415,222.1293,-65.46315
-708.1827,-105.28133,-203.20023
-780.03925,-505.16046,-272.21457
-837.13214,-494.03345,-268.89917
-833.1622,-432.8639,-136.04636
-820.63727,56.686085,-56.822964
-1095.9998,843.807,71.144005
-1428.5342,2508.2336,238.17896
-1017.64624,3098.2786,296.0376
-520.4179,1930.1459,170.25694
-213.53458,1123.7567,154.4562
31.419506,860.574,181.57478
237.35776,816.8299,72.727234
455.91232,447.25668,36.58426
552.0853,319.47278,51.100044
645.50653,303.84317,80.94403
488.97076,448.4206,172.04422
-22.901356,1149.9446,524.075
23.567402,2683.088,108.28816
-1649.3654,3262.257,-284.075
-1093.7937,1965.1576,-25.332474
-946.7788,1520.6869,-17.314558
-953.0727,956.63715,-124.233116
-754.8829,437.82855,-213.87363
-705.72174,77.582695,-186.56445
-696.85126,-115.39847,-192.02843
-851.45605,-394.3078,-134.6412
-805.6422,-612.33856,-186.58322
-746.3163,-449.4523,-94.23906
-778.58636,70.72627,-160.08324
-1854.579,1906.1925,196.42625
-1766.9608,2768.9348,102.69409
-940.9866,2009.4138,-18.342321
-542.81256,1612.9407,30.05246
-171.56001,1140.4001,-103.327866
20.77281,875.6557,-114.023865
352.1087,631.62836,-152.43694
595.4093,517.61694,-109.35152
785.4383,541.52966,-109.0038
744.8902,580.71423,-78.01864
565.4377,1060.7382,-169.62091
27.336012,2416.236,-483.23056
-904.6986,2961.5977,-716.67914
-1234.3672,2627.2214,-511.95584
-1125.9008,1885.2805,-355.2472
-1193.4866,1108.3378,-286.5156
-1016.406,447.61682,-285.13126
-893.3552,33.95312,-193.92168
-810.2648,-218.73953,-131.54544
-896.8447,-258.26562,-69.25543
-991.02057,-397.73108,-125.85969
-966.50256,-303.95834,-64.398445
-840.46497,-110.01987,13.522081
-882.08154,979.7484,-170.43175
-1431.428,2455.659,362.0733
-1008.08594,2224.6245,419.73563
-553.79517,2126.401,10.885804
-128.98828,1779.1837,-18.185116
43.94323,1182.2823,1.3468657
231.12325,690.5627,-35.560383
423.9491,487.143,-85.13353
603.2988,348.62244,-59.2849
756.0902,368.1478,-17.044483
715.5051,441.12344,54.313206
530.24756,1297.8346,84.806076
-308.0875,3159.4282,-57.91433
-1621.0076,3490.3252,-187.63017
-1336.1023,1960.4935,-43.064915
-1155.0795,1028.9677,88.705246
-970.50684,614.34235,-30.410515
-765.0131,313.83984,-68.504875
-707.8724,-0.38720557,-105.76705
-734.55853,-384.20288,-179.56383
-781.2502,-775.33276,-265.3513
-862.0637,-670.70374,-222.80331
-840.33887,-374.98615,-78.1901
-1362.2167,1039.1426,-29.20285
-1686.8989,2239.3633,383.52594
-1255.4713,2135.5195,342.82425
-847.1709,2118.393,63.630802
-348.38373,1666.1852,22.424921
-199.77829,1099.9435,68.75866
84.80851,686.37756,11.19033
283.26462,644.3106,-43.035385
555.2427,444.2811,3.6140523
676.3399,355.28003,62.114243
657.876,355.94656,105.18248
169.80878,1114.8256,259.0503
78.752686,2415.488,-49.829407
-1621.6329,3429.5566,-391.25198
-1446.0399,2505.1223,-262.83084
-1071.5177,1422.99,-135.38783
-1072.1849,812.34424,-177.77133
-827.18567,220.40242,-251.7626
-667.1415,-112.20969,-211.13698
-689.143,-363.7327,-314.68378
-922.50055,-722.1254,-387.37305
-1128.6722,-716.27704,-372.9393
-1014.9326,-148.83046,-262.12683
-1177.0693,1049.7024,-250.78882
-1618.4347,2148.3828,369.80807
-1043.8895,2534.7808,321.4465
-646.7611,2131.5244,129.37932
-196.20793,1410.4019,52.21207
-17.146582,898.78705,108.526115
236.38538,749.19196,41.437683
415.10995,667.8677,34.17425
556.39294,337.07684,56.85393
627.3398,249.99846,94.907234
525.79144,347.27435,85.11559
351.48343,1159.1162,219.35483
-112.1604,2855.7222,-85.10789
-1350.3721,3634.6406,-300.92337
-1233.8604,2378.1323,-223.38188
-1065.7897,1269.13,-184.83318
-955.3742,685.43274,-236.18774
-905.9533,225.66052,-204.30861
-892.70917,-205.88223,-304.8569
-889.2717,-599.5998,-332.5672
-865.11273,-777.895,-345.95505
-895.3453,-524.8513,-170.41954
-919.5802,-45.31942,-79.274956
-1616.7668,1803.2355,307.13513
-1789.3019,3367.8916,405.00806
-919.08203,2178.6482,185.76172
-289.55145,1195.3148,221.1204
28.223358,962.257,158.38602
150.13469,838.09344,89.2054
384.7394,482.91925,43.99194
590.84015,260.7345,72.00846
652.8138,257.736,93.1364
551.81793,508.38153,152.90553
395.23572,1236.8271,208.55333
-340.64746,2910.3494,92.56494
-1182.5789,3188.0474,-114.03072
-1207.992,2105.9712,-59.277504
-975.7048,1168.6326,-95.142136
-890.3495,690.5183,-112.91938
-806.60547,277.12405,-146.08485
-721.66986,-92.02195,-183.61041
-868.4824,-447.02136,-245.36205
-962.0345,-545.7617,-314.9756
-925.67926,-425.85953,-168.81606
-905.7544,252.94788,1.9375571
-1242.5392,1504.2087,397.8446
-1170.067,2437.0664,599.8803
-808.14996,1998.6672,444.6629
-535.78595,1647.0101,374.25406
-232.36348,1406.5912,265.6934
68.15873,1045.3284,151.39923
425.62152,691.316,68.60065
694.6124,467.49976,51.023125
828.7338,224.67174,36.29342
773.08685,265.26135,79.72948
572.5711,664.10596,203.49107
191.96242,2475.333,322.7052
-1180.3396,3815.611,73.76379
-1365.7339,2511.5105,51.640762
-913.9159,1400.2479,71.43485
-905.7456,1056.5,-25.653185
-788.2025,681.42773,-147.4491
-731.58417,160.30493,-216.72958
-768.1737,-230.52847,-278.3469
-881.463,-481.49487,-338.71564
-980.6994,-512.80054,-355.30267
-903.5554,-377.14346,-139.08727
-1030.9752,501.61157,25.85033
-1527.7346,1987.4813,426.0293
-1197.65,2750.9546,466.29974
-736.5072,2141.1313,384.95148
-381.8147,1461.6064,213.79291
-193.26758,1141.2762,136.6564
-13.713098,1014.0209,27.759129
285.5697,647.88257,-33.393635
554.4168,366.58224,-71.925766
773.75867,153.2791,-74.55211
864.35,245.32562,-88.20786
770.8149,510.36542,8.337547
474.45596,2077.7593,37.962296
-856.1919,4040.4526,-274.60278
-1303.8075,3085.065,-127.71638
-926.48645,1768.428,54.04738
-1082.8854,1258.8386,-14.506774
-923.75116,622.32825,-131.42397
-740.6215,120.290245,-182.35516
-718.92267,-117.30831,-248.20755
-849.1983,-217.46498,-269.1771
-956.5836,-435.95648,-327.6418
-996.3312,-416.0975,-212.48431
-965.93243,-37.860165,-74.50288
-1515.6716,1252.4915,321.41824
-1532.49,2893.1956,499.4267
-907.993,2547.527,348.9934
-413.6911,1572.3275,253.70787
-142.82764,1289.1475,89.98447
20.450148,1195.405,-48.194153
300.405,898.89575,-130.07248
537.136,465.28467,-77.69567
676.1131,334.14554,-8.508862
745.56995,261.64578,134.52417
524.8669,631.9962,146.95183
361.95505,1253.5199,302.20493
-60.85453,2854.9011,57.827324
-1317.8525,3364.6138,-41.353985
-1067.746,2212.3503,112.94394
-912.2164,1504.687,12.016407
-825.3202,856.3723,-132.86813
-723.5621,419.0453,-187.72304
-778.9304,9.715499,-259.30515
-949.58954,-387.65326,-326.61172
-956.78143,-728.40094,-523.6922
-885.1139,-701.9569,-391.14178
-661.9646,-332.00577,-257.959
-933.58484,604.57635,-54.252327
-1624.286,3481.081,-168.68285
-802.00256,3914.0776,-103.42181
-212.07088,1662.3027,-86.2749
100.98254,1032.8612,-151.01921
139.53673,1000.65607,32.097958
275.5273,725.0011,-38.523335
413.98026,281.04196,38.881382
455.69797,298.58838,145.80896
512.9464,186.1126,205.52438
527.3483,311.9272,151.5476
455.60733,1166.4106,75.67045
-151.95793,2979.1855,-407.3254
-867.9944,3316.4956,-599.34454
-937.7998,2109.6016,-527.4506
-787.60535,1243.7689,-309.47607
-742.74615,889.7746,-175.00334
-592.63043,258.38818,-130.7046
-500.2737,-276.95633,-128.3317
-625.5525,-730.48376,-277.50507
-765.6039,-866.9995,-363.57007
-879.0257,-587.8117,-161.92131
-1068.3077,27.237135,6.220276
-2227.4053,1506.1962,130.84332
-2290.6719,2875.907,263.62274
-1235.5989,2375.4512,311.10135
-704.66064,1432.3093,121.02301
-212.58899,1077.2467,-52.754574
122.15058,948.33093,-94.35436
352.54556,834.6334,-161.06334
586.8471,523.1433,-72.042435
666.80676,353.1116,-2.1641035
872.45593,161.71924,44.989895
620.40356,300.7409,19.44023
587.67065,1079.9452,-229.05748
-857.95026,3372.1538,-863.70776
-1989.9435,3732.837,-951.3686
-1145.1508,1678.8087,-512.8533
-1053.8944,937.77405,-259.27087
-837.61597,446.36316,-128.51584
-653.37384,48.529156,-81.92839
-486.0809,-419.4877,-157.46037
-566.1301,-833.0961,-244.31941
-686.7467,-973.1316,-310.42157
-847.9729,-662.87555,-241.38176
-1080.5161,-389.3867,-61.226414
-2121.711,572.3336,-94.47604
-3076.852,1940.8395,209.9574
-2212.1917,2554.72,212.81505
-1296.1024,1883.9255,174.48578
-834.3704,1098.9869,53.527832
-393.09204,837.3572,74.01557
-17.880287,1047.907,17.145512
371.1155,789.25665,8.707466
578.8269,576.82275,9.47804
613.57007,637.4734,106.381256
555.9904,840.5132,91.09417
241.97044,1348.7354,166.11075
-505.98022,2350.0715,21.24314
-1751.5797,3157.2434,-30.963867
-2143.743,2582.0205,-50.57389
-1731.4443,1342.613,-31.101967
-1447.0978,734.0874,-68.270836
-1067.1263,86.29489,-115.928535
-900.9751,-458.04907,-280.761
-801.22424,-1172.9766,-474.77496
-826.0369,-1268.0962,-461.9081
-871.8094,-885.57733,-224.68831
-1033.675,-342.97382,-46.411217
-1693.5603,569.99884,48.359177
-2279.077,2413.0427,368.85593
-1789.8849,3064.2617,300.09103
-1129.9576,2114.2617,114.50306
-509.97562,1119.6499,95.37785
-91.710495,660.1971,46.76301
241.42328,959.5776,-85.32949
516.15765,855.94073,4.396358
719.4343,506.43253,53.06865
832.0431,359.16998,81.877174
678.7443,501.59265,89.827705
486.20618,1087.6793,-32.734978
-314.76926,2945.7388,-436.2824
-1472.2344,3857.8022,-646.91943
-1609.1079,2818.9104,-541.62976
-1395.7621,1620.7576,-365.94067
-1180.2222,740.21826,-275.3943
-930.6607,203.63425,-273.6791
-867.0768,-150.20862,-316.44342
-941.2516,-489.97153,-457.5807
-1057.5326,-738.52783,-475.47458
-931.17725,-778.8513,-408.8245
-857.68994,-511.61432,-116.423676
-920.01715,49.829155,15.305003
-1734.839,1528.0151,381.4042
-2017.3217,3542.215,515.7462
-1023.7949,2844.5906,480.67154
-421.27573,1569.9548,348.0036
4.6360765,979.14526,246.08699
145.53905,910.58026,218.19736
406.57883,752.1386,159.52376
636.3371,448.61313,112.447754
852.4659,350.62885,185.52748
827.3876,643.1251,287.59875
493.7035,1451.9181,319.8361
-95.4548,2689.6187,136.25943
-827.7809,3259.7412,64.36381
-1478.3535,2805.3442,-43.76724
-1438.2423,1680.6866,-221.63876
-1227.444,1197.0383,-156.00533
-890.195,588.00854,-189.5364
-780.782,48.011253,-287.38855
-978.5782,-443.7045,-406.99524
-1280.7455,-805.9527,-593.02826
-1179.3022,-1057.0173,-487.73065
-1130.3558,-549.831,-155.11281
-1337.5905,465.25302,126.51588
-1987.2764,3076.8665,616.0066
-1360.2825,3364.2976,612.285
-545.47943,1987.0288,541.4112
-138.92361,1420.2911,392.07568
95.9773,1018.90875,371.395
270.39972,811.15906,264.4844
435.87488,439.21408,206.36505
523.0094,310.35815,121.323006
564.81976,474.6897,176.76712
564.0514,707.78876,146.724
434.2547,1306.9977,177.34988
-119.651665,2848.6978,11.720636
-1207.8832,3954.415,-21.92747
-1455.6334,2756.0925,-87.10695
-1256.8027,1362.4052,-41.26776
-1233.3441,750.5562,-66.71497
-1153.8844,125.148636,-164.03868
-1174.8666,-295.23508,-302.71353
-1230.6703,-760.3236,-433.21964
-1105.4873,-890.7882,-360.76395
-907.5237,-661.2875,-64.98752
-897.69025,144.81146,102.64264
-1246.7738,1989.4391,435.10413
-1265.7991,3361.454,580.5933
-648.73236,2463.5303,530.4744
-262.6202,1682.5028,506.43274
-11.0331,1263.8785,373.2122
154.13585,1034.4023,284.37347
352.1014,720.6497,128.05273
495.28195,418.956,64.88759
608.9478,260.28046,-11.607534
634.2722,429.40543,107.00075
673.14514,813.91095,224.77771
339.97617,2039.4429,501.06073
-420.6788,3290.129,468.32123
-984.4206,2795.605,303.6069
-1031.2859,1740.1903,234.83112
-941.4137,1119.0461,50.391975
-886.1278,406.48685,-116.29742
-825.07166,-181.97662,-335.56653
-858.6147,-528.0888,-420.351
-876.46234,-731.7937,-497.4203
-865.502,-497.84048,-402.85773
-904.4877,-144.81865,-68.47387
-1449.501,1449.4692,359.6514
-1671.8184,2712.7834,755.7876
-1068.7168,2699.2861,570.386
-389.30865,1879.5336,488.66696
-169.61235,1178.8545,284.30823
100.05391,953.58014,184.63684
299.33542,762.329,89.21832
467.05496,543.50525,69.30237
654.055,156.49252,22.937872
764.68134,211.74434,66.65166
639.24866,539.55945,131.88248
413.5935,2095.5308,178.83766
-491.5764,3672.4417,-148.76903
-1026.7156,2821.3398,-87.46128
-813.90784,1714.8068,50.286083
-827.11957,1122.82,14.701949
-741.4915,587.59503,-89.76406
-657.695,-42.578205,-154.94522
-823.654,-370.86212,-246.7561
-928.765,-790.3289,-368.88464
-1081.735,-1076.0653,-439.01605
-1013.85846,-600.1453,-229.21942
-1576.7421,367.031,-153.46295
-2542.8203,3197.6292,218.00739
-1610.0105,3534.353,184.73888
-717.5487,2168.7559,210.28062
-264.33035,1324.8177,71.45341
81.1381,975.3789,63.747795
304.11224,933.9723,-11.470557
625.9342,711.6733,-32.237335
845.9416,433.2527,-65.46866
1008.2365,412.92667,5.882675
945.92676,587.1572,115.921196
572.1533,1498.9368,168.44124
-401.3988,3385.305,-146.80562
-1517.8887,3962.99,-121.71935
-1669.4469,2223.0579,-207.603
-1382.1667,554.8623,-242.04352
-1095.0011,15.088554,-277.47678
-942.7437,-495.23758,-219.71805
-702.0408,-553.139,-58.01858
-689.2374,-659.42816,-222.73593
-821.0389,-846.07697,-331.15793
-915.93726,-491.48785,-197.0895
-1229.7351,166.28905,-74.31001
-2158.5361,2236.348,221.57889
-1892.425,3080.0254,359.2574
-1048.5371,2146.6055,379.65533
-578.0581,1285.9132,327.17886
-357.95026,904.16943,176.2816
-68.701775,706.29083,98.63059
58.920193,733.7677,71.86096
450.12048,519.3064,21.061743
494.75885,576.6111,122.09551
641.9787,589.0524,274.04257
-276.70718,1213.744,700.23883
264.40463,1150.3118,373.78915
-1361.8225,3362.6458,41.461285
-1892.3499,3146.9143,26.808962
-1166.0247,1422.061,-292.45853
-1202.1995,897.3859,-165.85799
-682.4258,304.00073,-277.14502
-709.5581,-148.07637,-339.97842
-624.55896,-630.29486,-450.53784
-980.87775,-898.2332,-587.3701
-926.1309,-1107.4862,-616.1989
-1065.8075,-725.8362,-263.585
-1296.168,-120.74107,-151.94786
-2408.7432,1438.9556,53.63687
-2342.181,3256.3606,119.71132
-1520.5371,2501.6648,94.25837
-909.9917,1348.2312,-59.28623
-385.18488,1429.3624,11.47028
86.69958,1139.3326,-11.684027
465.98962,765.3367,-89.4452
794.0127,504.22864,-123.33858
914.97253,473.19986,-43.092026
922.77075,505.8714,15.067717
576.3849,959.4394,58.786903
196.45471,2066.6353,-85.95147
-1071.1643,3656.3599,-248.63522
-1593.4286,2947.85,-352.98398
-1362.7948,1601.8877,-208.66695
-1276.3011,1194.9792,-265.57483
-972.1977,644.8472,-236.30045
-764.0067,-231.98318,-472.06842
-813.14825,-954.0581,-579.0022
-923.6759,-1126.4271,-657.8872
-1159.8445,-689.33307,-371.65186
-1070.1768,30.619081,149.54085
-1152.5719,703.1226,388.08798
-1512.009,1285.8517,673.59094
-1744.9044,2332.4187,904.4387
-1356.1488,2098.29,737.8668
-811.41315,1455.8147,496.64612
-447.33096,1209.8816,387.7057
-137.87051,1157.8657,285.84738
184.81992,913.37445,154.14992
457.8496,646.78925,10.560027
699.94525,465.9179,-57.42488
696.49176,608.01697,29.855831
644.74854,850.7232,119.60765
192.75975,1747.5588,307.56308
-666.2433,3154.7952,203.2867
-1301.5408,2998.7893,123.70801
-1294.0078,1899.6809,5.061114
-1211.8429,1193.5026,-90.29565
-977.76874,583.99854,-142.69156
-688.3917,122.56208,-220.81625
-692.1189,-376.25974,-266.8428
-871.1258,-609.759,-371.02985
-952.9953,-793.46375,-482.32745
-920.18774,-503.092,-357.10416
-962.3228,-205.888,61.24231
-1942.5588,1590.155,821.4213
-1994.2665,2961.2861,1064.854
-983.552,2237.8298,905.7086
-627.1747,1494.6674,617.55304
-197.40161,1327.5988,406.17813
113.937996,1104.4349,279.5379
474.3711,1032.7704,33.787014
798.3349,612.91296,-52.6226
990.96967,513.33295,40.258133
749.7509,260.28174,304.76724
589.04913,272.00812,156.32043
328.1113,1196.4393,342.2163
-339.53452,3152.629,382.1843
-882.84906,3425.8735,209.2631
-824.0438,1953.0161,288.917
-580.6522,978.08887,156.52992
-647.32324,372.23953,-6.519809
-525.11475,-0.46348327,-66.90464
-606.47375,-258.88046,-198.79147
-760.20154,-541.20776,-383.94446
-900.9973,-522.0757,-423.7696
-848.4865,-312.00024,-209.88733
-1264.8293,393.9489,161.11186
-2196.3616,2560.6646,762.3456
-1610.665,3306.0981,688.1651
-625.4572,2059.6423,530.0622
-295.15,1423.1115,367.82336
118.916046,1048.0236,241.76389
303.8141,869.9163,126.97707
569.4013,626.39844,84.591415
689.6953,409.99323,64.90854
908.5696,297.70706,143.92079
880.46875,589.6471,281.0224
605.5215,1136.1893,360.4314
14.69889,2748.0955,282.32404
-776.79474,3488.7075,239.44936
-1407.9875,2618.701,200.27905
-1072.5872,824.16205,-160.0804
-807.8765,278.13266,-228.14642
-675.11176,1.0879544,-229.70448
-590.8115,-343.4114,-159.67415
-484.74283,-463.433,-138.80255
-697.0791,-525.4116,-239.21483
-811.80695,-449.62027,-395.83594
-1741.1672,1099.3417,-174.56767
-1851.1958,2414.4216,361.2019
-1233.0243,2306.4912,405.8822
-565.6307,2082.049,505.48605
-319.69366,1978.1232,696.94257
-560.92834,1443.385,103.666374
428.38882,718.7132,-174.68748
476.36398,621.7887,-89.61135
693.0076,360.4498,29.33511
786.6059,268.50806,-16.764149
894.61505,202.92213,-19.924511
633.509,764.91534,125.08619
115.11805,2979.4558,16.37377
-1133.8431,3616.5488,-260.3487
-1166.7189,2016.477,-82.02324
-961.6272,1394.1893,76.92319
-950.413,918.85596,-23.072884
-785.25934,574.0337,-131.00691
-567.70123,53.944004,-76.99155
-741.5422,-232.08095,-104.503716
-907.6978,-723.83777,-278.6555
-1119.9408,-654.5949,-354.80853
-937.4953,-399.37802,-212.98941
-1250.4811,815.1037,-206.61168
-1793.5039,2868.5806,180.01534
-1125.0166,2964.2678,70.35383
-442.42972,2110.6694,39.184933
-49.770638,1414.529,-18.8918
263.34375,941.15326,-9.601961
499.2853,757.18274,-68.92143
789.463,474.58035,-5.399068
844.7856,197.58434,12.9778185
911.8942,190.08057,103.82563
643.7782,393.53955,109.959404
476.82626,1704.4297,95.05039
-878.1378,4076.6294,-383.37048
-1604.4202,3243.883,-508.3141
-940.7531,1589.264,-158.94997
-927.99054,1050.7329,-96.678604
-789.6156,643.6135,-115.884285
-645.0834,89.587006,-155.51512
-703.4817,-322.6397,-257.66663
-960.2218,-675.033,-311.10538
-1009.607,-675.1395,-340.71072
-884.15924,-561.52905,-172.71198
-1054.7539,241.0555,-4.946254
-1800.8951,2535.181,257.12302
-1306.9409,2909.5527,271.1027
-577.6815,2299.5156,246.77086
-193.75493,1762.1643,279.41644
103.02653,1313.2285,201.95473
369.54468,1028.0588,195.5278
513.2465,705.35547,109.594
677.07355,399.1894,111.351746
750.3827,218.51434,91.616005
676.2357,236.19102,170.34444
530.46826,398.02563,212.53728
204.81372,1923.1978,591.6892
-983.19055,3747.4954,379.3649
-1201.9221,2573.5972,243.17105
-715.3343,1440.8173,301.69183
-755.8237,1159.2717,178.52982
-692.1524,633.9441,34.244347
-616.8874,127.61034,-112.40868
-663.1743,-269.94965,-170.6777
-816.62036,-483.13058,-241.6851
-950.3698,-673.7991,-463.49063
-998.72064,-475.12885,-432.30945
-1236.5587,193.85768,-132.17618
-1711.3765,1792.828,306.9646
-1566.7408,2695.747,501.1483
-960.0815,2364.3079,400.81366
-558.64966,1723.3766,314.8966
-152.17859,1140.4327,147.12758
77.17814,848.2032,97.655754
369.75,696.90326,0.32021558
571.7052,494.86218,12.896669
718.96106,265.51337,-2.610068
722.4072,284.93753,79.45324
576.9658,716.0459,177.04012
111.10098,2230.4653,236.32108
-862.8251,3743.7156,-152.57338
-1533.4108,2984.2085,-195.45932
-1269.3022,1473.7634,-61.708286
-1108.5007,808.8106,-82.774376
-936.2878,360.9402,-203.90123
-770.8978,-93.532326,-96.75891
-624.5984,-470.92252,-171.27357
-656.5282,-790.7982,-192.52245
-741.6458,-760.28516,-298.0939
-725.1886,-398.54614,-98.680046
-835.947,99.037155,63.869904
-2143.3088,2240.337,445.4265
-2064.97,3112.096,401.37738
-903.8844,2137.222,355.7002
-522.6517,1437.674,289.25
-137.51292,860.29785,97.60833
120.94008,649.46515,56.130486
461.95297,548.51587,1.2003917
637.8536,426.75134,-5.1999626
823.1478,185.54976,-2.1715748
796.05096,320.87955,5.427595
584.3417,1057.5758,214.97699
-333.66727,3220.9265,62.963787
-1623.1842,3813.1914,-330.0902
-1394.1803,1985.8356,-114.927536
-1088.8811,1271.9071,-42.36017
-1041.8973,914.4116,-84.603645
-843.31476,322.04877,-97.066734
-663.27167,-187.01509,-168.88531
-733.95294,-560.7265,-240.74702
-813.68964,-847.96063,-314.67603
-959.879,-624.38824,-283.9114
-931.2316,-356.14957,-137.08827
-1375.0647,737.717,29.232178
-2065.014,2554.116,246.66371
-1343.1836,2884.0688,67.50915
-692.7205,2044.6803,153.96269
-325.89215,1444.4111,26.100002
-62.186428,1173.9337,41.548023
179.78214,893.32404,-16.666676
457.6738,607.0334,-22.597794
719.68,398.5449,6.527636
815.36426,471.5077,21.650927
794.5412,549.8525,62.866524
599.9885,949.8128,55.07323
332.65506,2332.4136,-172.44453
-1198.0299,3535.1028,-480.8718
-1345.9056,2723.223,-389.18942
-818.897,1474.7181,-106.638954
-958.2743,975.93756,-78.47964
-872.336,448.68457,-182.87762
-847.80554,106.54939,-187.68747
-892.1176,-100.89226,-150.04121
-1069.5297,-455.65308,-215.18758
-1030.1537,-575.0674,-344.3972
-803.94275,-336.1617,-134.52083
-754.68756,599.43787,-30.448318
-1328.0535,2707.0925,182.64224
-880.13416,2998.6287,135.16022
-236.28392,2281.8237,156.96692
-6.1855707,1708.228,109.438194
100.320114,1140.7983,-42.780117
248.88452,704.8772,-61.64072
430.2646,576.4411,-111.12973
509.04413,357.1852,-85.77584
600.6002,104.90784,-98.69231
621.1825,130.55722,-41.74607
638.8598,432.65393,-18.623085
523.48816,1827.7285,-59.610596
-481.97415,3708.7515,-341.67136
-811.93097,2746.0383,-230.14413
-479.53107,1483.4497,113.07515
-688.2702,1111.8037,168.63599
-722.3013,767.9179,65.43811
-620.646,215.7669,16.311228
-767.5254,-157.39937,-55.244934
-827.2886,-557.2975,-233.53798
-818.6561,-400.46185,-326.3391
-686.6584,-421.4979,-226.49284
-1020.0929,199.6774,-30.912077
-1985.1223,2085.4739,372.53766
-1496.1334,3458.829,593.9405
-681.7142,2396.6968,538.2962
-276.74136,1191.33,211.99403
64.480415,1223.1873,263.7941
279.7269,1023.18,199.43585
467.67505,654.4411,104.71221
572.0998,248.49185,24.633377
713.32495,20.598812,2.4513366
646.5308,100.42626,64.060295
553.3485,1145.6769,185.66154
57.197315,2416.6665,96.76659
-368.83414,2945.1392,-152.25343
-605.83307,2340.1604,-123.91901
-709.62024,1843.5425,56.29968
-836.85486,1423.6306,-48.536743
-761.93823,672.0821,-161.2379
-696.03503,3.7717812,-133.34438
-741.9862,-324.0824,-115.47969
-816.1085,-533.29456,-187.0653
-795.5833,-464.57333,-290.92047
-771.3351,-318.1107,-161.75275
-1211.7642,733.2243,233.41037
-1845.0641,2893.6958,585.30237
-1220.1785,2890.3977,470.72513
-464.4395,1983.5577,459.98288
-158.38339,1504.1107,318.97858
126.240166,1090.6527,234.04857
349.67194,802.89087,133.37288
479.491,545.0672,1.870455
660.3918,238.94048,-162.74036
841.6285,-22.009047,-171.60112
848.82465,124.74038,-109.76765
749.77124,725.1577,103.34291
346.9632,2601.8823,-40.36947
-83.76486,3685.3901,-264.8097
-450.72073,2793.9639,166.01872
-448.45517,1774.5369,84.54717
-697.6696,1208.1794,53.04299
-717.20953,466.8111,-54.499863
-663.6615,145.11896,-39.370354
-889.30475,-111.368164,-51.831932
-1382.1721,-237.12447,-174.1776
-1554.9652,-220.2166,-440.74875
-1212.5232,-133.60881,-195.06392
-1199.6333,345.60352,164.67404
-1839.9886,3105.9648,920.5707
-982.4512,3141.2427,671.3208
-30.038473,2001.1841,650.5163
265.47934,1579.2417,500.0211
511.68018,1020.84845,265.6578
673.4214,611.859,25.49809
819.7629,129.59375,-61.15737
757.1327,237.19168,-59.548634
761.0458,218.20778,52.84286
662.2771,632.3685,227.67982
415.13098,2205.0825,819.55304
-883.40466,4303.5176,902.4823
-1659.6061,2693.9492,544.1069
-1333.713,1086.7023,601.6396
-1089.6404,1028.6411,412.79147
-771.3041,322.1564,70.59995
-585.6976,-29.25766,-139.25288
-557.5758,-259.55923,-346.0922
-677.6937,-334.24896,-520.4543
-808.68695,-616.7359,-626.4833
-999.8214,-121.03347,-359.71518
-1134.1676,91.94894,-187.08244
-1632.3939,1609.2919,493.5506
-2131.2085,3197.8845,667.6424
-1393.3643,2646.118,325.1205
-370.90472,1770.8604,471.96564
268.10712,1229.8228,289.59933
476.3374,960.0663,242.63623
663.2478,536.328,205.4074
672.9547,362.71384,144.50365
862.0821,217.48878,99.69406
619.8496,455.1413,230.09207
270.26126,1886.7596,482.28635
-1229.2683,3967.8818,96.59859
-2225.2769,3352.4443,-63.081707
-1205.1434,1285.9799,48.11638
-1116.308,787.83374,69.51678
-881.92053,525.2252,-171.62514
-746.21094,217.24103,-297.53687
-759.28644,-59.423733,-386.18143
-1110.6914,-540.48804,-384.0066
-1083.7167,-867.313,-522.47296
-1044.4727,-555.1871,-362.23767
-857.2887,97.94556,-264.3146
-1423.7825,1867.7529,279.62943
-1470.8309,3581.3733,529.909
-677.5186,2811.3962,333.58984
-129.74835,1545.5944,183.52112
262.87228,710.1273,172.84079
420.49982,645.41956,125.00308
561.7651,497.04102,72.87005
631.4824,285.00067,74.20059
684.95435,95.32826,87.00012
622.7555,319.0442,127.21934
471.06128,986.43164,53.520515
-205.14915,3134.0557,-302.35193
-1299.7601,3731.078,-460.4578
-1169.3007,2236.931,-316.8015
-996.6421,1255.7869,-158.83034
-1006.1402,796.41223,-177.92218
-724.0176,284.04672,-322.05136
-442.18094,-163.28568,-350.6098
-455.13715,-418.5501,-264.81607
-707.36334,-560.08636,-296.84958
-1049.0565,-271.05212,-352.86905
-1088.1425,201.47404,-32.03716
-1371.2103,1102.3716,336.02927
-1619.3352,2457.3523,512.6265
-923.03577,2685.6477,158.49846
-321.60605,1818.1661,6.8096056
51.220615,1493.234,-147.14793
408.18762,1208.3857,-156.45718
484.71216,854.7363,-167.7042
620.28265,446.92575,-154.08739
658.45306,192.76434,-149.86153
777.96497,57.454605,-75.21496
607.1883,301.90692,34.316
560.68286,1101.9191,161.80579
-582.5304,3544.627,-77.48532
-1436.8687,3502.395,-394.6159
-875.9094,1238.7905,-159.5365
-750.48035,827.59155,101.50501
-644.9886,693.421,12.800766
-505.27032,581.75134,-42.23385
-418.70834,21.461153,-93.774506
-499.66223,-267.6018,-131.40854
-555.2239,-496.199,-180.11244
-643.61096,-313.49005,-225.98772
-588.7184,-276.4754,-133.66748
-1087.5048,676.6596,124.68131
-2535.389,2450.9236,637.2814
-1797.3036,2577.3271,471.08826
-856.3083,1906.6089,361.28012
-303.8945,1358.3915,232.94513
121.90669,764.90265,76.21054
335.12302,611.58105,45.924793
562.69824,427.91858,-34.19346
787.7224,220.90063,-79.59401
832.4522,150.81969,-42.32396
640.704,457.01617,101.88215
406.29776,1134.6512,325.24463
-369.7175,3435.5864,285.32785
-1869.5206,3770.582,18.97456
-1362.586,1804.5504,444.46997
-1173.917,1480.2053,419.67282
-1409.8179,830.83984,85.81816
-1199.3181,274.30316,-71.272995
-1016.0799,-168.65625,-82.18404
-865.0305,-394.28073,-195.03241
-728.35944,-763.2028,-305.71478
-604.1248,-659.93195,-242.49167
-606.5934,-355.3778,-108.900894
-1160.362,1022.7786,52.38171
-1733.6603,2943.8682,284.23434
-995.8033,2741.1511,259.803
-427.8553,1920.959,400.44238
-263.65338,1437.5209,274.1823
-194.72318,1158.4735,137.94345
55.46108,907.73737,99.49651
181.46904,659.32904,44.33964
418.90167,378.88928,15.286403
643.45184,181.64714,12.312327
818.8652,229.84694,21.134804
700.89246,445.56772,52.1458
491.1424,1654.2023,176.65747
-350.52277,3528.3062,9.658715
-869.291,3154.6394,39.573227
-828.642,2027.2078,197.03961
-1031.7799,1508.7698,229.12436
-1162.7833,937.2059,4.441952
-904.74426,271.9458,-129.91722
-818.43726,-197.73232,-139.78719
-836.17914,-325.62653,-155.22095
-898.63525,-435.83563,-274.01434
-840.6964,-399.81223,-288.19434
-785.26996,-181.23187,-75.583534
-1168.978,1151.0726,302.66388
-1531.3871,3110.1367,738.27356
-871.5365,2799.7332,515.1546
-286.9391,1795.869,470.2573
65.33001,1346.5964,329.90012
215.74036,1094.259,242.65804
396.5694,721.8738,52.506294
557.68475,328.28714,-29.827549
722.47156,87.07689,-137.02249
715.8636,109.39041,-26.097862
655.57574,255.35193,-3.8768864
480.54446,1057.5559,278.6014
-139.7588,3039.0146,265.47653
-857.73035,3468.0781,129.28775
-720.8617,2174.5576,349.89963
-674.36694,1598.8234,276.32474
-811.91394,960.86676,115.33615
-642.7794,360.37436,-8.394557
-628.6375,10.976699,-60.892506
-762.2078,-180.00146,-192.42398
-832.9652,-475.92947,-299.6259
-830.2818,-402.35306,-367.78036
-771.7354,-278.54813,-148.20169
-1059.4937,900.1798,156.82109
-1279.7218,2254.568,507.1683
-1048.6416,2713.183,488.34634
-477.8175,2042.552,490.1108
-267.5452,1463.0056,320.9138
-97.463066,1037.8435,214.86018
33.81683,877.3314,155.51181
249.05493,638.5271,105.18688
440.85638,285.20682,38.55
692.4002,118.55851,-8.247742
822.15533,242.07603,60.55185
632.77374,752.95905,274.64777
224.27432,2754.5999,249.00204
-645.40546,3745.754,-180.82835
-850.1577,2253.5676,43.72329
-793.9722,1785.0873,8.765028
-1268.4491,1196.2325,-218.57494
-1051.8867,281.57608,-302.6887
-748.01245,-196.51292,-237.79501
-691.12,-396.77127,-94.28993
-830.6505,-538.09973,-63.192272
-887.53827,-589.1003,-134.97246
-889.76263,-379.56952,-7.6058626
-1178.2156,332.66852,110.60309
-2040.0846,2323.4922,433.9055
-1801.8562,3196.213,387.05164
-988.38074,2127.1375,279.8438
-483.30692,1553.1741,194.82567
-186.55182,1172.1401,83.984
108.41035,866.4317,-10.015552
408.02417,531.917,-101.49397
632.28467,299.03247,-101.404625
889.935,130.27217,-145.4553
1074.1558,127.82009,-53.712788
904.2535,406.29294,-3.2725887
625.22974,1604.852,72.5951
-441.1924,4134.965,-361.49728
-1373.8818,4016.1123,-256.88593
-1382.2555,2241.681,-145.02441
-1230.9955,1143.161,-142.80205
-1067.6687,610.49884,-143.42293
-772.6225,127.04484,-195.62328
-775.5066,-193.94106,-274.28516
-1021.31885,-557.92017,-456.9468
-1197.4542,-482.38974,-354.42993
-956.1841,-478.4651,-109.78362
-903.96936,-160.73758,16.177109
-1201.6359,921.91583,267.15128
-1783.4312,2936.6526,639.2722
-1300.9507,3180.14,607.5694
-640.1894,1767.2435,485.2226
-310.84027,1300.131,316.94504
-44.93291,1161.7125,300.45844
251.75726,1028.4164,146.09427
458.69632,566.20874,48.162434
655.7573,368.7471,-59.50623
819.23914,178.76024,-22.351582
872.53326,205.32368,-59.010056
718.809,469.0806,-9.45971
319.3992,2212.3894,-65.265015
-1094.1053,4553.021,-221.77263
-1636.9921,3501.8225,-226.17355
-1313.7981,1222.1863,-43.866947
-1312.3254,848.0399,81.86873
-1270.6895,298.01547,55.949135
-1021.93365,-153.71622,-8.672307
-887.11664,-607.52167,-76.86037
-840.3184,-674.3371,3.8158514
-786.82776,-534.189,16.4721
-699.7577,-338.97174,64.85803
-1116.277,462.63092,230.04916
-2130.9944,2816.9556,580.6117
-1585.4694,3254.2847,368.49994
-554.97205,1824.5297,275.04843
-204.32716,1375.0681,199.5167
185.90463,1043.0192,56.44828
338.64297,921.3059,-24.645853
684.21484,519.6813,-170.25731
769.27716,251.47916,-230.56465
883.0905,232.15845,-188.0874
663.23834,521.03345,-57.787895
430.18564,1114.1948,36.325935
-469.85168,3088.4978,-82.939926
-1222.0533,3851.8179,-148.77956
-1187.4531,2583.7424,25.7341
-1099.5077,1646.771,-57.525414
-1087.7478,969.72,-56.09288
-939.483,339.1488,-231.38373
-926.91046,-105.494965,-288.6994
-902.69977,-379.95773,-396.37778
-1043.7231,-422.64868,-267.18448
-969.59064,-341.74704,-128.00676
-970.675,-187.47038,69.00385
-932.5531,444.9161,85.13741
-1213.645,1735.8456,161.379
-1121.3627,3002.7144,219.51958
-607.372,2279.8022,231.70084
-242.89702,1629.5201,149.2125
-109.81189,1358.518,84.1361
120.16202,1106.0385,-31.646202
211.31364,784.259,-54.99284
619.83746,322.86816,-44.096703
620.1842,259.94894,110.70876
897.3985,314.8277,48.600548
-69.041504,741.9872,517.2962
672.7617,1897.7378,471.13678
-558.6974,3646.7488,-195.54799
-2447.6975,2802.7039,-34.177692
-817.61304,1419.8978,59.886284
-1295.0732,1154.6864,-95.49724
-869.4624,552.3619,-251.08665
-865.7501,259.04645,-275.09644
-701.51227,-303.35107,-346.98007
-850.1291,-566.93274,-328.8456
-811.53467,-783.0386,-405.69992
-876.6079,-471.5677,-266.15298
-752.22034,-131.47456,-161.47273
-1490.6779,1353.2557,18.664417
-1901.6365,2878.9973,352.71298
-1161.1191,2525.9336,190.00764
-531.4961,1839.2548,168.34697
-166.29257,1101.2504,185.49368
43.66562,742.54504,187.3181
227.73137,642.0059,66.3822
470.75046,463.7508,55.776337
590.46967,286.12595,75.288315
627.3077,278.04456,87.05508
486.55792,540.63086,135.53761
340.54602,1763.7374,4.388392
-581.2819,3481.1018,-339.15323
-1309.5845,3152.849,-353.08228
-1107.9586,2079.148,-158.21974
-1103.574,1253.089,-93.27742
-987.57794,643.5981,-241.35512
-789.0355,-2.9830492,-251.16884
-847.3659,-246.99062,-184.61714
-922.5066,-494.25644,-261.18115
-944.3,-726.90955,-455.46643
-931.8896,-569.58203,-337.44196
-838.9215,-98.472786,-138.86446
-1067.2809,1542.6576,143.29846
-1297.5327,2967.573,468.66418
-801.2529,2811.5496,245.08794
-292.36426,2114.2908,300.90625
-35.969643,1292.0884,250.34209
115.24079,782.50183,240.62074
301.7657,456.4099,142.19292
455.92856,348.46112,205.28436
520.9204,286.20798,176.09389
665.8323,148.29214,85.65763
736.12836,225.98949,162.07256
530.8924,1679.1006,175.7126
-325.44827,4017.943,-227.18312
-1068.4775,3443.8262,-342.55554
-957.4835,1734.8104,-247.81183
-993.18176,970.1012,-290.8857
-993.3974,501.8916,-334.44006
-785.9171,-56.727245,-307.90146
-834.7361,-445.89517,-216.90091
-850.4592,-699.98096,-142.14084
-902.19995,-714.0297,-275.5542
-785.08325,-610.2285,-181.6123
-1099.0139,416.14484,136.8418
-1830.6919,3043.8967,592.72375
-1308.667,3086.907,435.6451
-519.91156,1789.5848,519.9857
-274.08585,1363.0472,422.8455
-20.957352,1000.79645,306.09946
175.36456,779.49927,189.62955
399.9171,556.9402,120.41544
526.21796,351.29315,108.40253
700.6013,396.75906,134.05946
604.6384,412.2046,214.44122
331.9588,926.00134,475.9069
191.37865,2494.693,218.6757
-1015.7265,3625.372,-0.86380917
-1221.8848,2594.6863,-33.273323
-977.1745,1313.7119,-146.10727
-832.03174,869.387,-97.0448
-646.7185,561.7239,-204.43045
-576.1758,104.14806,-216.31606
-644.5862,-221.96332,-263.33374
-874.8535,-485.48627,-287.807
-1017.815,-402.32397,-403.66672
-1110.7599,-273.22974,-170.16379
-1248.6628,676.6352,13.297965
-1542.9692,1987.8074,389.60236
-1295.7836,2690.2046,477.84433
-704.5895,2059.824,278.2549
-270.35355,1375.2872,54.415848
123.12823,1111.0854,31.51998
369.3516,932.333,-17.36105
649.3408,600.4174,17.338554
726.8311,330.24515,187.69276
712.32587,119.81677,309.5831
525.0511,170.0547,183.29248
305.312,1181.7643,151.70856
-637.5254,3573.6267,1.605391
-1472.4534,3062.5422,-367.96158
-812.23267,1248.8828,-111.436516
-690.76965,1196.9065,123.39081
-682.331,964.43677,-12.765906
-550.2997,355.05728,-57.883472
-590.49963,-200.31497,-190.43068
-681.0914,-661.84094,-271.51968
-741.6386,-655.7883,-404.35565
-814.0795,-247.31995,-209.48792
-787.4012,75.16942,-76.86212
-1637.7756,1619.5554,219.02127
-1828.9325,2975.505,395.27158
-991.6879,2454.3398,306.49496
-487.4516,1476.0356,300.371
-198.93517,1006.38666,130.16765
102.167274,732.9698,120.02098
290.29865,692.8058,46.20778
586.07587,389.11136,1.9625078
554.3996,315.9547,34.48821
766.4807,292.1195,115.56372
208.01915,725.7201,352.64093
444.89142,1708.921,546.22845
-219.72961,3394.9521,4.942591
-1922.0685,3120.422,-145.54407
-930.2212,1451.0055,-9.469471
-1090.2343,1012.1069,-7.508118
-859.2017,581.234,-126.195625
-757.6914,353.28836,-168.04921
-599.423,-42.384975,-149.99677
-810.9954,-294.58597,-118.75314
-857.08984,-604.136,-255.0197
-1021.45605,-397.9557,-217.35172
-858.84973,3.331237,-134.73463
-1237.1118,1482.8016,104.0256
-1432.4644,2527.4583,517.3157
-969.1063,2310.5872,350.10837
-512.28687,1836.0927,228.06824
-181.07614,1230.5477,160.2705
48.41423,751.6735,94.6014
277.0052,571.72766,-21.353848
528.94446,397.24832,-25.140942
666.55634,193.68306,-4.9370995
803.3115,140.88742,52.002434
654.3248,478.9743,141.26526
461.15485,1878.1274,153.38336
-647.0838,4023.4944,-225.71613
-1516.3325,3211.2156,-355.22012
-998.4776,1311.2452,-30.233906
-977.4316,958.4874,15.461425
-860.70337,699.7361,-94.870026
-713.81555,226.74286,-145.30765
-777.18085,-205.658,-162.10155
-944.08545,-534.89777,-164.31442
-941.3247,-678.09534,-346.80783
-935.76776,-415.34558,-232.31017
-820.2721,236.00157,-2.246627
-1331.9083,2186.32,319.58972
-1187.5885,3151.4976,366.17004
-627.3135,2236.5693,339.59677
-328.9384,1537.3865,277.91214
-58.458492,1178.2727,192.49016
72.841354,873.56036,77.698654
411.30826,514.45325,-59.921333
667.119,334.6085,-106.04589
919.0531,151.12543,-131.57684
1081.6011,58.470043,-152.45464
917.52625,415.5948,-49.02298
599.46936,2027.71,76.79668
-568.0351,4156.229,-227.60774
-1696.0505,3386.3518,-192.23305
-1106.2035,1390.4388,9.077663
-1119.369,1027.2828,75.36959
-1029.2161,566.15686,-88.934845
-1002.7251,41.072372,-211.30563
-935.5498,-523.7961,-218.25069
-1010.3587,-822.0328,-202.24234
-935.8523,-964.215,-316.66592
-803.7575,-800.5263,-92.127304
-1220.7294,226.42047,51.438877
-2261.131,3061.9368,403.96405
-1596.7346,3611.0688,296.8609
-619.86896,2132.1328,222.14626
-163.56783,1360.3413,103.519165
109.88545,920.3856,54.837524
224.78001,709.92804,-67.7646
467.98508,524.8175,-109.00535
624.1546,305.7727,-99.27628
757.21533,252.69101,-2.6175108
708.4498,321.20712,6.5849814
563.8087,908.42474,-37.32646
-169.28569,3042.5127,-769.2724
-1121.5051,4244.511,-1027.4152
-1196.2601,2685.3975,-582.6627
-1070.1187,1451.0315,-436.6678
-1127.889,887.46063,-352.2412
-1076.4497,179.58603,-422.00677
-1030.2028,-439.11432,-240.76831
-995.1303,-636.14655,-168.12558
-1062.361,-544.1202,-94.099884
-848.83527,-210.60817,-233.23099
-661.6224,79.840614,-24.704279
-480.64154,785.1764,118.93712
-809.7958,2024.2213,549.41516
-992.79553,2649.7407,577.2946
-315.7932,2209.8052,369.8798
-66.73382,1833.9697,321.32104
69.11062,1265.2035,128.32832
246.26062,707.2734,49.595303
508.89307,388.23883,-61.8178
721.322,199.83878,-58.421055
825.3747,81.52246,-26.626143
772.5556,411.47598,-3.261948
622.5031,855.5293,-78.411385
470.66684,2129.8933,-450.4113
-363.1915,3953.3665,-959.60895
-1070.5874,3388.276,-569.1372
-938.66406,1989.339,-383.91852
-1162.3849,1331.0474,-388.16852
-1120.9381,675.6799,-438.1962
-990.6933,-64.88948,-368.8695
-950.5347,-470.7874,-257.88776
-1114.7195,-612.6651,-194.77046
-1165.7612,-514.5502,-270.70844
-1056.2086,-242.53899,-65.27622
-1026.2826,278.36096,90.59847
-1203.3062,1482.4287,315.14908
-1346.1969,2795.9988,448.13495
-849.09576,3028.9453,321.6784
-270.62555,2051.7383,343.2198
-114.42556,1342.2406,191.86913
106.29076,910.0577,131.21237
333.30432,630.56006,-25.677958
629.05994,272.77838,-99.31269
874.91327,154.85284,-83.54007
961.0885,261.2201,42.80888
725.8622,735.0775,-3.849431
360.13965,2040.6681,-364.2297
-502.62488,3693.5142,-812.16626
-1008.91296,3288.6733,-555.5396
-1068.7257,2184.498,-405.07022
-1209.2703,1399.6248,-325.33957
-1119.9585,726.32623,-429.38626
-827.7828,57.80771,-296.8318
-865.6451,-280.04327,-267.3677
-1043.8595,-465.24512,-123.19194
-1185.5339,-511.73795,-203.38046
-1050.3094,-323.0406,-242.90822
-867.365,-27.66399,4.0149493
-891.75073,959.61304,214.00702
-1184.1027,2613.3057,437.13904
-837.3711,3107.3015,305.6341
-375.78873,2219.3997,329.7615
-122.15091,1581.6904,287.4383
-48.373184,990.2737,194.63963
212.48076,455.06705,-55.059334
550.4961,317.80322,-115.45662
826.439,428.03177,-67.43439
934.33673,461.19635,-47.1877
1000.49005,595.2135,-38.394352
733.401,2170.9878,-112.81088
-494.34592,4155.809,-422.037
-1577.5067,3189.9333,-296.32727
-1198.3646,1424.1561,-133.7267
-1156.3871,949.5512,-148.92873
-931.67676,398.21732,-177.03719
-868.9708,-88.41297,-112.203606
-799.2716,-411.43063,-220.49654
-922.73285,-703.9151,-206.93085
-854.03174,-691.9736,-235.35707
-892.5472,-344.92435,-72.678665
-868.5438,21.899574,-13.266943
-1943.6857,2152.074,510.61377
-1963.8875,3376.0168,651.3777
-881.469,2374.4434,266.24442
-375.14703,1652.6538,333.24417
-138.3131,1053.1793,241.01111
-14.053325,796.2073,182.69843
263.49826,512.4124,-21.350988
568.6942,368.0067,-66.86423
732.71606,387.44626,-114.9007
948.7652,410.63153,-103.802055
872.5848,1007.84314,-94.35229
628.7133,2543.8777,-167.13908
-652.1868,3924.124,-444.96002
-1653.9844,3452.0286,-214.06654
-1379.1387,1675.0127,-105.08355
-1382.5494,1075.391,-109.42178
-1198.4072,531.44946,-139.13388
-1200.062,25.633724,-141.80429
-1273.4668,-413.99622,-275.69586
-1317.5751,-683.4557,-342.4151
-1083.5717,-740.00244,-240.45923
-760.1228,-422.72192,-11.149818
-642.80634,-85.51781,177.04716
-1571.1902,2928.1692,991.05145
-1165.0206,3652.2397,817.23224
-375.42673,2076.0442,552.3452
150.12589,1347.6246,420.22717
386.99203,792.4356,239.3463
543.66327,777.82574,95.03214
807.62024,437.25073,26.871342
860.6729,97.25447,-17.009312
825.0919,75.782425,-0.11624599
639.75214,610.4184,153.76582
272.23526,2522.462,371.29288
-887.77765,4287.1934,201.28113
-1400.802,2596.174,88.52361
-872.99304,1075.1244,158.4326
-785.79193,938.3356,71.270645
-857.95654,701.4704,-50.975224
-774.0683,-7.2445617,-149.50745
-772.0429,-587.68567,-252.88074
-925.54126,-899.53436,-308.2094
-1011.2963,-524.03864,18.60229
-990.20074,-265.7925,185.85054
-1351.8156,771.7514,549.875
-2111.0505,2217.0225,1079.774
-1299.9152,2205.2783,696.1558
-413.33658,2022.0483,548.27563
-245.27519,2020.7504,358.24884
-38.440315,1349.0917,155.60597
173.71672,691.7971,-84.329384
415.0803,493.76706,-124.47004
595.32996,494.90396,-163.27267
747.04156,233.10759,-100.45035
860.28656,266.89572,-152.4812
677.0394,646.4952,-122.958275
276.851,2381.0723,22.309912
-1344.4799,4548.112,38.839493
-2200.9573,3065.3142,-163.955
-1455.8259,468.3431,19.05248
-1274.4462,661.27515,278.44022
-974.8462,535.7761,58.64956
-796.2162,102.014915,34.548706
-680.7557,-228.55208,-124.69371
-854.2486,-522.526,-214.61552
-766.4132,-717.915,-447.63428
-861.702,-566.52844,-246.01906
-882.5677,-326.61325,-285.5973
-1760.0809,1372.3181,383.3947
-2314.1711,3621.8152,929.54474
-1382.0233,2865.1467,473.98373
-599.3228,1529.0212,431.42657
-187.41353,993.6599,326.038
78.194885,685.12506,84.22901
261.29205,396.071,-139.75299
500.89648,367.61667,-138.21495
616.189,323.47357,-40.956223
813.64044,386.9592,29.64663
513.6294,865.09326,274.19638
240.85443,2155.7158,365.1899
-809.8187,3474.3481,-227.31285
-1545.3894,2571.1638,-98.17032
-1173.4489,1701.227,151.31233
-1100.0549,1343.7443,7.277512
-877.4851,625.9009,-131.51366
-791.20966,57.35599,-149.05379
-761.1083,-173.97316,-108.53268
-863.1941,-322.98312,-121.453476
-853.2924,-545.83704,-260.7099
-851.085,-390.3192,-200.792
-622.5461,-123.34587,-112.999054
-1024.1377,764.38666,188.80821
-1634.7876,2413.575,616.22754
-1128.9076,2805.7893,317.141
-636.4975,2052.792,214.45378
-220.05934,1276.8868,271.1494
-39.34593,833.83234,163.199
237.7663,657.8158,87.64209
421.39563,481.67578,71.850746
586.4954,241.74374,79.6651
656.87164,189.73616,73.27164
575.4512,502.88495,166.0861
331.4444,1580.4879,280.8806
-592.0588,3477.998,43.27997
-1569.6338,3151.9763,-226.19644
-1105.8353,1465.5682,-23.932411
-1035.4135,981.0812,-22.478018
-930.6103,786.1907,-119.1708
-739.48553,298.04507,-139.42354
-577.372,-345.16888,-276.51276
-647.8255,-763.0128,-291.11926
-698.0847,-728.402,-348.95944
-734.2253,-412.82333,-218.91978
-794.3033,-179.50606,-41.492966
-1644.0837,1405.4524,534.9662
-2026.174,2984.989,739.69525
-1154.3289,2167.8408,501.54276
-594.5079,1446.641,478.399
-250.62256,1197.6028,314.56335
-34.74614,899.12524,209.92368
276.82968,626.506,84.004425
500.61353,462.11917,79.58412
583.4817,354.03027,74.409424
608.8556,383.22372,160.52882
581.05835,687.94775,191.79659
454.09055,1798.4423,325.84946
-416.3964,3387.2893,117.65307
-1268.5004,3135.7224,-231.04642
-1249.5375,1667.6388,-164.29648
-998.26215,1266.3846,-35.295364
-834.26746,1059.3127,-97.04284
-755.7916,383.1556,-178.21379
-835.7764,-87.178024,-268.04227
-994.3558,-456.93362,-297.72983
-1209.3043,-524.5673,-463.41364
-1114.1982,-441.7199,-238.45949
-893.2623,82.1609,-9.090256
-894.4611,1404.5544,212.60365
-1020.36914,3242.6694,451.19858
-340.82724,3017.83,280.78424
67.4956,1817.5466,297.0079
311.3654,1138.4719,212.05202
333.48535,959.0012,168.57413
471.72333,573.93195,-4.555811
564.46405,223.45003,-52.484028
689.5988,51.151268,-7.2108316
755.918,221.79916,74.49882
754.3047,602.2232,226.20639
283.31195,2941.4985,274.78943
-851.88745,4062.6077,-185.91255
-1157.7476,2342.5295,7.066359
-837.20496,1341.122,76.09599
-810.10095,939.45715,-25.462486
-655.3912,558.9745,-149.44514
-510.17395,-33.237137,-151.30582
-696.9961,-474.4438,-317.86035
-882.0464,-867.7543,-487.2185
-827.7458,-784.4889,-497.76852
-938.743,-381.92673,-238.67474
-1351.1339,362.06622,-83.65268
-2363.142,3023.0234,617.9831
-1747.5721,3425.8445,467.60226
-615.7447,1870.3524,388.13373
-118.85213,1545.685,343.36838
197.28075,1198.9182,214.6017
444.52814,969.9978,109.14683
721.64355,584.76953,58.229683
924.4647,370.37717,-3.5990882
1014.51154,198.25954,103.025
749.7768,448.5356,79.13074
628.9756,1165.0164,214.43704
-153.16997,3630.0686,68.25933
-687.66144,3838.7195,42.618156
-941.0872,3020.9849,276.2119
-911.32263,1793.5538,113.30052
-862.77246,881.4307,41.027184
-787.2311,271.45407,-238.27774
-894.639,191.80147,-367.06677
-1330.5774,-177.3716,-489.30563
-1532.5162,-407.401,-600.3466
-1243.4825,-453.1009,-535.08136
-850.7906,-398.75558,-141.40123
-1066.3904,525.1342,412.59952
-1462.036,2761.933,1556.7859
-1011.4884,3239.8037,1593.0162
-141.63335,2123.9868,1268.6085
70.06497,1536.5203,944.27026
191.12233,1204.3318,738.3217
196.62619,817.85114,420.13794
382.28146,545.00696,228.74403
528.6296,324.2488,78.31676
793.3274,111.79716,-4.8990326
808.00305,99.184425,-39.182377
760.0431,718.3427,348.93634
266.8327,2144.5103,1032.2661
-532.09564,3901.9556,1304.6478
-1731.41,3849.613,259.65564
-1480.5428,1181.0082,113.22814
-1300.1545,867.87006,345.24512
-1411.0054,-198.05307,4.9714584
-811.06964,308.9401,276.14896
-1078.8735,258.1459,-28.152998
-816.675,-1328.6921,-679.51874
-824.9564,-1120.6411,-549.0079
-740.49835,-488.5232,-162.84763
-1076.977,739.80066,332.76135
-1882.5392,3430.47,1056.6437
-1390.6769,2456.243,956.0903
-431.0028,1476.9188,480.0677
93.0074,1558.4437,310.16003
372.53287,1266.4106,250.38403
572.4151,695.0273,42.208374
812.28235,236.48341,-84.91148
822.42834,-44.8804,-85.14903
728.9865,301.1222,-4.1164637
584.7702,1002.5043,171.42427
204.4926,2955.544,176.26529
-798.94617,3827.0486,-89.71551
-1379.5758,2728.8987,89.074104
-1071.7874,1766.842,117.299446
-982.10803,977.761,-42.90348
-913.12744,527.6882,-155.55772
-1013.81525,30.192144,-248.99033
-1166.1152,-451.1039,-318.19882
-1014.2425,-762.511,-371.1347
-837.978,-683.1558,-252.04425
-815.9092,-520.012,-80.29444
-999.18085,72.76457,105.43514
-1999.2727,2467.8347,820.918
-2018.452,3469.896,845.1469
-1031.2417,2040.0192,548.486
-689.08453,1657.946,570.8253
-297.4229,1361.5336,250.12268
161.92406,970.3682,6.713869
633.62836,901.64606,-152.21512
1013.4832,729.8069,-201.5611
1104.1558,459.7357,-225.48175
1010.0736,630.76324,-92.78208
793.7641,915.61145,30.353975
515.43976,2371.6047,173.23335
-928.8596,4364.7656,137.49461
-1910.2688,2931.2944,93.37066
-1063.6211,904.6067,39.839478
-1134.3904,1055.946,-9.813469
-940.84827,1058.7994,71.40538
-1007.5328,214.18837,-260.70963
-1025.0166,-736.82135,-849.69714
-908.79456,-1407.639,-816.4924
-873.63495,-615.9664,-438.81473
-664.0072,-152.03201,-89.707405
-1255.2211,1154.1011,654.3487
-2144.2273,3402.8887,1904.377
-1544.3815,1999.5902,1340.5762
-642.8696,552.32654,799.2437
-312.7057,784.94653,617.0411
-75.934654,987.6864,325.08298
378.51242,935.87915,232.68597
530.2255,672.12244,153.6069
741.8535,309.29367,52.91083
760.8963,310.45767,100.52896
625.84564,706.46906,248.04776
153.14194,2272.8076,569.94586
-737.7979,3264.8325,288.53433
-1621.195,2714.0955,126.532616
-1268.3196,1737.0308,185.16206
-1070.1193,1007.97437,45.962166
-1122.7595,436.1324,-115.78262
-978.1022,-48.237694,-119.04445
-848.5674,-328.5951,-176.82512
-921.15247,-894.02515,-267.3825
-914.2161,-952.1814,-419.30298
-869.75104,-485.9195,-116.81583
-1095.6221,579.30896,23.01913
-2005.0001,2891.903,531.70624
-1493.3401,3218.2168,158.15097
-560.14685,2272.5308,62.66662
-313.127,1513.5662,95.89393
-13.5111475,1190.4491,-77.66342
220.19096,768.68915,-166.96097
549.85516,522.2661,-152.10776
857.54156,240.01009,-45.662285
1203.5918,203.5555,216.86769
1141.7247,271.56012,312.19818
687.5428,1285.0999,293.82498
-79.583694,3684.2725,-115.89697
-1083.826,3977.6025,-376.408
-1682.3114,2322.184,-257.8421
-1230.2667,1058.7119,-373.5924
-1031.0175,615.69183,-316.4841
-840.81146,306.24826,-375.62134
-891.2293,-457.20346,-245.05144
-728.6109,-1248.8739,-281.31604
-934.21387,-1286.718,-241.56194
-1184.6313,-799.22424,-82.81898
-1828.3203,439.61557,170.36143
-2245.529,2584.5405,213.73851
-1690.2854,3087.004,308.0535
-918.7695,2093.8296,333.0339
-445.6695,1459.281,263.3967
-233.23315,1252.6809,103.90844
63.04289,965.1143,6.5055346
291.0227,690.9451,-60.597683
569.74445,392.51236,-99.48365
508.6937,508.41577,-71.14657
615.8319,482.4561,0.8525254
316.90222,918.2957,183.43665
216.67445,1303.2264,361.90802
-138.56099,2658.0425,-183.48737
-1687.0885,3413.2832,-302.64136
-1238.7521,2117.2888,-222.9957
-1136.7278,1343.9645,-169.82512
-958.73157,905.4095,-201.73665
-783.8683,400.97418,-209.64252
-652.0969,-201.01767,-244.33562
-863.8093,-513.79877,-240.57152
-1001.61523,-730.46924,-316.17242
-1022.985,-635.464,-330.20294
-1014.8696,-369.9794,-114.276436
-1265.6431,578.5017,51.13403
-1601.7668,2134.8176,328.35263
-1352.6829,2640.4705,316.52518
-701.3374,1982.0667,242.16753
-489.38858,1769.1052,229.0182
-254.832,1332.6736,116.85922
-64.2831,801.0842,-4.0630074
381.83456,559.26215,-41.3106
678.3733,551.37573,25.163645
1016.24146,316.82687,86.15051
1030.9718,486.12442,86.01223
782.5202,1040.3699,171.61783
311.68927,2620.9136,107.41566
-680.24194,3862.2998,-115.60393
-1539.7363,3015.8604,27.231861
-1371.2937,1583.512,-76.691216
-1472.4434,742.5153,-251.0691
-1167.4463,311.44208,-355.23294
-915.7651,-352.1545,-199.46342
-752.0964,-864.3024,-167.89285
-767.2121,-1073.7465,-226.75427
-953.2541,-848.3261,-201.82974
-1129.9764,-614.3523,-24.072117
-1906.2117,990.2023,323.86792
-2708.539,2928.1274,555.27966
-1731.067,2198.1785,372.61636
-881.25433,1727.54,331.9631
-474.42404,1676.7435,284.75723
-300.46237,1261.348,172.2013
-76.79822,885.6142,42.347137
210.26102,665.0799,-36.038204
456.71396,522.9862,-19.304663
576.9074,383.85107,16.608484
675.1473,393.99118,74.27956
536.40326,664.8462,92.11897
334.5872,1630.4404,68.2799
-784.72723,3480.67,-166.04544
-1733.5787,3601.822,-276.09717
-1518.7189,1809.5314,-194.8149
-1312.3549,709.16046,-150.75302
-1068.5923,421.21753,-176.14325
-841.3677,38.922935,-194.93257
-732.2338,-303.7687,-259.53345
-915.4435,-581.0616,-310.33536
-982.554,-707.154,-444.02042
-905.95575,-531.21814,-223.82912
-939.6866,13.2815,-46.850525
-1547.9774,1789.7596,224.85193
-1726.503,3301.3447,325.32028
-766.65674,2481.6726,243.87485
-406.27356,1726.9446,275.858
27.210497,1232.0405,88.97982
274.92212,903.15533,112.5091
554.27155,645.9433,-20.051908
693.1018,443.1605,3.8096771
865.4882,232.83154,-13.288586
847.5854,184.43147,129.7807
713.127,361.28687,98.7851
407.34042,1788.9607,139.10866
-436.92365,3988.74,-256.57245
-1162.5496,3437.1953,-247.13602
-839.2155,1639.5546,-122.682076
-733.8075,1097.8271,-56.285828
-775.11646,715.23083,-138.83237
-752.0703,136.67625,-226.73608
-816.9373,-258.5813,-280.03955
-960.11646,-463.31067,-309.0096
-976.3208,-625.9782,-405.00055
-821.61914,-424.33224,-167.22894
-762.9199,4.955637,10.91649
-1487.1217,2120.6843,440.1979
-1424.8701,3698.1628,588.3835
-650.5685,2390.4285,396.8205
-165.74828,1681.6246,419.68213
144.3517,1261.9257,330.66647
242.92711,933.0742,222.21114
433.778,467.01117,112.04744
603.66296,228.11465,96.257706
748.95953,102.397255,93.035934
772.33606,274.3048,203.47476
557.0465,667.45166,244.05093
447.78812,1745.2372,323.72586
-113.801765,3421.2048,396.70084
-893.4345,2964.9417,235.50064
-809.0918,1718.2765,230.28925
-768.59216,1299.446,40.954514
-852.35504,761.5836,-165.71524
-735.77545,-86.72939,-310.11667
-909.6958,-651.8911,-387.6848
-919.30414,-910.4863,-339.2563
-1059.5856,-516.55554,-218.53566
-1012.2414,-137.41402,-17.379774
-1864.6324,2039.1075,483.68765
-1558.5837,3529.3184,450.4584
-559.65094,2050.9536,440.57413
-151.30199,1466.1407,362.92636
201.17023,1169.7169,210.44678
365.86786,1008.3256,145.90562
559.2741,672.25385,41.055733
695.28815,405.59064,25.17988
808.363,151.37671,30.74071
760.4084,280.63898,84.5711
592.6205,855.5868,235.8117
131.33609,2851.5984,257.45877
-778.1387,3896.477,-41.780987
-1277.559,2609.7732,4.0864534
-1015.33984,1261.4913,6.249185
-907.68823,901.94135,3.0266836
-880.3714,572.74146,-57.37111
-807.4553,19.049479,-187.59944
-987.93787,-459.1474,-348.28915
-1014.9565,-675.18536,-521.7379
-948.8426,-600.9229,-439.63568
-714.2464,-288.34497,-70.01652
-1340.099,1396.6357,603.5164
-1593.6334,3831.6597,750.3476
-464.33948,2788.298,714.1962
-35.38703,1729.4888,542.5695
205.0098,1350.9849,323.07922
290.61386,860.5885,248.65207
555.60474,402.07394,-23.815075
659.52344,241.70656,-81.33016
842.014,72.039474,-187.72264
920.98303,-59.63086,-170.25067
982.312,6.0224957,-217.07689
827.1146,1538.9127,-12.34267
390.7725,3907.0,-548.15985
-447.05032,4029.0269,-504.39612
-662.46594,2006.0288,-186.32358
-608.56915,1088.1001,-168.4124
-733.1127,659.82556,-219.8361
-686.0471,53.235363,-297.22522
-921.4481,-378.13486,-278.9657
-1025.2224,-536.8001,-277.45154
-1181.626,-458.38474,-238.53807
-931.4763,-36.305565,-202.5338
-1096.0132,764.1257,-36.028557
-1749.1074,2754.4033,356.6024
-1218.0847,3467.9265,178.45653
-464.87753,2477.0237,141.97455
-109.21901,1479.3539,94.71943
87.368805,921.08923,8.943731
345.2967,548.524,-7.395581
586.17004,387.15848,-89.97725
610.9564,342.72314,-88.28311
671.42535,412.1898,-122.67331
764.8765,567.22437,-99.18182
546.9181,1528.3491,-78.582405
221.4735,2861.158,-272.24298
-691.1608,3423.287,-366.09418
-1224.0312,2353.683,-215.98488
-976.4211,1174.4808,-158.84004
-874.5687,802.67285,-177.21187
-737.20105,306.03543,-187.40721
-811.2649,-170.44484,-101.018105
-1006.11755,-371.3308,-106.65192
-1067.4835,-698.6324,-211.4577
-966.4233,-394.44232,-211.17508
-709.17725,-214.01584,25.208036
-1063.031,1216.4387,281.65173
-1679.8077,3191.332,672.0353
-1068.9396,2479.14,325.61826
-397.86887,1717.6481,300.12622
-77.20138,1433.4683,257.3219
39.953835,1323.9243,122.185135
289.36377,866.6192,15.936621
498.66232,449.43967,-45.192806
700.4346,333.59943,-61.097424
842.8263,618.9113,1.3295292
882.755,970.9517,33.841476
523.02966,2110.7441,-54.76675
-212.88504,3175.268,-292.04486
-1146.4454,3094.002,-206.5545
-1354.916,1910.943,-251.58658
-1184.3898,822.79626,-364.58224
-1045.0663,531.77325,-420.21835
-903.1261,93.016464,-331.36508
-806.1053,-336.81216,-307.35944
-801.73724,-849.6919,-266.14105
-779.27386,-803.76495,-231.31438
-707.9246,-540.04285,-119.51549
-962.07043,76.43989,25.71772
-2220.958,2480.9187,342.88245
-1849.4175,3568.181,190.31575
-677.1399,2443.3213,296.49228
-421.1053,1583.9838,291.07916
-109.26109,1073.6366,52.375217
81.15264,835.5628,38.400013
340.56946,667.1284,-98.257645
508.26202,468.75058,-110.25217
766.52563,148.74998,-167.97258
925.10223,241.4771,-115.357796
961.3149,403.20004,-65.74925
599.8414,2129.459,-101.28819
-355.25003,3907.0466,-596.4364
-1174.0087,3249.2043,-335.57358
-1122.4231,1925.565,-142.72968
-1031.1866,1078.7944,-41.380116
-944.9538,563.1222,-101.48193
-580.1709,151.40886,-66.67454
-633.2118,-64.7002,-128.36705
-810.329,-471.04745,-260.1635
-959.02985,-948.9291,-457.42917
-963.27814,-599.84546,-327.96936
-1037.7484,-21.406643,-78.47477
-1720.7935,1873.0583,360.3585
-1590.5903,3196.12,562.68384
-771.6181,2411.6233,469.56134
-505.89035,1911.2217,369.0198
-52.632973,1216.9886,118.450325
316.4024,827.1193,69.75013
602.0045,720.1026,-47.104446
824.09534,535.8695,-119.226265
1245.1362,156.36435,-167.37032
1187.1857,305.59048,-20.085272
888.3549,987.557,139.44
399.0367,2585.5713,-54.17571
-286.83533,3791.2124,-466.1643
-1054.3805,2997.4954,-282.30432
-1109.0347,1888.6465,-179.83249
-810.24994,981.9826,-149.3096
-814.2481,536.31396,-203.90372
-749.85675,54.34324,-250.97472
-848.38214,-117.28641,-135.35547
-861.2323,-333.83835,-42.92059
-898.16986,-520.7975,-110.41826
-711.11053,-358.62604,-205.65561
-697.14374,-66.111336,-52.82548
-778.87305,1041.6425,169.29585
-1611.4229,3155.137,426.2623
-1294.9712,3236.4312,99.09589
-338.96414,2377.2095,152.78752
-114.21098,1670.9718,159.68263
22.607876,1019.03125,45.196163
231.79694,546.2364,-13.259608
429.28348,341.90463,-41.177834
638.5018,217.4889,-50.62201
710.14276,227.7289,-21.79194
752.15265,358.4073,-23.814043
659.4784,1150.516,49.83341
133.30836,2844.1096,-376.09296
-734.7852,3562.1748,-558.7314
-937.2754,2263.034,-261.15842
-725.6249,1360.9923,-116.478874
-810.2066,882.458,-131.1208
-671.1431,458.93134,-226.3482
-658.8686,-23.394436,-253.03297
-933.7365,-328.1488,-279.1368
-968.7014,-702.7133,-302.73007
-939.6596,-514.25653,-254.40675
-768.9077,-275.53876,-130.4833
-1255.0217,1294.6838,195.55807
-1908.3881,3388.1804,730.6588
-970.25037,2496.5923,421.19794
-381.84402,1719.4841,326.08603
43.968327,1182.0217,209.05434
299.16614,958.86523,77.95087
487.79132,747.1072,-27.430468
672.7689,458.17236,-102.71337
870.36145,192.11754,-74.74767
879.6935,280.87292,34.31926
658.98267,606.81714,209.33278
385.35553,1993.9304,71.376724
-107.100525,3412.0942,-211.37651
-864.61835,3300.0566,-203.90538
-903.2251,2093.789,-42.589634
-757.3116,1265.399,77.71894
-799.07275,844.1016,-23.69854
-741.52264,244.26393,-100.19954
-924.35535,-226.1083,-231.18578
-894.1942,-887.0448,-485.7598
-817.07996,-943.2924,-577.5301
-554.45514,-718.15265,-360.08966
-810.9009,417.03183,13.650654
-1974.7734,3108.2578,391.15094
-1325.2031,3110.3042,280.0668
-402.02457,2126.2786,373.2446
-112.381546,1861.4535,286.18994
215.43556,1342.9696,-43.098686
447.95895,1006.0415,-19.204765
349.43445,1015.97327,-156.41856
768.7316,630.9921,4.499178
662.05444,571.3169,34.38827
720.2445,436.30838,-41.31861
438.62347,367.27188,-119.12718
216.09088,1012.435,-286.9983
-645.8513,2626.3337,-1135.6572
-1685.5419,3425.7898,-1298.2996
-959.42096,1917.2433,-698.10065
-667.5181,1160.442,-379.41452
-687.7274,960.9719,-270.14316
-604.6221,331.3182,-322.13327
-613.6104,-169.07329,-254.4404
-754.9224,-496.21515,-216.11476
-949.45624,-740.7429,-257.46838
-1058.0546,-586.54584,-398.11844
-991.26306,-52.70808,-234.00969
-1080.6462,974.5461,-152.82355
-1413.3357,2316.2456,339.92444
-1066.118,2816.2766,87.485214
-456.41895,2349.0166,-4.5638165
-149.19357,1493.0586,-17.696232
69.50194,862.4778,42.198654
206.90732,641.9713,-1.6373485
397.9462,459.5527,4.679525
484.9666,205.48935,-11.078197
616.31256,9.571033,32.612667
570.6202,195.22546,6.388699
607.71045,710.2887,4.0343404
0.2763549,3145.8389,-217.86778
-1227.5027,4043.9995,-508.29486
-928.5609,2110.914,-218.43045
-824.8239,1176.9712,-75.261406
-906.58026,610.7502,-143.73647
-790.7319,144.16498,-147.57628
-776.42163,-298.71597,-250.79956
-790.5156,-576.8424,-271.56015
-771.3101,-589.6097,-291.5254
-752.0803,-380.11957,-124.41467
-732.5621,-124.5202,-18.302845
-1410.0105,1270.0271,117.866745
-2227.4631,3510.0708,333.5656
-979.7716,2605.385,137.37108
-642.00555,1842.7842,138.93597
-142.98999,1213.773,-82.77151
271.1613,802.5147,-86.13277
606.5544,573.25385,-106.64919
706.9603,460.3739,-62.840908
915.4626,107.61319,-45.140083
933.96045,125.689,26.366613
866.83466,311.8238,86.88491
495.5608,2383.199,237.55136
-292.12466,3933.5986,-216.85957
-729.32385,2881.168,-125.258514
-956.14233,2305.9111,-104.86311
-920.91583,1216.1249,-260.39725
-878.03986,595.6619,-363.48358
-946.5526,2.8158014,-434.65942
-1064.8556,-402.2402,-433.35535
-1152.7488,-524.26025,-299.12363
-967.1319,-616.2146,-282.97058
-808.6785,-275.4686,-30.569101
-734.93317,13.381117,2.3125465
-2079.9263,2609.2417,354.94287
-1767.2681,4606.6094,175.91373
-407.35898,2487.1345,178.1285
-68.95072,1404.7228,179.59076
399.3317,707.2141,91.71261
420.4954,722.46924,74.550316
581.348,422.97415,-81.0569
590.57635,26.263206,-169.4809
713.393,2.3109992,-126.955864
650.79126,309.37073,5.096751
534.0286,1911.1687,179.12024
-571.86804,4240.36,-238.96655
-1234.064,3286.2424,-111.52361
-1038.4465,1909.1732,19.944853
-971.1015,911.95886,-3.9699576
-997.9885,564.2051,-103.84958
-812.49536,-59.184765,-140.78088
-765.72314,-271.28662,-167.26663
-817.8899,-686.42487,-197.86176
-815.3791,-702.2397,-425.31628
-838.12885,-469.99832,-343.69208
-732.7202,133.58856,-111.88685
-1514.241,2036.7391,-164.453
-1391.9337,3550.738,-102.830574
-215.37123,2488.5364,-129.75298
-127.977844,1547.9152,-155.45422
336.27863,775.3492,-277.5032
461.30948,651.1412,-298.87192
689.35046,455.65292,-299.3304
679.3672,289.96127,-242.41554
806.80054,84.69129,-235.74251
713.6606,621.14343,-196.16226
756.0359,1240.1263,-492.7318
465.15274,2970.768,-1316.4967
-197.13358,3537.6729,-1538.323
-834.06055,2595.8574,-1285.4702
-1020.48083,1300.8068,-969.3032
-843.42554,656.4417,-567.0007
-765.4906,182.42036,-395.24213
-939.09326,-340.99582,-246.96489
-1076.0507,-634.9874,-136.96106
-1212.6888,-598.80145,-107.196175
-1027.7417,-411.8016,-323.02603
-783.4127,1301.9535,-436.45575
-601.17096,2697.9714,-429.98953
-353.29828,2776.7852,-343.17407
-14.009918,2093.2559,-262.48535
156.02538,1406.3916,-299.94232
318.89822,1143.9978,-389.09906
365.7956,805.7061,-279.3346
447.00027,246.82845,-154.90584
544.57196,96.803345,-60.52874
683.2392,-82.29499,9.745169
613.7413,186.38211,27.875114
701.0541,919.78705,-107.76397
852.8646,3051.2795,-700.6569
316.59726,3396.317,-990.19275
-48.883183,2387.8325,-884.5963
-472.16745,1945.9985,-788.5804
-658.26965,973.3741,-499.47803
-544.1166,581.8157,-325.96506
-576.4443,128.47636,-127.9629
-592.23883,-45.330524,-104.42605
-748.156,-194.69922,-47.33108
-829.5778,-104.89137,-128.0236
-873.2007,-44.07683,-54.289036
-824.5512,537.1138,-30.773893
-872.26337,1086.8411,-118.45948
-992.95483,3411.876,-187.82709
-359.99396,3328.0168,-124.42318
234.4845,2006.1993,-40.51575
329.11118,1594.9514,-63.542717
463.16342,967.24316,-54.5294
566.688,508.3231,-118.31223
686.29517,105.303276,-162.8479
668.9889,306.17072,-111.31155
776.0652,302.6583,-76.69166
772.7611,309.587,-99.18225
1000.9316,682.35516,-126.99571
823.45496,2710.2673,-285.5694
16.959925,3468.98,-377.5535
-466.2383,2171.9905,-134.40501
-422.61688,1205.1074,59.255177
-497.0798,841.499,46.482056
-543.1042,627.8406,-32.754288
-534.1875,130.89742,-48.926296
-832.058,-356.34384,-85.42549
-706.5276,-662.22345,-140.80266
-602.5329,-311.33142,-240.63034
-529.58484,-67.86828,-51.186718
-976.2437,1304.6011,291.6392
-1786.2185,3163.077,717.13855
-1114.923,2469.7302,454.3772
-456.6973,2012.4642,453.88113
-212.89383,1765.0073,400.90308
-4.691973,1361.0471,187.11081
293.6359,642.39056,89.86327
592.0381,428.90167,-24.799322
729.83325,319.56107,-1.4617682
761.3747,260.47083,45.50204
708.43713,497.89697,137.89632
577.7706,1033.5573,149.01407
393.32568,2568.0261,146.97533
-342.5513,3229.117,-25.538403
-738.54694,2383.5354,-49.391014
-577.65295,1462.2334,61.786686
-478.32843,1002.4131,-32.137035
-447.02203,709.16223,-127.67462
-426.3679,199.9496,-250.21532
-692.0155,-92.70506,-322.3172
-924.04553,-273.14645,-340.95087
-1151.1228,-274.3948,-392.2521
-1035.189,-31.24994,-144.351
-1004.74133,648.0541,81.10445
-1299.9874,2095.6047,646.583
-1094.3961,3189.8506,887.14
-420.16068,2209.9004,654.8094
-110.183304,1531.6486,529.5434
160.15244,1296.9706,238.16855
219.79175,1097.087,73.84692
486.69946,576.78033,-124.610306
610.6985,385.7488,-62.176277
810.17035,213.20284,-85.619446
855.71106,261.39856,89.911514
934.5515,570.66156,120.920715
1003.0361,1426.351,357.6532
471.0753,3358.4475,558.67084
-459.20233,3518.0498,604.74274
-790.295,1714.4829,449.8558
-716.4976,1090.7686,345.98648
-731.3279,759.87646,103.536255
-770.98193,212.52406,-81.59633
-908.2639,-341.35306,-263.19278
-928.2085,-830.01996,-467.60248
-919.4245,-801.47174,-452.7191
-973.1242,-269.88107,-156.12444
-1220.8638,392.36655,150.05612
-2297.875,3130.2537,1119.0137
-1636.6898,3760.893,933.34424
-561.76044,2220.9314,619.43787
-82.97602,1285.8259,319.13672
279.96292,966.24207,118.45536
457.42252,986.2887,-0.69044065
584.3696,650.98663,-130.35472
677.87744,560.8915,-213.63611
729.814,529.09753,-70.21298
780.5059,663.02246,-26.154427
752.33026,871.5761,75.11943
352.39502,2343.0786,101.28842
-847.3388,4057.8623,-49.66516
-1742.8021,3564.477,-75.3861
