# PAMAP2 dataset (wrist-mounted sensor)

acc_x[mg],acc_y[mg],acc_z[mg]
-1109.5425,2698.8445,89.74414
-837.4928,1547.3214,89.39667
-717.23615,639.7354,101.51771
-695.7961,-179.87524,72.47401
-632.4529,-704.21716,-1.3730015
-629.92,-1030.7906,86.15329
-732.8639,-791.98346,79.96389
-810.90424,-685.8266,65.59662
-1061.948,334.61252,234.85405
-1887.5815,2187.9617,447.72388
-1738.9076,3356.9487,723.61096
-659.66815,3177.2168,659.2274
-61.05476,1862.6794,407.096
185.99922,1317.101,247.78398
447.16336,769.8161,242.74461
571.119,303.7285,104.81427
829.2759,-149.05959,33.376728
873.8052,-14.3971,60.785236
782.72687,66.395096,68.891075
657.8896,540.1181,-32.96067
340.01187,2087.058,39.384594
-386.5914,3723.0085,54.9584
-1137.356,3464.4578,339.556
-1037.3469,2305.7031,263.44525
-966.91583,1293.2064,215.19604
-853.306,439.42245,159.24805
-747.1295,-207.03061,63.065865
-698.62115,-753.07153,-24.015118
-645.8377,-914.1208,50.26301
-751.35345,-628.5673,44.428074
-752.14044,-454.58463,111.78079
-1223.1589,1161.7246,244.3186
-1599.1548,2515.0264,386.901
-1307.9207,3472.4187,697.885
-484.54657,2641.8782,614.37225
-35.647614,1429.8347,393.57565
188.82904,783.3514,197.52441
482.25436,213.64961,98.570045
891.5899,15.585585,18.261627
1043.0947,-17.153044,98.19294
856.9588,185.5572,131.48074
752.4674,199.30771,-7.8598237
383.974,1489.672,3.7427752
-156.32875,3587.0654,-342.387
-891.5777,4730.311,-412.48364
-1680.4886,3317.3345,209.90523
-1445.8667,1520.284,133.22632
-1154.5428,590.7872,242.62761
-896.73724,-133.98148,72.06728
-792.35724,-769.5224,88.03915
-671.0406,-1029.6716,-6.884811
-701.78845,-650.8995,122.2857
-760.89594,-363.7134,-35.317665
-1015.36566,-243.3392,155.3942
-1707.834,1471.5072,669.4572
-1923.7052,2800.2417,1217.0438
-1088.127,3089.601,1199.5333
-324.33722,2118.3025,899.8276
25.71097,1282.6481,554.29877
339.37363,894.83453,280.83627
534.4477,611.9094,138.95312
652.91785,239.81064,58.98654
896.59985,203.00273,-181.56512
826.12994,208.686,-188.538
712.4027,351.51892,-257.84268
347.1252,1271.7635,312.60785
-169.10437,3095.3896,847.6703
-1010.708,3890.1897,815.079
-1292.164,2478.0125,891.1138
-903.10455,1318.5265,647.5246
-757.5779,677.9781,388.5314
-576.8039,43.713406,252.1751
-486.044,-343.47766,128.79924
-518.83295,-698.20374,-29.537096
-683.9511,-612.4571,-79.13214
-928.1329,-402.74622,-57.242706
-1209.7194,309.50986,151.7323
-1510.3636,1521.0977,122.07848
-1583.3098,1971.6127,555.2289
-1208.3573,2936.5996,677.48804
-557.0425,2563.8367,385.40778
-107.55395,1803.2604,442.93945
318.23105,1051.478,204.98505
569.5458,566.8617,106.260666
796.1276,239.07207,44.20014
992.3073,17.934128,36.58521
836.3168,83.83158,16.476477
701.8916,143.21693,78.58983
459.70453,954.9926,37.993565
-3.4874744,2525.4204,122.839424
-838.5482,3852.6426,91.040306
-1545.3615,3497.2998,389.6157
-1308.6294,2185.5073,252.88231
-1060.5334,1100.4308,213.32913
-700.0978,162.51007,23.666462
-563.69226,-553.5144,-91.07683
-451.63077,-992.164,-202.57631
-536.6472,-728.0189,6.0122046
-794.78503,-578.59686,78.992035
-1009.501,-202.29698,245.45752
-1527.7859,1341.1078,122.18878
-1852.5681,2551.1501,619.23096
-1178.1388,3301.0378,981.5338
-485.80804,2414.3918,746.78754
-88.01011,1485.7195,586.8096
187.67958,945.1566,293.9014
483.1116,481.58994,167.67615
620.79065,151.68703,77.73844
944.5885,28.661507,14.876003
851.34875,189.55116,60.658756
750.7703,157.48315,106.11179
486.13367,800.468,147.96071
137.27226,2560.092,166.4986
-1223.9657,4351.8623,439.65262
-1925.61,3415.9492,688.83405
-1455.0947,1875.5879,315.84207
-1151.4852,853.5359,149.46788
-774.7414,107.07923,25.414597
-601.2099,-278.07733,-23.94147
-488.08353,-701.66675,-161.51245
-544.4154,-736.5527,-123.626495
-735.3439,-663.06213,-161.69012
-819.4777,-445.67078,53.202293
-1162.565,983.745,247.969
-1045.4482,1851.3275,508.5797
-957.198,3047.328,1249.7716
-618.4674,2563.0962,1077.1641
-84.22366,1528.8367,968.521
63.145752,1027.6152,664.26263
337.30145,549.7959,507.28946
463.19012,316.48373,386.8001
721.5355,-7.5986233,105.34991
814.50543,-28.337036,-15.73555
792.39294,99.31771,1.1349179
697.7363,556.8286,101.304695
400.32977,1995.0762,557.62897
-323.7906,3854.1235,938.9238
-1247.7379,3319.2268,1183.6017
-1176.5372,2095.7234,855.9225
-825.3593,1230.2017,562.07825
-642.77966,587.4661,348.42358
-587.9872,6.1115766,127.3517
-565.2986,-510.53046,-150.35683
-608.79095,-726.41705,-180.45575
-825.21,-603.75885,-154.95
-872.40295,-408.24667,7.499412
-1087.3666,580.32745,388.8884
-1092.8579,1326.5887,1092.8881
-1027.7238,2480.8032,1686.2664
-939.1362,3179.3774,1794.4084
-79.4192,1806.0393,1233.2466
120.26487,1112.8386,785.7791
351.98077,670.42487,340.81552
484.79852,404.52872,106.83426
768.99365,51.93677,-151.24094
1014.75116,66.49358,-272.8356
1126.1975,152.83733,-221.46695
973.8881,539.5729,100.288734
565.4202,1989.2711,946.3088
-351.86746,3091.8296,1767.7117
-1186.8374,3059.7654,1774.4929
-1164.3984,1709.112,1188.8724
-939.78345,1113.7523,866.0551
-627.0667,428.67868,405.83633
-508.83884,151.78908,99.29384
-545.6675,-296.71393,-137.50777
-593.6175,-356.39517,-383.7861
-776.66486,-554.18286,-579.11414
-646.79517,-150.81378,-234.09125
-728.609,130.84105,211.98894
-985.2131,1161.7479,1005.45984
-1127.2701,3419.2327,2709.8704
-656.5945,2979.599,2402.452
96.414665,1144.8651,1387.471
388.7445,403.18262,708.36017
556.0911,90.69545,369.27887
627.4798,-91.878845,74.73756
608.5858,-179.76924,-94.97366
544.03973,-219.5679,-251.93208
584.8372,-143.31192,-198.12054
691.26654,560.6113,269.9701
369.63336,1752.6691,1389.1879
-217.30054,3062.0093,2112.612
-824.0198,3122.2673,2126.357
-817.51245,1814.3844,1359.1365
-715.9229,1037.548,711.84766
-609.892,369.51694,256.1729
-700.9514,-278.6439,51.441814
-651.96497,-643.03094,-76.95038
-797.8005,-682.7594,33.09078
-881.7541,-792.3069,-110.139305
-909.343,-43.21392,114.71759
-823.14685,1777.9839,371.0311
-1151.8503,2077.857,793.00836
-897.4386,4148.6406,1428.3755
-131.75368,2834.8618,1078.2163
221.40448,1211.8416,612.9308
463.52667,581.77704,232.96664
612.08246,159.44272,85.38244
734.40594,-165.34879,88.913475
730.8225,-314.13687,-161.19989
688.3451,7.3132267,-177.61417
571.81366,29.432838,-27.202974
530.68555,888.93884,250.58557
424.09793,2051.9731,412.48715
-467.84924,4888.1504,605.0217
-1465.5264,4206.4575,1028.2029
-1225.9711,2079.1755,626.62006
-954.8372,1006.7669,261.43674
-726.51636,-2.450496,158.07088
-746.058,-431.92218,-12.083875
-669.69147,-787.4815,-177.6763
-670.70087,-748.6613,-82.46383
-855.2824,-674.3301,13.009453
-1017.2847,20.930489,66.5539
-1078.9979,1695.4553,533.1691
-1261.9552,2169.9155,991.98334
-951.68225,3987.3572,959.7909
-184.04753,2670.3103,846.03125
231.19168,1135.8887,408.71835
439.74176,806.7803,111.428604
552.38446,433.12054,181.38525
701.4988,264.98804,88.50795
857.85724,-138.19037,6.4951262
855.2134,-76.457695,-45.308052
705.62366,-174.35464,-19.89691
682.56976,636.29315,135.51176
405.62958,1754.1256,615.63654
-241.45126,3584.5168,484.28333
-1507.191,4116.6367,559.6901
-1178.5945,2335.4148,264.6972
-864.24384,1294.1687,170.60217
-596.5109,421.92563,83.59328
-533.9727,-9.783857,72.883934
-502.04544,-672.248,-46.156578
-587.83875,-797.52924,-70.12226
-783.9584,-870.77325,-114.97467
-1112.2201,-829.93774,-28.218311
-1380.865,716.7644,-33.957283
-1448.7085,2095.7979,-870.63495
-1397.3287,2913.8684,-1371.1616
-1296.79,3241.4136,-998.87225
-503.98022,2073.5593,-891.85675
-69.671684,1072.1008,-662.7703
332.70013,586.3732,-512.34406
434.34555,279.46332,-131.72345
886.2169,168.6981,-56.228966
992.50287,-143.04001,216.63824
976.33374,194.43863,-203.2603
536.8205,674.68494,-1177.9337
250.22203,1246.1561,-2042.7031
-1211.9716,1358.5879,-2179.4277
-1978.6273,1933.5198,-2381.5938
-1815.8645,1499.2085,-1654.3539
-1290.0721,727.64325,-816.78076
-926.8465,264.1751,-205.46548
-593.76746,-45.27565,181.21652
-495.3377,-424.80624,162.93456
-635.19104,-676.3693,411.78488
-839.9775,-670.729,706.69635
-1172.0508,105.59221,304.8436
-1494.0792,865.2956,-1141.0284
-1732.5818,2268.3906,-1446.5907
-1182.0543,2652.0586,-1336.5355
-424.80975,2484.6572,-1041.4045
-12.02894,1454.6697,-439.01694
471.8667,695.0501,-172.04698
658.4235,244.33412,12.6303005
1005.14764,32.35747,92.58468
879.8418,51.523083,106.14344
771.46765,66.177986,175.38524
469.78412,390.80573,309.59543
269.23132,1808.1322,-204.38354
-471.33127,2677.3137,141.20192
-1356.4565,3328.9204,535.1442
-1328.1235,1821.7681,619.66986
-813.77576,673.5783,402.7065
-722.0803,-222.283,401.13187
-231.9221,-289.14722,-16.334217
-393.7152,-1260.5278,720.8228
-161.41893,-1230.5665,434.19824
-950.756,-2025.2917,1003.5781
-554.72955,140.97179,-556.77435
-2231.5566,1721.6078,65.32575
-5499.0083,5234.405,902.74634
-193.45811,-1687.7963,-2031.7068
-3314.257,-3.6372693,2585.6304
-1384.8846,562.89075,844.04456
-1460.07,-1014.9689,873.0702
-283.31403,-132.34012,363.0465
86.40446,-281.8744,643.07513
775.73126,444.08966,340.9811
350.45944,142.27368,440.9481
213.5587,638.7907,99.90235
-121.59374,600.9996,347.40692
-239.73956,1326.6888,371.53354
-363.05383,1729.5143,698.92474
-569.512,2708.962,772.2066
-563.1428,2282.6877,804.67694
-188.37729,1492.7057,578.27673
-164.14175,379.89667,465.94843
-198.93486,83.96358,160.34555
-559.79663,-350.2011,211.91585
-571.10034,-207.69398,73.742004
-858.00574,-446.5267,147.40717
-734.21454,290.5866,286.61667
-297.46512,781.01965,489.71832
50.350033,1862.8928,572.66876
490.95383,2906.108,854.1833
589.6171,2237.7598,872.5457
552.2209,1451.7197,556.1716
538.6705,843.5679,162.52391
544.8111,195.06898,113.71977
474.93646,-28.229137,-80.77291
481.71237,-354.92636,-133.71738
482.4284,-300.37234,-205.9495
487.48242,-388.97437,-133.5939
690.501,566.67615,-35.63357
975.1361,2068.555,447.36353
744.4322,4045.3267,545.57886
-149.2211,3433.569,875.12854
-74.1938,1914.9055,659.25
-319.9999,964.88324,556.4346
-300.6285,355.4109,284.72754
-507.58414,-217.93349,208.6255
-509.0009,-456.37668,-63.560955
-628.56256,-544.6902,-18.10884
-848.9475,-355.573,-123.10157
-1176.9637,284.00473,328.64816
-895.67194,1648.8942,228.40681
-639.2709,1944.5461,954.89734
-361.61124,2669.4165,1411.7507
132.02464,2740.6565,855.1061
542.55884,1619.8542,650.02875
619.3866,779.63983,203.47305
747.4708,470.24484,131.1005
660.1313,207.85876,166.42145
719.5578,-114.31472,79.12792
594.9804,-156.42545,108.92049
674.8605,-165.68541,21.86383
564.1414,808.3823,71.224594
264.88077,3216.1777,-27.366642
-804.5122,4579.799,149.6961
-986.3896,2972.4758,450.74008
-778.8018,1392.4983,174.79298
-807.6102,506.24222,151.77957
-495.99033,-221.64792,106.33962
-423.274,-462.35156,107.68608
-291.55685,-665.9515,114.39865
-376.78943,-574.5122,53.911167
-460.5063,-511.64084,-18.127874
-704.70184,37.61525,78.12913
-1333.4045,1717.9818,-152.1888
-1603.6094,2846.4182,52.30228
-1440.9305,3301.576,823.60675
-541.93335,2455.9065,615.8788
-233.17967,1497.279,457.8664
136.65927,760.937,404.07162
375.3531,96.102425,239.5843
610.6524,-11.256327,263.13657
859.1739,-78.79723,366.51263
806.27075,147.5849,291.12598
707.16693,46.56282,198.1889
411.78134,1149.0599,-34.857758
87.16001,2886.3372,-367.25717
-1017.9402,3824.0608,-327.6559
-1395.8802,3030.1196,-197.06839
-1061.5569,2010.4353,-316.77277
-996.1809,1126.945,-59.18906
-742.8811,420.31375,51.49925
-720.4658,-409.3479,4.631156
-594.3405,-813.5916,-87.048584
-655.8087,-1036.0999,-10.242925
-758.9841,-774.0997,-2.069917
-730.54065,-562.6268,210.20592
-1086.4758,912.7271,86.638466
-1853.3768,2867.5232,24.992262
-1502.2402,4199.0435,626.3648
-451.78275,3006.6147,765.55896
-8.180104,1628.2728,539.27734
339.7397,834.905,697.5481
627.69794,-228.20332,242.40855
568.72504,-743.96075,-297.6398
914.96326,-560.55865,-220.31357
686.92487,595.6898,-4.0558734
479.31003,1201.7555,-78.48982
-136.45677,1551.9062,-172.7659
-170.35289,2367.0154,-1067.3649
-766.9494,4186.094,-922.6342
-1299.5449,3377.5063,-39.03343
-1351.1101,2150.1406,62.688225
-963.2973,1055.3368,77.266624
-974.267,139.56949,60.284946
-916.67194,-583.3992,219.95605
-922.1906,-1091.4604,-140.52612
-888.98083,-1322.5874,-173.04282
-1058.401,-885.6329,67.31917
-916.0759,-550.0081,245.89024
-1398.7031,568.50995,157.89565
-2193.4868,4010.6516,163.42612
-1535.4478,4455.1343,1115.2074
-331.85138,2259.1846,732.1511
40.731018,1216.9249,414.3932
268.37137,644.4451,435.96136
426.70648,270.0278,253.09749
440.44153,12.969284,160.0224
622.8522,-35.599884,118.03616
715.7538,-3.8520005,111.374565
587.5827,100.07626,146.18929
541.1838,184.85405,-98.19861
-133.3186,2495.7065,-121.64594
-1830.7635,4828.697,1237.2589
-1482.0156,3471.7217,1289.8773
-1030.1149,1551.295,289.60736
-826.16974,453.94354,161.17899
-587.9517,-67.08539,209.76292
-524.6808,-282.4569,308.18555
-412.6212,-691.8734,26.841526
-480.71906,-755.9077,-14.644878
-797.7532,-588.4177,-113.53278
-926.33655,-368.32333,-19.859524
-1090.6857,671.54395,288.09442
-1420.2733,1352.2577,778.4861
-1597.9178,2117.1013,1347.9169
-1204.0087,2251.2788,1229.7766
-741.67145,1098.1614,925.2551
-223.91805,905.07855,714.16565
204.81241,505.9345,600.7072
505.8046,204.01872,276.91888
817.128,-18.151674,208.3002
918.83435,118.03172,206.28915
769.73364,47.415783,181.83107
553.3064,234.54787,155.56866
-53.454815,1650.9904,803.2266
-1740.0195,5327.2837,1220.314
-2507.677,5029.9844,954.49176
-1890.6874,2330.9211,530.452
-1491.4915,728.0151,161.17789
-1138.3619,44.503864,38.25696
-924.66656,-648.3199,-247.80602
-829.5656,-843.23303,-208.25719
-729.5824,-798.3473,-117.342896
-837.9502,-640.6899,-75.70396
-1004.90784,-650.9856,-227.45732
-1094.6033,78.02084,83.88278
-1486.1993,1994.0175,594.835
-1338.9796,3003.648,779.8454
-733.4985,3947.0874,746.48785
-73.45398,2239.4114,715.32184
171.95374,1428.6171,343.298
396.70898,708.2499,232.50732
534.9233,353.0577,79.58483
746.67847,32.191433,85.3499
783.7518,18.788986,29.696049
654.6499,-34.044205,117.21161
527.4295,31.366621,26.250063
598.0036,631.58124,45.417538
22.632479,3348.4875,354.2369
-1019.963,4573.8145,755.6721
-1058.989,3250.0085,771.70624
-983.8482,1612.4111,322.24594
-749.0843,640.6242,154.11452
-589.9358,-50.559975,-11.841591
-635.25006,-632.8121,-241.25003
-577.99615,-1088.483,-316.01776
-728.3536,-725.2135,-198.53001
-999.4598,-702.5723,-82.93675
-1469.2026,419.95105,334.03027
-1925.885,2257.1282,952.8998
-1413.1404,2704.4873,1717.4592
-639.8583,2274.7368,1516.9609
-117.29869,1535.0427,1025.3794
256.40717,1070.8356,687.8618
402.19376,787.8375,490.51974
482.47763,390.18857,286.53848
678.4692,39.42416,-43.292362
850.4569,119.07438,-102.67356
698.3895,216.31523,-38.35991
589.84534,469.23416,211.47385
131.06078,1518.406,645.45105
-343.9798,3313.136,983.0042
-1502.8531,3869.871,1330.226
-1713.7087,2848.6675,1020.8302
-1102.0181,1580.9727,532.49634
-806.9255,509.80264,337.2069
-704.9169,-77.48974,72.49948
-652.59863,-564.2129,-41.94656
-528.90784,-868.4461,-129.70831
-698.5108,-922.2169,-159.87798
-772.64026,-647.5095,-105.24989
-940.4165,-204.03731,64.5178
-1447.4326,1616.0991,493.77362
-1601.7897,2869.2104,1134.891
-1095.2234,3593.8801,857.97833
-303.42398,2217.7964,782.2534
226.93454,1171.9731,500.99368
573.9621,675.60455,419.71957
891.1978,65.04523,302.01016
930.38763,-310.63672,-30.797194
835.9167,-150.23871,-106.83725
632.26764,300.08572,-26.136456
309.0827,1199.6206,115.401115
-302.09753,2837.3633,375.90588
-760.73566,3846.9795,464.8576
-1328.776,3164.5718,725.6641
-1230.4606,2229.5535,549.64703
-1035.1006,1074.7207,349.06
-886.62646,332.30078,77.99419
-833.5284,-574.01526,-63.790375
-730.48083,-672.7211,-116.07562
-766.32745,-877.8401,-119.710625
-842.93097,-759.1384,-48.8458
-724.4343,-611.3661,79.79018
-985.07495,787.5709,384.5205
-1447.854,2305.348,914.24005
-1292.8009,3505.7842,961.6479
-552.15326,2866.0469,850.1477
-67.13778,1426.8445,700.4361
89.39859,941.63666,349.9829
418.44595,386.8761,176.99156
608.6031,7.326094,18.262526
829.6423,-136.78531,-61.031887
733.3063,59.221695,33.44844
752.81305,142.16415,93.867905
486.0742,853.35956,278.68655
84.86201,2716.122,547.2467
-614.4448,3742.994,734.5762
-1262.3832,3048.2847,964.87274
-1142.341,2152.2236,650.39294
-927.8021,1099.6597,422.40585
-707.1234,446.03802,262.20877
-671.0466,-152.5395,69.1869
-679.182,-580.1,-78.45562
-642.15576,-835.6831,-216.61977
-872.27045,-652.1696,-256.1466
-1003.6543,-669.8478,67.592636
-1396.2622,906.9894,672.0111
-1245.3381,2501.4937,1134.9331
-628.94006,1867.6119,2013.2285
-420.82114,1975.6161,1839.3788
-44.13066,1299.3884,1220.8411
229.89917,842.3965,643.9377
355.54846,429.55197,270.40753
490.1497,451.7063,118.8419
632.7955,-30.321562,-96.131325
714.4879,215.35721,-274.13458
640.63153,179.2127,2.5627565
546.2501,437.26785,103.4142
250.72955,1735.0951,681.2648
-109.40398,3203.1765,1275.5793
-1039.4702,3676.4683,1673.0455
-1407.5858,2486.8215,1330.9026
-1310.8956,1404.3542,957.6355
-1082.0825,451.50555,545.6396
-794.07635,-314.488,206.03786
-669.48895,-727.2797,-0.38389194
-493.1228,-935.1923,-52.569466
-624.18567,-808.1727,-67.526375
-807.0082,-787.7665,-38.29371
-921.3283,35.12968,168.92786
-1289.2218,1740.3921,987.5618
-1295.7363,2704.2122,577.43585
-559.22144,3593.9272,347.85202
-74.18044,2312.8086,574.3532
98.185234,1644.334,178.76665
256.01938,904.73236,244.49498
364.95398,206.78693,-27.6129
502.3395,-308.7874,-72.921295
735.809,-310.1762,8.724221
674.3223,105.22973,261.67023
617.4194,94.10555,233.6396
423.96228,587.67395,187.48515
-16.671469,2800.058,650.3091
-796.6837,4200.0884,1013.0258
-1175.5802,2944.2607,916.8921
-948.074,1857.2598,680.69446
-832.7897,973.6168,550.991
-606.3051,173.38678,173.66675
-637.5748,-445.36746,-70.21041
-610.292,-853.80096,-181.17146
-619.00366,-876.4875,-181.71056
-880.18964,-746.6812,-180.12614
-893.6445,-488.4381,-11.977706
-1268.1604,1249.2739,387.54547
-1534.8362,2226.2812,1283.1044
-1261.5226,2381.4182,1763.2639
-747.4614,1920.2047,1427.2107
-210.86662,1250.3553,1270.5239
66.95511,894.4736,893.0256
317.19476,345.16956,567.7852
502.37344,197.51993,289.2691
755.6159,45.29698,183.63077
767.3255,16.326052,48.193993
694.99646,87.34482,77.368164
503.97546,859.02234,433.025
-66.26304,2721.288,1393.5237
-729.69977,3348.4114,1560.5537
-1113.3086,2935.0977,1464.0571
-982.9035,1899.2572,940.20703
-808.3826,975.7983,483.20126
-681.71704,197.89551,97.61978
-631.3032,-348.1739,-88.67168
-612.98004,-884.85376,-248.21576
-636.00964,-949.12115,-244.8603
-768.57056,-765.5159,-154.68184
-885.0968,307.78644,374.39493
-892.03656,1666.7612,721.3237
-849.70544,2436.449,772.9614
-367.74942,2864.8582,929.5475
-154.27654,2371.5789,818.72144
67.25063,1640.3864,689.2268
184.8885,864.064,419.4795
384.09164,305.35645,173.14676
556.47784,-101.92989,20.034029
734.10754,-203.37552,-23.992775
714.53796,-56.66407,25.681131
622.33417,27.235807,73.306984
457.5215,721.60297,246.48999
188.37619,2063.806,730.65985
-486.5712,3651.4653,1038.4755
-1117.2758,3237.4363,1028.7192
-957.3846,2181.6326,747.92896
-831.80365,1298.8618,564.65375
-677.6897,538.1811,326.2075
-562.9195,-171.81439,93.241295
-521.1703,-756.31903,-72.72712
-478.4924,-1018.0746,-196.58795
-645.68915,-813.0038,-187.64825
-804.55237,-639.06714,-43.750736
-1111.3405,614.1887,285.4228
-1779.8005,2164.0825,819.1539
-1453.5125,3254.6287,1297.3805
-623.5365,2780.3313,1194.5311
-36.124058,1388.4764,907.8324
119.53347,904.2547,619.6703
305.0987,284.40952,318.84552
547.1993,-9.117048,53.841896
739.72284,-65.445625,-22.372595
723.05383,191.60548,59.08863
648.01544,231.73875,117.67322
409.12204,918.9027,279.94382
241.88774,2026.3287,310.0944
-445.0648,3862.7441,677.32825
-1681.0437,3697.5298,1106.9296
-1701.6868,2534.1863,783.79553
-1330.4463,1341.7335,440.00043
-1039.4857,353.80365,152.22612
-769.9348,-446.96313,-35.749634
-611.16345,-809.5933,-261.01514
-592.3797,-1053.0354,-355.02097
-734.3104,-787.80896,-189.96999
-831.8533,-702.1994,-93.262375
-1183.5903,794.41187,367.87253
-1456.761,2158.373,973.43945
-1131.5939,2922.9558,1210.6521
-555.93164,2669.9675,1171.1753
-98.20639,1593.0042,976.0592
83.41993,1054.9567,611.7563
284.001,494.04254,394.69193
465.91687,170.28343,229.8489
689.7451,-67.4611,144.22574
763.55145,-1.7724009,-20.902172
766.10345,2.3427238,61.28529
681.5635,211.02254,81.40033
246.91551,1879.3999,775.26965
-700.1454,4231.891,1252.1222
-1436.2219,3633.4917,1234.3168
-1243.7638,2235.462,955.24927
-922.812,1127.3746,568.41406
-682.2216,134.0775,148.56798
-562.1672,-353.88696,47.29469
-549.1776,-665.25793,-135.2076
-641.04407,-784.10834,-106.95556
-774.9232,-740.5061,-143.56723
-882.4598,-490.14047,14.168422
-1091.6174,-104.41082,239.81157
-1692.8909,905.02374,1156.0651
-2343.067,1646.7045,586.1611
-2124.761,4559.425,482.3898
-674.27484,2402.0679,940.5827
-137.41475,1057.9608,172.41083
277.20483,533.2606,60.37646
418.22928,438.33408,-95.43583
797.7584,-3.9239483,-409.82205
838.8328,57.0392,-185.05414
506.0235,527.7105,472.69638
474.16953,209.43852,139.34305
237.60011,764.45447,5.731489
-764.37103,3004.9202,183.8997
-1703.0956,3885.2012,833.84625
-1711.7472,2722.3774,400.6054
-1326.5426,1634.0833,-5.0050225
-1070.9337,735.5405,164.01729
-799.43524,-45.278618,160.64203
-620.6172,-696.663,-192.1506
-454.39307,-1162.1118,-383.72525
-828.04517,-953.21814,-213.69832
-999.05206,-589.5007,-169.57281
-1349.177,-108.74401,-169.41278
-1995.5692,1297.2406,-45.431942
-2310.6272,2642.0269,592.13635
-1765.4631,3298.857,642.7471
-773.1393,1998.4911,566.67633
-279.41745,1265.7577,478.49734
-42.69819,812.6525,350.98505
316.74445,439.80557,326.2618
731.40137,24.02116,135.5784
988.16327,59.123074,95.10222
804.0732,124.62811,76.12171
746.77783,621.7464,71.7512
-50.182625,1816.4888,141.57738
-530.90186,2875.7927,447.2035
-1158.6915,3543.158,759.5155
-2249.1428,3099.825,818.07965
-2473.7046,2150.4692,536.05774
-1923.0792,1025.7587,267.26007
-1239.8853,23.47125,-68.4051
-791.2696,-880.2181,-355.79166
-453.31146,-1367.1624,-468.41388
-507.45892,-1267.1558,-137.62094
-688.6753,-904.46814,22.526463
-857.553,-459.74432,89.48269
-1641.9944,348.8815,157.63013
-2626.0989,2075.6348,915.52136
-2460.3142,3125.341,1234.9861
-1455.8191,2178.8816,1026.7423
-689.0468,1207.7972,807.73083
-229.67,776.64923,597.5749
302.14987,552.1295,378.31876
803.1366,426.12933,262.2944
1153.0422,606.2366,342.54898
1096.2809,838.2196,305.12308
696.4602,1087.9551,266.23718
-77.590965,1902.7515,485.07416
-941.86206,2799.225,939.9314
-2151.0283,3179.7244,1251.4148
-2267.1267,2528.119,1054.5602
-1753.9583,1707.477,735.31976
-1350.0659,930.24835,253.15416
-1064.2194,56.514256,-156.3949
-931.9307,-464.37482,-398.3494
-761.9258,-957.65894,-531.64325
-919.21063,-933.38605,-340.2018
-1047.0953,-807.7079,288.05804
-968.9736,-143.24127,529.6041
-1172.9993,923.0954,724.659
-1555.0664,2239.6636,1798.573
-1254.1056,2833.1387,1871.4019
-447.82758,1843.1222,1313.1238
-124.127815,1156.2888,926.9663
224.12529,673.843,531.4215
644.37195,462.20486,259.2746
951.5996,209.737,186.34515
970.1248,287.48602,162.16304
810.3389,392.36108,-18.334986
605.0734,565.222,205.26256
295.24896,1397.4458,781.3469
-218.51854,2618.378,1505.2535
-794.0891,2848.8577,1719.5399
-1065.4468,2457.5332,1400.7789
-962.6156,1511.5042,826.26483
-838.01276,675.8622,336.88397
-768.1036,-170.36104,-150.132
-715.7447,-674.53406,-287.69144
-582.8244,-861.37115,-326.62494
-780.6205,-650.43475,-171.30719
-866.062,-715.8639,-183.8847
-1137.8538,-7.373632,279.49374
-1927.5488,1263.0636,1418.2161
-1853.979,2610.585,2132.7283
-1193.5815,2076.5383,1760.7396
-584.24243,1102.6097,1337.438
-267.5134,953.2052,1033.4288
84.24795,567.55426,714.069
412.4971,274.721,446.6022
740.462,11.161979,224.99948
897.8974,127.08746,182.58524
721.0355,206.12436,232.54546
349.5188,730.1668,370.9137
-149.76402,1231.0138,754.4724
-1004.7412,2482.1445,1920.8771
-1935.5598,3009.7654,2037.4503
-1755.5183,1962.0067,1428.4701
-1229.2755,1195.8553,924.2933
-836.9381,524.3473,480.28674
-661.5307,-99.17561,68.09912
-309.30707,-1037.4875,-586.19885
-241.18346,-1320.2563,-691.30597
-531.04767,-1026.6172,-165.35463
-948.6867,-681.256,-24.416979
-1667.4236,336.93195,-188.64432
-2262.7988,1648.1332,935.8727
-1807.7233,1936.315,1163.2761
-1150.7466,2441.1353,1477.4807
-700.81604,1808.5742,1455.443
-167.52829,1331.5366,999.23334
-4.758165,940.6198,797.7816
269.21738,641.5256,487.98505
480.92142,259.13098,375.93954
722.09955,79.22548,167.10178
808.336,10.784925,115.08156
697.4796,75.342766,103.82745
587.503,117.517525,87.64809
-138.59166,1986.0275,553.16785
-1102.5663,3986.7366,1598.8096
-1553.78,3643.8494,1529.5372
-1695.9795,2274.591,832.58997
-1324.1937,1125.911,435.20773
-900.1391,431.3531,217.95926
-653.48755,-356.53915,-131.63026
-547.88385,-926.61694,-406.40808
-468.51306,-1175.2466,-430.5662
-702.2274,-938.3837,-322.78857
-853.6217,-752.2595,-338.58273
-1418.4893,376.08286,156.98978
-2101.1848,2067.9497,1258.3021
-1728.6012,2796.547,1578.0967
-1076.5637,2406.543,1379.0564
-349.98962,1247.5006,920.8399
24.64567,975.09845,673.6541
233.45238,584.2371,561.264
440.72766,310.81268,339.17682
781.5934,4.5427923,168.41176
855.89795,284.15884,225.9136
734.20056,171.69493,262.69202
588.4215,761.67957,-72.11021
580.976,644.1102,-274.07428
-1187.8892,3611.3098,1392.3229
-3458.1875,4946.3257,1358.021
-2438.7979,2157.1853,625.4259
-1585.2666,1243.2107,844.44934
-1130.5371,297.72614,367.11844
-893.1938,-216.59627,-89.47728
-557.1923,-1065.4368,-494.4594
-457.45062,-1118.3188,-447.9026
-676.8165,-1021.77527,-183.3331
-878.9473,-758.17065,-115.2839
-978.12823,-537.6151,-49.780094
-1837.34,856.3168,440.8965
-2469.0596,2396.8787,1547.4998
-1871.61,3041.4766,1604.0198
-782.85504,1763.9253,1018.54596
-282.70178,1037.6875,695.2871
10.205112,807.2469,387.2009
459.64737,681.6163,370.06567
804.6332,312.55145,62.48335
1139.3147,269.4215,-20.545185
980.97455,369.95322,-6.637739
817.7568,556.6718,35.24179
85.691025,1321.7942,401.87714
-841.94507,3308.6455,996.3891
-2082.24,3881.7795,1429.6482
-2503.5178,2784.7744,1266.5106
-1931.4312,1542.063,634.6495
-1408.2101,662.07654,235.8768
-1088.1971,-87.62416,-55.84345
-850.08386,-961.764,-266.32855
-580.204,-1446.8535,-524.09326
-768.7615,-1119.66,-222.85849
-1038.3167,-862.02783,11.475034
-1027.3324,-417.1004,109.244484
-1759.2677,1060.9996,827.3842
-1801.5547,2444.615,1309.8456
-1299.9276,2827.0947,1195.4229
-601.5633,1896.8497,1030.8027
-253.10635,1127.4054,787.207
-103.07528,773.5421,632.68646
182.7599,463.35214,425.12558
609.6587,216.60918,348.1523
1014.73444,125.641495,267.71274
949.4684,247.25594,137.18205
674.3249,503.83734,18.696081
4.549162,1459.6814,314.99228
-1055.8738,3325.6736,665.7538
-2445.4653,3449.233,996.6899
-2459.892,2501.466,874.3514
-1834.6266,1433.5363,336.88226
-1226.9918,345.48993,-110.64962
-805.5207,-172.4574,-181.18634
-576.4523,-614.9487,-336.46075
-484.69302,-1108.4358,-536.89307
-548.49255,-921.18524,-356.53094
-766.50903,-609.9296,-91.86904
-906.29034,-270.0179,149.43117
-1674.6094,1221.261,655.18304
-2077.513,2435.4373,1518.6222
-1504.6462,3040.0764,1500.8798
-587.17786,1610.2344,1091.8864
-223.12132,968.6166,788.6686
42.61414,535.3679,505.0172
302.6292,447.9835,317.53918
539.34033,48.71631,290.00613
937.8423,131.32703,238.91176
1321.5463,-85.137474,14.313857
833.2428,614.7627,-17.965736
4.580882,2211.7517,859.6199
-823.6508,3030.278,1494.7494
-1657.9652,3519.0027,1223.5199
-1744.8776,2692.5166,921.7674
-1336.9314,1610.7446,614.9749
-957.8351,659.09686,110.42831
-703.265,-340.287,-250.28262
-665.0086,-941.638,-430.09018
-593.69116,-1135.8381,-358.72708
-881.91766,-1027.2169,-76.91189
-1109.7373,-762.14294,24.46565
-1436.9319,-218.71935,58.238777
-2370.7053,1877.9318,1466.2421
-2233.492,2223.8052,2110.1746
-1535.3065,2376.014,1858.3312
-653.8743,1223.2068,1341.3798
-205.3001,849.3819,704.7456
131.63669,650.50287,442.68994
405.2259,475.47708,310.91867
730.63367,140.8549,123.78859
1044.5133,-23.996538,99.27812
1179.022,35.418175,57.84317
748.98865,297.83917,99.964966
40.68733,1873.4694,501.50406
-1140.9077,3611.68,1032.6078
-2010.0657,3679.101,1282.7867
-1654.1309,2484.4114,984.5839
-1317.1656,1344.9888,598.451
-1012.7171,596.93616,339.9961
-901.7166,-257.9709,-30.58335
-723.30164,-1145.5511,-382.98724
-627.4069,-1203.1461,-386.79538
-701.20776,-963.7707,61.069916
-774.3589,-696.8266,126.85304
-948.4218,-137.5849,87.89051
-1619.8922,1294.5161,777.649
-2056.3838,1431.899,1666.6599
-1939.5118,2662.0032,1953.1022
-976.6696,1729.71,1240.8622
-338.14438,1199.0308,1026.0697
20.462423,726.7609,575.1754
323.35602,525.2801,345.8623
664.838,160.19327,200.03029
957.13416,63.638165,29.742517
889.9401,96.36679,-62.18592
722.28186,184.17058,40.031155
225.77487,1269.7079,442.66678
-790.70807,3194.4287,1026.0999
-1804.96,4003.2405,1086.7233
-1927.3341,2826.4485,1013.89655
-1500.1704,1675.0779,520.4039
-1214.6527,621.1943,208.38426
-942.2107,-246.39124,-129.48294
-686.71594,-823.4736,-321.5114
-510.43594,-1156.331,-367.15723
-609.7126,-976.55426,-170.89395
-763.845,-678.83923,-127.56631
-926.73676,-224.92578,67.55065
-1817.5393,1261.7827,518.6955
-2007.1079,2847.6138,730.1962
-1204.8082,3508.425,483.8793
-531.62823,2294.2502,509.77213
-166.35294,1395.9003,283.47446
215.33267,768.8595,231.20789
599.0656,204.13841,105.18283
819.17065,-131.69275,92.87147
826.00006,-57.84101,242.55855
541.23285,155.82643,393.72528
392.53098,175.4907,176.69788
-84.12995,1758.318,163.62598
-1080.435,3714.6328,464.63443
-1512.9572,3432.817,536.67566
-1406.745,2744.0837,383.6067
-1243.551,1188.9707,54.27898
-725.949,306.93265,48.886456
-631.3795,-251.24101,128.80501
-634.9809,-700.7799,62.47469
-635.07434,-723.4507,50.835335
-684.6931,-738.2703,-53.228474
-836.3729,-506.9854,-70.052414
-946.6886,-186.78642,54.222298
-1311.6863,1219.1898,241.51581
-1427.9517,2587.9587,918.1422
-1311.88,3063.3447,964.2327
-384.99222,2131.7896,638.51886
-47.458424,942.8733,448.76526
352.87967,595.489,400.22617
715.361,136.76218,325.73264
1027.7338,-124.80454,234.8354
881.51337,-149.34515,146.76286
712.65106,88.524536,108.30949
626.0812,-67.599945,-89.89013
-47.280437,2183.9277,310.06787
-1839.0275,4877.794,1107.4492
-2361.5671,3869.7354,785.0732
-1692.9188,2195.1475,637.0373
-1225.5555,920.1221,367.6581
-838.6198,218.19931,114.52589
-747.30975,-464.24493,-96.317764
-519.623,-853.96735,-243.99033
-412.87888,-861.44934,-273.9155
-515.7964,-723.7403,-118.94638
-689.38,-541.74255,-60.37863
-798.6724,-309.8965,58.323444
-1917.988,1368.0789,622.3659
-2248.7275,2882.15,1402.2076
-1367.1599,2818.2878,1057.578
-568.2173,1895.0126,862.2032
-82.98021,1149.6858,520.0517
296.69162,745.7147,341.5328
668.89746,306.12793,140.43506
980.38214,62.37752,103.51025
975.9268,30.234118,114.88634
737.5699,182.51236,132.23946
503.45212,273.333,-0.04459858
-267.17175,2185.8079,598.48065
-1787.4924,4068.4507,991.1206
-2619.164,3436.304,960.54376
-2189.2456,2536.3604,791.7442
-1439.6783,1219.0692,409.84372
-965.2888,361.23447,74.37194
-760.28577,-464.99753,-93.927536
-578.45123,-1066.6349,-302.483
-425.76773,-1291.4678,-311.8742
-622.3502,-970.05194,-175.46826
-895.97687,-834.91455,-117.20107
-1238.7012,62.130516,128.51611
-2244.7322,2484.2676,886.0375
-1593.9456,3219.8862,707.37604
-503.03006,3461.634,760.3392
-190.11105,1797.6125,702.73737
166.8532,828.75415,324.34082
425.44748,80.494644,210.62102
549.74493,-12.368908,125.97201
609.6864,-179.75774,138.04822
646.9142,-45.987686,76.67302
596.36646,-32.81502,-5.3875256
435.8862,793.8389,65.70581
-227.88383,3026.5251,252.44356
-602.9929,4414.0073,190.16788
-1249.3002,3917.0564,468.83087
-1360.5464,2306.9812,329.33798
-1018.2814,1031.1575,303.84387
-862.02924,262.89697,91.50902
-776.711,-635.4903,-77.42869
-663.39594,-1078.3151,-213.8362
-678.17706,-1013.98364,-122.91069
-924.2521,-757.7305,-159.0963
-1171.4948,-488.59235,-77.63243
-1579.9083,347.16095,171.57289
-2202.5488,2070.414,759.7108
-1897.1812,3248.9727,1224.19
-963.17114,2914.8376,1143.8575
-346.9928,1516.4807,785.80554
8.187158,1136.8519,496.46588
338.0093,699.8937,398.7242
593.2144,475.85666,250.23668
914.0434,19.808567,87.87561
993.7328,129.56395,18.089058
811.1847,-9.664628,38.579857
517.68896,740.6837,165.7193
-263.77243,2617.4985,912.713
-1359.2516,3868.6619,1191.3306
-2268.4832,3058.7427,1163.8013
-1913.541,1770.7458,688.724
-1285.8287,957.7937,431.0845
-888.7559,200.20415,161.90858
-629.7279,-554.31854,-164.77193
-503.89087,-1028.4958,-313.4429
-467.27042,-1050.9401,-244.91248
-801.75214,-878.7444,-202.89944
-1030.5941,-606.68146,-41.6931
-1574.1085,648.1156,187.26329
-2228.9246,2294.3992,959.43866
-1745.041,3145.5452,1506.592
-798.3081,2285.68,1126.4631
-162.857,1177.8102,806.9709
67.10247,946.6167,675.1949
387.68588,633.1459,523.5842
784.40216,257.44714,267.3892
1038.0692,-113.32271,46.471226
852.07184,127.36183,51.473278
609.83093,336.45465,106.90772
11.046469,1832.3597,455.81226
-851.43414,3532.101,884.4702
-2007.6731,3495.5422,1077.0865
-2017.1006,2497.1846,893.3291
-1547.3872,1257.4716,497.75458
-972.32654,439.25357,162.18883
-748.6648,-271.96475,-104.394806
-591.76996,-813.5494,-248.05048
-545.28046,-969.92816,-259.32794
-699.1404,-960.41614,-197.6985
-974.3156,-740.3809,-146.10953
-1231.6193,-216.42911,71.8783
-2073.2542,1660.2389,646.22546
-1827.7773,2489.982,1196.0507
-1173.2992,2741.956,1088.8794
-486.893,1691.9198,814.18176
-172.63693,1125.412,542.83234
182.96439,696.24396,398.09146
451.38293,535.7472,437.06146
999.5711,58.29014,320.32355
969.84875,177.56357,226.12408
793.586,415.45676,235.29941
383.21814,976.5461,253.80539
-179.02415,2481.843,-69.38482
-1447.8628,3700.0996,280.70786
-2439.302,3412.2095,642.3962
-2030.1016,2066.5332,257.58752
-1350.1047,1155.5969,184.71243
-932.91956,403.74054,25.076284
-725.1853,-360.9758,-82.75356
-557.1603,-1004.7296,-216.78015
-467.84348,-1168.8341,-266.79578
-751.0152,-957.9938,-222.92308
-1011.3951,-725.87427,-120.982
-1398.3381,141.23187,80.00713
-2294.3457,2111.7139,589.2174
-1960.1149,2956.6023,1061.9851
-996.5258,3003.0178,945.8249
-218.54337,1711.5614,650.19586
89.628845,1168.7268,385.3068
661.52295,674.1638,180.51501
1036.5737,362.9858,44.461693
1216.1488,33.646225,-38.34846
872.2449,248.1265,88.88685
648.43524,306.13535,39.918007
162.92415,1204.1884,164.26865
-1044.6266,3551.49,334.48032
-1862.4152,4177.636,564.05054
-2131.0032,2976.9656,641.32587
-1701.9163,1818.017,98.62575
-1270.3989,612.7495,182.43625
-1025.617,-265.54123,-8.548306
-762.4827,-1163.106,-149.74933
-641.89374,-1281.342,-109.19786
-727.9733,-1118.8405,1.3445623
-995.539,-884.7477,-84.523766
-1079.5354,-456.89835,-76.58678
-1816.9886,919.4901,493.78754
-2404.4832,2400.518,937.62
-1880.3446,3554.498,1051.3492
-874.7859,2284.176,965.58325
-240.38336,1219.0981,652.8634
-22.269194,756.7373,617.2763
290.83728,512.2926,421.24393
560.68976,200.73125,209.98051
950.3983,119.13611,98.431335
901.24554,166.76778,141.61441
804.3917,243.78624,18.730549
271.59183,1076.0127,307.93585
-707.7606,3408.2417,791.141
-1846.071,4147.5522,1098.3616
-2250.0796,3094.1226,1027.6655
-1960.932,1866.02,728.6896
-1455.2311,688.94684,471.04156
-999.6298,-269.34775,-61.408142
-738.01587,-962.61115,-310.8015
-582.98566,-1314.3632,-401.68945
-738.35516,-1112.7572,-249.65132
-1117.6937,-764.65106,-215.4805
-1429.5806,-52.16313,105.92019
-2078.2632,1331.125,540.50946
-2086.3025,1920.269,20.394236
-1527.6176,3623.601,604.4916
-681.7685,2823.4297,745.9964
27.264065,1616.027,578.66016
230.99739,761.85944,465.28186
382.84744,319.524,257.48672
457.31616,262.39423,177.14334
682.7008,532.4068,299.88586
692.46136,579.1699,351.17395
566.3667,659.6623,197.53058
116.55044,1180.6357,367.0505
-424.61832,2959.9158,302.44562
-1283.9037,3842.9587,185.93187
-2144.003,3427.924,183.94685
-1994.8121,2103.322,3.4985356
-1651.7517,886.29767,97.310394
-1251.3386,-195.8519,-28.843195
-980.9748,-962.02045,-194.56093
-818.6859,-1225.6586,-291.13986
-852.60284,-1209.7686,-149.34775
-1133.7644,-883.43884,-123.62525
-1154.3035,-456.22708,-17.698572
-1724.316,1228.3209,517.6613
-1837.6251,2336.5679,878.5514
-1171.135,3677.2651,902.71277
-273.71973,3015.5972,812.8459
16.074,1455.5598,357.23663
88.8455,966.1935,422.01648
412.7842,279.5881,273.00876
646.6988,-190.3653,88.50873
798.34015,-492.91833,-31.099522
763.79443,18.529411,167.25081
729.3772,-132.6816,-78.55412
10.708191,1710.4138,216.59998
-1196.053,4590.3794,676.1162
-1501.2375,3544.017,513.4052
-1301.8975,2593.6443,566.93243
-995.2373,1024.0999,193.49126
-595.14905,421.32617,162.58032
-578.84717,-168.55823,62.150402
-609.3914,-908.03424,-62.880856
-759.5116,-1166.8573,-72.23243
-1042.092,-899.96387,-9.531591
-1114.4497,-710.19977,-10.291381
-1464.7369,96.85576,86.03959
-2378.1206,2052.7861,670.29926
-1992.4558,3363.8247,1139.8877
-1215.8639,2633.683,1094.103
-442.61752,1337.1862,765.4049
-152.73166,829.87994,590.42706
141.24307,633.04834,533.56256
553.86957,410.0418,388.12173
1034.2913,450.47162,387.52832
988.0839,558.91595,367.40082
707.16144,601.1033,296.95477
146.18883,957.82416,324.1249
-880.1528,2728.07,990.83484
-2288.6726,3472.3418,1256.4489
-2452.8079,2961.5364,1111.869
-1986.6545,2089.978,712.6451
-1390.0731,654.35486,209.1106
-1249.7385,-213.63115,-123.41121
-942.8305,-1157.3776,-455.70853
-626.2273,-1658.6133,-593.5291
-660.79755,-1243.435,-51.191
-970.64703,-753.1854,52.374996
-956.1302,-475.62497,-21.469818
-1837.2177,1050.1055,513.9712
-2534.939,2844.4348,1349.6517
-1702.6053,2853.4297,1327.6356
-913.25116,1784.91,919.3191
-403.9067,1088.236,662.6663
-127.186516,947.6038,538.05383
334.82352,642.44507,398.10992
728.9162,430.82993,252.74457
1075.801,261.09497,201.59418
1008.5582,397.19547,235.32945
536.83826,966.1058,420.86868
-183.5365,1787.4622,774.4426
-896.7498,2080.1628,1231.629
-1701.6062,2579.6584,1759.5334
-2281.5151,2172.8567,1785.9904
-1895.2494,1220.5116,1010.2289
-1252.6517,457.6968,401.26767
-946.1215,39.440918,26.068645
-694.56665,-605.53546,-202.50543
-608.51074,-988.5522,-429.47424
-639.99615,-957.678,-368.4913
-891.5613,-881.80707,-116.77308
-1005.38837,-680.3494,-219.64153
-1706.4014,805.5483,300.25516
-2170.7944,2159.895,1381.1184
-1781.844,2930.9143,1516.4492
-900.9498,2156.057,1238.7258
-254.66206,1245.2904,908.8895
98.98956,872.5875,646.48114
483.90533,576.7649,494.83807
893.5566,234.77292,334.01508
1086.4272,38.978798,150.70793
888.53253,165.85106,128.41197
595.2418,379.41138,182.34933
-86.91044,1608.4017,667.4583
-1203.8043,3311.734,1238.8942
-2156.8286,2989.267,1271.5643
-1894.9644,1976.5647,1017.28345
-1359.2255,1203.9672,679.7278
-861.8023,544.3551,366.98535
-567.0432,-112.2522,-3.3993163
-398.3287,-763.24304,-352.67014
-329.29993,-966.52783,-359.42105
-542.24945,-839.9881,-231.63106
-712.03784,-761.6156,-170.95673
-1058.5504,38.310917,103.7589
-2071.7114,1473.7106,959.59607
-2140.0461,2755.657,1560.5377
-1325.9851,2464.5479,1456.3583
-466.7575,1311.9349,1133.6195
-163.01799,929.29785,906.2605
183.4622,346.74258,616.2088
592.8412,33.617004,309.6828
928.9364,-145.21725,236.92462
901.3955,116.67082,214.91039
704.36646,87.072845,212.65459
397.66544,506.88788,366.39218
-443.6568,2183.095,1201.4845
-1480.7225,3540.2852,1531.6647
-1920.5304,2732.0461,1434.8033
-1757.0061,2012.0052,1165.1892
-1418.5558,1084.4478,669.91675
-1002.7409,293.24615,204.4079
-840.7341,-371.66415,-91.18856
-642.23627,-1020.00116,-348.3228
-629.1283,-1243.3268,-469.89957
-755.23663,-1107.9546,-266.5013
-892.78406,-808.6508,-105.289795
-1163.746,-126.71306,-22.07973
-2437.8115,1587.1764,808.0779
-2562.528,3007.9285,1687.7825
-1536.8727,2891.24,1403.0482
-559.95984,1562.5126,971.5914
-135.89009,1088.7484,664.0685
247.71455,836.31683,488.1447
755.8345,520.5822,345.83328
1173.6776,75.83669,122.96144
1039.9904,373.59207,96.41967
1026.061,491.37958,49.035225
672.27167,2254.9355,463.01743
-98.79933,3801.4744,720.38055
-946.602,3945.8254,749.5042
-1596.1658,3506.207,1002.86975
-1390.3705,2164.7834,753.7437
-929.38763,1156.7922,404.60748
-883.8118,381.02768,155.13513
-900.5718,31.41826,-84.179504
-1142.4131,-213.53539,10.600462
-888.4548,73.63397,39.606316
-477.86655,511.84573,121.08819
468.38354,280.4723,444.62387
1315.3508,272.75238,853.42786
1473.4474,1800.3444,1089.8086
863.7299,635.5585,1365.3739
678.9142,520.0649,1024.1191
544.4512,192.35379,282.46844
56.129765,-287.56128,-67.9111
-183.23894,-266.13345,-300.994
-255.93178,-255.6036,-438.44382
-69.95486,-216.14482,-505.26947
-67.52569,-300.74597,-462.46005
-145.00316,-104.69767,-49.10497
-298.58224,1139.6294,222.32376
-93.59905,4270.2363,-798.4981
-494.28882,5834.492,-562.3999
55.294117,3606.1172,-264.97946
-132.3867,2138.0518,15.364098
-306.34683,864.5242,131.06122
-477.8465,38.735977,75.098366
-568.3225,-664.5446,31.717339
-620.2118,-740.08856,207.28531
-815.44403,-431.46332,89.66386
-1121.4152,-191.70099,-13.561645
-1083.7352,143.71828,41.523468
-1424.6494,1554.4567,-288.39243
-1187.1534,3200.4602,15.047248
-702.66406,3077.3438,417.02646
60.297005,1909.3643,315.8525
244.29427,1301.707,420.49774
454.89114,564.6691,281.67044
701.33264,256.98605,208.00446
828.50134,-34.06737,68.82042
777.9225,14.644686,39.04182
711.14294,-5.26881,-21.225397
562.92566,298.61978,115.40192
344.97067,1543.694,47.388966
-856.94244,3646.2715,358.96243
-2504.8867,4187.488,921.24725
-1392.1099,2180.735,729.49164
-1334.9612,984.12,314.66788
-933.0322,18.650135,154.55998
-759.80096,-346.5059,-96.1036
-559.4913,-741.3286,-206.84055
-1049.7643,-829.15717,-537.7116
-1273.7844,-698.5517,-1120.901
-1308.558,-566.3214,-669.3804
-1310.9928,543.31195,147.44482
-1842.3833,1262.5626,806.67334
-2151.2695,2993.4082,1525.1515
-1306.9135,2558.0125,1329.2877
-442.78607,1543.6897,850.7412
-131.26839,1053.8473,612.8833
171.08818,588.4239,391.4444
405.47336,332.62802,256.339
758.0842,-22.155138,122.18615
712.85406,-36.276844,115.52978
643.1869,72.00733,138.64973
378.29626,330.29657,61.550568
-423.85312,2696.7002,226.77335
-2422.6953,4766.0356,395.62347
-2856.5835,2992.3132,834.4478
-1788.1055,1677.4032,320.68655
-1317.0249,565.57367,-17.616835
-882.57886,-126.48982,-66.30147
-606.1099,-709.83374,-148.76477
-500.1997,-1142.8213,-256.4054
-530.25244,-1204.7831,-186.89944
-843.36993,-861.8122,-159.1215
-957.2528,-500.31717,30.55489
-1879.0659,877.88184,183.34451
-2413.2942,2192.8057,667.64105
-1772.5331,3156.8953,1048.8988
-788.06506,2255.4177,849.75555
-150.89192,1310.4523,736.83
252.66376,884.70496,372.52744
772.03845,478.5842,188.00674
988.51074,238.17749,-56.01663
1068.1503,355.78452,-91.36348
783.5174,403.07465,-56.614162
582.13153,395.9054,-118.11119
-83.42685,1675.1805,4.061517
-1339.504,3745.057,398.02383
-2350.1826,3544.987,704.8731
-1897.5912,2287.5676,616.0831
-1297.3129,1332.3068,358.8029
-967.7308,403.1958,192.28017
-768.6657,-412.18158,-252.10558
-643.3898,-1414.5227,-111.830795
-467.8889,-1516.3091,17.849756
-782.5284,-1120.3462,-90.831985
-1008.2836,-890.1656,-86.715904
-2132.1257,812.081,192.9089
-2952.586,2958.3062,950.46625
-2060.652,3070.5232,1010.07007
-990.6645,1923.5376,911.23334
-354.746,1138.2062,717.53503
-52.8502,1127.1016,623.25745
360.74344,687.7632,352.5072
635.3298,139.07336,11.01385
916.0965,14.563312,-214.69826
882.24023,182.93845,-178.69455
809.0251,279.93335,-142.18591
175.45497,1989.3712,421.2883
-582.36914,3822.7527,892.0828
-1422.6781,4349.757,777.0816
-1834.0713,3294.3496,619.2727
-1708.7231,1433.51,279.91608
-1555.3245,597.18353,213.75807
-1304.1512,-532.6898,-54.57669
-1151.9366,-1291.964,-306.29803
-949.59094,-1241.715,-165.65706
-1048.756,-962.91547,175.34734
-1135.3878,-717.5313,-3.572204
-1297.3212,-200.5775,153.16605
-2116.751,1662.8068,930.4603
-2260.9604,3338.3496,1671.2571
-1478.3812,3620.257,1538.2191
-423.93692,1829.418,992.44525
-114.34789,892.048,521.8194
214.06865,454.62436,272.00092
412.31927,287.37567,166.24675
793.7695,-46.019405,70.33173
873.3697,33.792706,32.50359
789.83374,197.17523,1.6598837
618.71216,472.6697,72.16954
29.738821,2168.4343,514.3371
-1010.46326,3854.5435,597.24457
-1844.8431,3670.0505,1066.7115
-1702.7428,2538.885,881.95984
-1383.0508,1315.8491,628.94446
-1045.2578,225.65065,364.60526
-799.68915,-618.0,89.16399
-739.1731,-1442.6505,-345.12704
-819.3471,-1556.1154,-191.71999
-863.49567,-1047.9266,73.31511
-1047.8687,-752.1807,-85.85345
-1520.5049,89.189766,112.21921
-2686.9905,1855.5005,1190.2317
-2393.443,2435.158,1589.1697
-1541.2024,2171.7678,1361.4148
-1006.77405,1457.7585,1011.4189
-506.16788,1068.2852,756.0797
-257.01263,815.7332,507.51285
200.38576,560.44824,312.05652
489.8124,382.53717,198.91124
830.4219,599.30994,204.57988
790.53827,490.26096,281.22864
712.5151,401.04727,199.3175
201.72113,791.4506,418.06128
-499.47144,2224.009,1232.222
-2087.7861,3571.0205,1674.2004
-2629.368,2664.7031,1274.4323
-1871.4219,1318.9006,747.25714
-1386.0535,698.7923,364.53143
-957.56934,-160.27206,-65.74128
-754.2032,-1025.6399,-366.1166
-622.8925,-1462.8444,-376.64987
-755.61664,-1203.7303,-100.46832
-1016.78595,-907.32214,-255.81828
-1344.2766,-121.23623,44.819626
-2040.2218,1512.4644,721.7256
-2501.925,3417.4956,1184.7496
-1560.3801,3253.589,1441.0842
-519.8682,1575.857,992.02527
140.91869,838.0482,499.45926
491.1928,560.22437,302.982
824.4196,352.8094,192.16048
869.0709,260.16174,207.41026
795.03094,285.9504,110.62671
543.99286,569.0623,204.517
396.37103,852.6588,302.53973
75.01648,1509.4093,490.02658
-736.51434,2896.3374,1181.1244
-1686.2041,3468.4722,1564.274
-1876.6289,2653.628,1333.2958
-1419.9115,1225.7201,725.63086
-1084.8942,393.08054,251.62401
-967.8113,-382.15253,-92.681946
-802.75696,-796.9869,-316.28546
-687.07526,-1067.0964,-472.61176
-723.0911,-848.10785,-250.886
-886.30225,-604.3392,-190.01393
-996.3131,336.92374,421.17245
-1417.6249,1605.2096,1260.6578
-1352.1123,2297.6345,1521.9088
-1012.3234,2579.7969,1744.2418
-573.5545,1767.6658,1482.491
-145.90569,804.1034,914.5104
189.6019,408.17725,458.21283
532.0483,290.47083,465.26752
758.9354,39.69032,274.48944
824.7914,25.19776,5.43408
549.64355,79.34866,137.29834
331.67355,362.12503,403.91602
-89.292366,1649.4253,1022.1246
-994.2263,3165.669,1608.7292
-1503.142,2591.3293,1502.5593
-1465.2706,1862.6836,1041.4066
-1287.1329,1142.9957,611.5869
-1030.81,472.23306,262.7589
-728.54675,-480.57437,-217.066
-487.03394,-941.84265,-496.54156
-429.72415,-999.6246,-400.19168
-719.89825,-685.0231,-188.07751
-857.50543,-580.5828,-439.82318
-1281.503,260.10052,116.482056
-1666.0773,608.57623,417.18912
-2541.685,2018.2178,1181.289
-2442.7761,1842.2656,175.24792
-1308.8435,2304.0195,38.133816
-397.40048,1490.1465,477.1527
150.74924,669.8123,71.929634
593.65607,561.5546,129.40056
1056.5149,239.30652,75.07524
922.97125,435.04962,141.04572
735.08057,370.938,24.22172
268.15564,873.3549,55.035847
-595.25116,2119.6655,310.15656
-1920.103,3477.1965,743.7565
-2825.485,3653.264,920.1509
-2530.7078,2266.5645,670.79083
-1820.8884,637.75745,345.12128
-1130.6724,-447.3117,-90.25508
-679.1857,-1170.9218,-382.74817
-497.50323,-1445.8943,-476.3148
-567.771,-1152.5369,-190.61191
-914.38934,-808.3789,-130.9307
-1103.8575,-402.81277,-111.43963
-1804.7922,684.79193,424.6038
-2090.358,1575.3628,919.8678
-1922.5574,2584.6309,1181.4595
-1322.8982,2127.157,1151.907
-660.4354,1243.8322,885.55615
-314.37103,768.8764,639.05756
133.82506,431.58975,376.25226
573.74945,316.03906,241.04163
1020.2661,259.53726,222.93596
1001.4268,319.4443,133.77374
775.3899,336.09833,154.727
434.26352,697.6737,128.47623
-565.20416,2495.9155,822.70685
-2349.231,4114.88,1310.7969
-2808.4714,3317.838,1155.486
-2168.4978,1854.9337,752.2479
-1595.5889,671.09467,308.31842
-1036.0948,-191.2919,-47.65409
-758.90424,-698.9692,-297.43335
-505.78967,-1059.1862,-402.82602
-539.718,-1078.4531,-289.66794
-669.68884,-758.5741,-135.85434
-948.39703,-549.5248,-150.47836
-1173.7131,-165.248,-62.64122
-2457.2764,943.828,831.5567
-2815.6267,3037.1907,1528.9291
-1496.2775,3130.117,1475.2487
-493.12833,1551.6211,1104.9366
-82.86867,1211.0049,647.5219
276.99142,781.961,385.92346
519.8762,452.83072,176.1385
593.38214,395.3955,107.47046
927.1257,407.01303,-73.05848
996.12976,663.5119,43.493927
943.5957,372.96262,-2.4911401
743.77014,570.85223,124.852486
-13.313675,2556.685,586.7338
-1438.8976,4672.4834,1019.61633
-2089.4946,3673.5183,1049.4935
-1663.8547,1867.9595,563.6342
-1239.4333,769.76245,171.46101
-982.57367,-270.98752,-66.53088
-784.83264,-961.7423,-329.981
-659.9874,-1196.1605,-278.35092
-714.94745,-1104.6569,-151.9209
-893.6419,-668.2434,-93.970184
-1135.3931,-434.58118,-66.18688
-2206.5789,1185.9983,570.76135
-2804.6,3380.7637,927.8341
-1411.9679,3476.9336,601.84656
-433.18698,2415.2144,650.2506
-12.113414,1202.5925,478.9438
295.14133,496.13165,345.35852
470.43146,111.287445,132.29898
525.58923,182.17467,304.30075
804.75476,158.76094,276.01187
973.5865,115.55317,162.43001
876.0487,149.80396,69.17865
338.58722,1174.8893,282.87122
-433.34915,3210.256,559.92456
-1562.5668,3968.285,755.9826
-1974.8822,2954.149,495.38153
-1649.2341,1950.8568,225.79062
-1218.7375,921.71387,105.58462
-1095.655,289.1043,-35.59871
-885.57837,-593.3377,-246.97755
-814.7331,-1112.9556,-331.26254
-785.7852,-1077.5605,-190.15158
-928.26196,-698.41315,-68.63149
-926.78046,-587.2554,-86.97263
-1632.7141,1220.0133,589.5342
-2156.6013,2740.8926,1322.0938
-1388.4858,3049.4253,1211.9412
-595.25476,2058.496,920.3246
-75.32105,1314.8469,635.8995
163.31532,839.9965,457.7456
555.5856,416.09152,194.52632
1080.1954,-154.40158,-45.6869
1205.6573,-2.5281293,-111.42787
961.56903,152.8797,47.126965
589.5331,453.04443,138.3803
-206.03989,2197.5554,510.43323
-1127.029,4050.821,890.64154
-1748.4934,3824.1116,1155.7229
-2038.8903,2702.222,833.3759
-1560.7039,1180.9331,429.8353
-1244.1343,216.92526,-5.142484
-1038.326,-792.8363,-284.37247
-758.7671,-1109.5083,-306.54822
-491.5505,-1212.5963,-172.8546
-654.2928,-806.904,72.58089
-787.8846,-623.14624,68.63034
-1098.8403,-113.53683,121.74027
-2262.4634,1528.7319,839.1168
-2525.1035,3476.6616,1459.8799
-1500.1653,2851.189,1217.3507
-585.4125,1310.6664,771.904
-204.15877,899.49255,534.1487
144.95554,613.3644,494.7494
580.4055,224.82822,244.6055
1082.3461,-75.27112,66.8741
1097.1083,157.52617,109.02954
879.57306,303.80423,188.94484
438.74658,871.26776,304.86472
-659.5192,3113.976,944.13434
-1889.2002,3752.166,1227.334
-2188.789,2703.4756,1176.2837
-2031.6343,1927.608,772.71014
-1492.0201,814.0738,374.54733
-952.2255,117.61901,-27.966034
-710.12274,-853.5999,-442.39172
-599.31366,-1351.2717,-545.86163
-659.0913,-1274.628,-309.7331
-913.3398,-1010.09375,-126.47251
-1257.8826,-414.81332,-90.602585
-2217.1528,569.41864,241.0655
-2855.0,2529.2236,1096.4612
-2072.4834,3312.0957,1541.7358
-901.9997,1752.4471,984.5289
-390.2202,1247.7831,864.40686
-157.36269,888.65204,709.03296
218.00377,590.03845,436.48392
666.5465,166.12535,260.64447
1261.8341,234.96906,319.8385
1066.366,518.81696,556.1438
568.4406,658.3888,551.65424
-352.10196,1802.3707,809.5109
-1132.199,2866.4927,1152.4048
-2163.3083,3004.5215,1298.4286
-2044.1458,2327.2854,883.14386
-1528.3174,1424.2028,424.2342
-1022.9109,634.4768,197.00468
-741.54974,102.939384,-125.98642
-589.58325,-164.34575,-34.871708
-757.1015,-555.4244,-76.44496
-956.0773,-718.9842,-236.74597
-1077.4026,-838.0247,-382.12262
-952.0429,-471.87244,-180.81142
-995.279,672.675,535.93945
-1065.1766,1857.3837,1348.2288
-930.19574,2724.7598,1909.9303
-507.803,2141.9001,1766.7031
-31.816687,1023.47906,1228.4567
256.2788,488.31018,677.8312
445.24033,205.76804,356.60477
710.0125,13.121579,202.62949
869.3804,13.060105,110.92159
772.4535,189.21382,180.42284
452.55948,450.56155,364.13232
12.547574,1588.9926,1053.423
-1270.2731,3933.5688,1329.268
-2354.0525,3496.3171,1296.7931
-1495.0023,1714.001,834.554
-1053.052,1134.8218,577.7659
-916.0309,202.47504,229.02663
-854.7799,-274.71658,-80.9559
-780.60504,-1033.5398,-479.42987
-770.98175,-1105.7178,-526.7785
-804.19653,-1021.32745,-264.10843
-780.3543,-470.3301,-38.401184
-1521.538,969.5355,590.85706
-2013.8372,2640.4268,1442.7767
-1369.2244,3068.239,1586.303
-506.15955,1744.204,1166.1985
-14.94776,863.3292,817.6479
248.46718,577.03784,661.8684
503.71292,189.68484,449.49127
774.5338,-34.78933,156.17204
877.48566,-134.6751,30.854948
808.618,122.66655,-11.23089
617.17664,337.5925,148.9092
23.140764,2591.5857,956.15247
-709.2177,3822.8274,1351.0275
-1332.5912,2894.7776,1389.3527
-1425.2067,1983.0083,1101.33
-1218.3834,824.64056,686.57513
-873.9665,-85.965416,158.7336
-714.7719,-967.98065,-402.06537
-683.6229,-1361.3583,-470.8988
-865.0872,-1278.4191,-141.56331
-1165.303,-1020.3085,-102.35811
-1523.6746,-359.92792,-70.51081
-2318.509,1050.0822,727.0432
-2310.503,2402.7593,1247.3539
-1724.3834,2724.736,1485.9965
-864.7199,1450.9092,921.8182
-240.85405,1000.97455,664.90674
108.36949,888.60925,523.01135
554.1942,656.367,324.42688
915.7618,563.90686,331.17166
1093.7488,526.67053,340.94226
817.1187,567.6931,283.83054
481.3384,783.51483,208.01662
-86.94294,1548.582,456.63217
-1307.7836,3738.6218,1158.6558
-2879.391,3951.8699,1112.0084
-2644.5674,2556.2756,882.99097
-2058.6567,1344.6565,533.7711
-1608.5547,437.06213,211.44302
-1317.3904,-430.56342,-236.74222
-1022.8871,-1289.0863,-648.77295
-861.2835,-1639.87,-781.7226
-1008.71735,-1267.492,-308.82843
-1106.7717,-802.58624,-395.503
-1300.4741,177.82147,323.38306
-2114.5308,2073.4248,1629.9452
-2048.6182,3373.7766,2190.414
-1073.7495,2421.6128,1753.1141
-154.96803,1225.284,944.2356
13.33443,999.68744,725.82007
291.87537,573.02344,340.87463
482.10306,259.5237,311.37927
893.5792,9.177485,349.38324
901.0958,19.86769,360.00354
833.7612,-29.808224,281.069
534.8555,167.88269,37.028
68.601616,1757.9435,452.43192
-2298.1716,4509.5664,1643.9857
-2835.1667,3663.9644,1123.4788
-1843.1305,1598.9313,604.3267
-1332.5742,688.13214,389.19113
-905.7315,28.5081,92.09444
-759.87714,-539.73615,-87.862366
-563.59863,-1162.402,-426.76352
-650.1308,-1128.2942,-396.21378
-925.398,-921.4341,-234.78246
-1120.3398,-603.8106,-313.1578
-1678.8558,313.0388,62.097084
-2340.6138,2323.3513,1147.4305
-1695.4061,3488.7048,1496.265
-813.0454,2508.1863,1145.5211
-93.22678,1352.8401,843.40424
91.21682,833.6315,629.4013
420.89868,390.6078,365.12677
611.9606,116.87901,133.47849
907.0918,9.228283,46.110413
785.88226,120.17771,139.39064
783.60486,13.809593,28.614567
385.09625,770.4571,283.35797
-547.44714,3275.9783,1055.1561
-2001.7944,4256.549,1277.6523
-2151.2227,2611.489,1153.337
-1667.7821,1514.0797,732.1215
-1233.2188,484.38034,382.29565
-952.90784,-13.700458,91.916374
-698.7918,-960.19214,-235.16795
-578.5498,-1314.492,-543.82947
-627.00165,-1066.6556,-225.27118
-864.3389,-715.86816,70.76445
-970.6334,-407.7028,-18.613926
-2001.6328,1215.1708,542.2927
-2261.1826,2942.4102,1356.7921
-1303.0924,3241.2083,1306.8973
-500.62045,1766.8379,923.0974
-172.64,1142.2795,664.3349
107.76075,718.3775,476.121
