#Format version: 1.0
time[ms],accX[mg],accY[mg],accZ[mg],gyroX[mdps],gyroY[mdps],gyroZ[mdps],magnX[mG],magnY[mG],magnZ[mG],press[hPa],temp[°C],hum[0,-965,-109,240,2170,-210,2520,,,,,,,0x03,
10,-966,-106,241,2100,-140,2590,,,,,,,0x03,
19,-969,-98,238,2100,-210,2590,,,,,,,0x03,
29,-968,-94,238,1470,-140,2800,,,,,,,0x03,
39,-967,-98,242,280,-140,3010,,,,,,,0x03,
48,-966,-98,240,-350,-210,2940,,,,,,,0x03,
58,-970,-96,238,-210,-140,2870,,,,,,,0x03,
68,-968,-98,237,-350,-70,2940,,,,,,,0x03,
77,-965,-101,240,-560,-70,3010,,,,,,,0x03,
87,-968,-99,236,-280,-70,3010,,,,,,,0x03,
96,-972,-94,233,560,0,3010,,,,,,,0x03,
106,-975,-88,234,910,-70,3010,,,,,,,0x03,
116,-971,-84,238,630,-140,2800,,,,,,,0x03,
125,-970,-81,238,-210,-280,2590,,,,,,,0x03,
135,-973,-84,235,-980,-280,2240,,,,,,,0x03,
145,-971,-86,237,-1190,-280,1890,,,,,,,0x03,
154,-968,-89,240,-1120,-280,1750,,,,,,,0x03,
164,-968,-91,237,-1050,-140,1540,,,,,,,0x03,
174,-968,-98,237,-700,0,1330,,,,,,,0x03,
183,-972,-102,231,0,70,1190,,,,,,,0x03,
193,-975,-99,230,1260,140,910,,,,,,,0x03,
203,-970,-96,236,2170,140,910,,,,,,,0x03,
212,-972,-93,238,2730,140,630,,,,,,,0x03,
222,-968,-90,239,2590,210,630,,,,,,,0x03,
232,-970,-90,236,1890,140,980,,,,,,,0x03,
241,-972,-91,233,1470,140,1120,,,,,,,0x03,
251,-967,-97,236,700,210,1400,,,,,,,0x03,
260,-968,-100,237,210,210,1540,,,,,,,0x03,
270,-968,-97,237,280,140,1610,,,,,,,0x03,
280,-968,-96,235,70,140,1820,,,,,,,0x03,
289,-969,-94,237,-350,70,2100,,,,,,,0x03,
299,-970,-94,236,-840,70,2310,,,,,,,0x03,
309,-972,-95,233,-1120,140,2450,,,,,,,0x03,
318,-973,-98,232,-1330,70,2660,,,,,,,0x03,
328,-971,-94,231,-980,0,2590,,,,,,,0x03,
338,-974,-84,230,-490,-70,2590,,,,,,,0x03,
347,-972,-79,234,-560,-70,2730,,,,,,,0x03,
357,-972,-78,232,-1190,-140,2660,,,,,,,0x03,
367,-972,-81,236,-1540,-280,2520,,,,,,,0x03,
376,-970,-83,232,-1540,-350,2240,,,,,,,0x03,
386,-973,-81,231,-1050,-420,2030,,,,,,,0x03,
396,-975,-83,230,-700,-560,1820,,,,,,,0x03,
405,-973,-80,226,-350,-630,1470,,,,,,,0x03,
415,-975,-81,228,-70,-770,1260,,,,,,,0x03,
425,-976,-80,232,420,-980,910,,,,,,,0x03,
434,-972,-79,233,630,-1120,700,,,,,,,0x03,
444,-970,-80,232,560,-1190,560,,,,,,,0x03,
453,-972,-83,234,560,-1190,280,,,,,,,0x03,
463,-976,-84,232,700,-1190,140,,,,,,,0x03,
473,-973,-83,233,980,-1120,0,,,,,,,0x03,
482,-967,-86,235,1050,-980,-70,,,,,,,0x03,
492,-967,-89,236,840,-910,-140,,,,,,,0x03,
502,-972,-91,239,910,-910,-70,,,,,,,0x03,
511,-969,-93,238,1050,-770,70,,,,,,,0x03,
521,-966,-91,236,1190,-630,70,,,,,,,0x03,
531,-969,-86,239,1470,-560,210,,,,,,,0x03,
540,-971,-82,241,1190,-490,350,,,,,,,0x03,
550,-971,-81,236,350,-350,490,,,,,,,0x03,
560,-970,-81,236,-210,-210,490,,,,,,,0x03,
569,-971,-80,236,-840,-210,560,,,,,,,0x03,
579,-974,-80,235,-1470,-210,770,,,,,,,0x03,
589,-978,-85,234,-1960,-280,770,,,,,,,0x03,
598,-976,-89,232,-1960,-350,700,,,,,,,0x03,
608,-974,-86,228,-1330,-490,630,,,,,,,0x03,
617,-969,-78,230,-770,-630,560,,,,,,,0x03,
627,-970,-78,232,-1050,-770,630,,,,,,,0x03,
637,-972,-82,230,-1470,-840,560,,,,,,,0x03,
646,-966,-91,230,-1470,-840,420,,,,,,,0x03,
656,-967,-91,231,-490,-910,140,,,,,,,0x03,
666,-975,-86,233,980,-980,70,,,,,,,0x03,
675,-973,-84,233,1680,-910,140,,,,,,,0x03,
685,-967,-91,233,1540,-840,210,,,,,,,0x03,
695,-971,-94,231,2100,-840,280,,,,,,,0x03,
704,-972,-95,232,2870,-770,350,,,,,,,0x03,
714,-972,-90,233,3430,-700,420,,,,,,,0x03,
724,-973,-84,238,3570,-700,490,,,,,,,0x03,
733,-967,-77,241,2800,-560,490,,,,,,,0x03,
743,-969,-76,242,1400,-420,560,,,,,,,0x03,
753,-974,-81,239,-210,-280,840,,,,,,,0x03,
762,-974,-86,232,-1540,-140,840,,,,,,,0x03,
772,-973,-90,231,-1820,-210,840,,,,,,,0x03,
781,-974,-89,229,-1470,-210,840,,,,,,,0x03,
791,-972,-83,231,-1190,-280,980,,,,,,,0x03,
801,-971,-78,234,-1120,-350,1120,,,,,,,0x03,
810,-973,-76,233,-1190,-420,1120,,,,,,,0x03,
820,-970,-80,234,-1470,-490,1190,,,,,,,0x03,
830,-969,-82,233,-1680,-420,1190,,,,,,,0x03,
839,-971,-84,232,-1330,-420,1190,,,,,,,0x03,
849,-970,-87,233,-840,-350,1050,,,,,,,0x03,
859,-969,-84,232,-70,-420,840,,,,,,,0x03,
868,-972,-80,231,840,-420,840,,,,,,,0x03,
878,-973,-78,231,1050,-490,700,,,,,,,0x03,
888,-971,-75,231,910,-630,560,,,,,,,0x03,
897,-977,-75,232,840,-770,420,,,,,,,0x03,
907,-980,-72,231,630,-910,140,,,,,,,0x03,
917,-974,-65,229,140,-980,-70,,,,,,,0x03,
926,-972,-64,235,-350,-1120,-350,,,,,,,0x03,
936,-977,-65,233,-1190,-1260,-630,,,,,,,0x03,
945,-975,-74,232,-2030,-1260,-770,,,,,,,0x03,
955,-971,-83,230,-2240,-1190,-1190,,,,,,,0x03,
965,-972,-85,231,-1190,-1190,-1610,,,,,,,0x03,
974,-972,-85,232,70,-1190,-1960,,,,,,,0x03,
984,-972,-81,233,1050,-1190,-2170,,,,,,,0x03,
994,-970,-82,235,1680,-1190,-2170,,,,,,,0x03,
1003,-969,-84,232,2030,-980,-2310,,,,,,,0x03,
1013,-972,-89,231,2660,-910,-2310,,,,,,,0x03,
1023,-969,-93,234,3150,-980,-2100,,,,,,,0x03,
1032,-970,-90,234,3640,-980,-1960,,,,,,,0x03,
1042,-972,-89,235,3850,-980,-1610,,,,,,,0x03,
1052,-973,-91,236,3290,-980,-1260,,,,,,,0x03,
1061,-970,-94,238,2450,-980,-770,,,,,,,0x03,
1071,-964,-95,238,1680,-840,-140,,,,,,,0x03,
1081,-964,-100,238,1050,-700,350,,,,,,,0x03,
1090,-966,-100,238,910,-490,840,,,,,,,0x03,
1100,-968,-96,239,910,-350,1260,,,,,,,0x03,
1109,-970,-87,240,420,-210,1540,,,,,,,0x03,
1119,-969,-81,239,-700,-210,2030,,,,,,,0x03,
1129,-970,-81,236,-1890,-140,2380,,,,,,,0x03,
1138,-974,-80,232,-2590,-140,2450,,,,,,,0x03,
1148,-976,-72,231,-2940,-210,2310,,,,,,,0x03,
1158,-958,-96,227,-3150,-140,2520,,,,,,,0x03,
1167,-983,-71,243,-2380,-770,2940,,,,,,,0x03,
1177,-988,-22,230,-3010,-630,-700,,,,,,,0x03,
1187,-972,-58,233,-6440,-560,630,,,,,,,0x03,
1196,-964,-104,224,-7280,-490,1820,,,,,,,0x03,
1206,-966,-109,219,-2450,-630,910,,,,,,,0x03,
1216,-971,-83,231,2800,-1050,0,,,,,,,0x03,
1225,-977,-66,236,4060,-1120,-490,,,,,,,0x03,
1235,-972,-69,235,2940,-1050,-630,,,,,,,0x03,
1245,-973,-71,233,2240,-980,-840,,,,,,,0x03,
1254,-973,-72,233,2030,-840,-910,,,,,,,0x03,
1264,-972,-78,235,1750,-770,-840,,,,,,,0x03,
1274,-973,-80,232,1890,-770,-1120,,,,,,,0x03,
1283,-971,-83,230,2310,-700,-1120,,,,,,,0x03,
1293,-970,-86,236,2450,-840,-910,,,,,,,0x03,
1302,-969,-87,237,2030,-840,-840,,,,,,,0x03,
1312,-959,-89,240,1890,-840,-770,,,,,,,0x03,
1322,-977,-88,236,1050,-350,490,,,,,,,0x03,
1331,-984,-79,233,-420,-630,490,,,,,,,0x03,
1341,-967,-75,235,-1750,-700,-140,,,,,,,0x03,
1351,-967,-90,236,-3010,-700,350,,,,,,,0x03,
1360,-970,-94,232,-2660,-630,630,,,,,,,0x03,
1370,-972,-82,232,-1400,-700,560,,,,,,,0x03,
1380,-970,-70,234,-1330,-910,350,,,,,,,0x03,
1389,-973,-68,234,-2100,-1050,560,,,,,,,0x03,
1399,-973,-76,233,-2870,-1050,700,,,,,,,0x03,
1409,-974,-81,230,-2940,-1120,420,,,,,,,0x03,
1418,-977,-78,228,-2240,-1260,0,,,,,,,0x03,
1428,-973,-71,230,-1680,-1400,-420,,,,,,,0x03,
1438,-975,-70,233,-1330,-1540,-700,,,,,,,0x03,
1447,-977,-68,229,-1050,-1680,-1050,,,,,,,0x03,
1457,-973,-73,228,-770,-1750,-1400,,,,,,,0x03,
1466,-975,-80,231,-70,-1890,-1750,,,,,,,0x03,
1476,-975,-78,233,1260,-2030,-2310,,,,,,,0x03,
1486,-973,-71,233,2170,-2100,-2870,,,,,,,0x03,
1495,-973,-67,235,2240,-2170,-3290,,,,,,,0x03,
1505,-971,-73,237,1540,-2240,-3500,,,,,,,0x03,
1515,-973,-82,233,980,-2240,-3710,,,,,,,0x03,
1524,-969,-86,234,1330,-2310,-4060,,,,,,,0x03,
1534,-971,-86,236,1890,-2240,-4060,,,,,,,0x03,
1544,-974,-80,236,1960,-2170,-4130,,,,,,,0x03,
1553,-969,-81,237,1540,-2240,-4060,,,,,,,0x03,
1563,-968,-85,238,980,-2240,-3850,,,,,,,0x03,
1573,-971,-91,238,350,-2170,-3500,,,,,,,0x03,
1582,-969,-95,240,70,-2170,-3360,,,,,,,0x03,
1592,-966,-97,240,0,-2100,-3220,,,,,,,0x03,
1602,-963,-99,240,140,-2100,-3080,,,,,,,0x03,
1611,-965,-98,244,490,-2030,-2800,,,,,,,0x03,
1621,-968,-93,241,350,-1750,-2660,,,,,,,0x03,
1630,-967,-87,239,-140,-1750,-2590,,,,,,,0x03,
1640,-972,-89,240,-980,-1750,-2520,,,,,,,0x03,
1650,-971,-89,237,-1610,-1750,-2660,,,,,,,0x03,
1659,-966,-91,239,-1750,-1820,-2800,,,,,,,0x03,
1669,-972,-92,240,-1470,-1820,-2800,,,,,,,0x03,
1679,-974,-91,237,-1050,-1820,-2940,,,,,,,0x03,
1688,-970,-92,238,-840,-1890,-3010,,,,,,,0x03,
1698,-973,-92,236,-490,-1960,-3150,,,,,,,0x03,
1708,-973,-90,237,-280,-2030,-3290,,,,,,,0x03,
1717,-968,-89,238,-350,-2100,-3500,,,,,,,0x03,
1727,-969,-91,240,-70,-2240,-3570,,,,,,,0x03,
1737,-970,-92,240,140,-2310,-3710,,,,,,,0x03,
1746,-964,-100,240,210,-2170,-3780,,,,,,,0x03,
1756,-961,-113,241,350,-2170,-3570,,,,,,,0x03,
1766,-965,-125,240,1610,-2100,-3290,,,,,,,0x03,
1775,-966,-126,241,3850,-1890,-3290,,,,,,,0x03,
1785,-965,-119,243,6090,-1680,-3360,,,,,,,0x03,
1794,-964,-105,244,7420,-1540,-3220,,,,,,,0x03,
1804,-966,-102,246,7280,-1330,-2660,,,,,,,0x03,
1814,-964,-107,246,6230,-1260,-2170,,,,,,,0x03,
1823,-963,-112,245,5600,-1190,-1820,,,,,,,0x03,
1833,-964,-114,245,5810,-1050,-1680,,,,,,,0x03,
1843,-967,-104,245,6020,-1050,-1610,,,,,,,0x03,
1852,-967,-95,246,5740,-1050,-1190,,,,,,,0x03,
1862,-967,-90,247,4340,-980,-910,,,,,,,0x03,
1872,-968,-92,247,2310,-910,-630,,,,,,,0x03,
1881,-967,-93,247,700,-840,-420,,,,,,,0x03,
1891,-967,-94,248,-560,-910,-210,,,,,,,0x03,
1901,-967,-95,245,-1540,-770,-140,,,,,,,0x03,
1910,-968,-100,244,-2450,-770,0,,,,,,,0x03,
1920,-968,-106,240,-2870,-770,70,,,,,,,0x03,
1930,-970,-109,241,-2520,-770,0,,,,,,,0x03,
1939,-965,-110,243,-1470,-910,70,,,,,,,0x03,
1949,-965,-104,245,-140,-840,140,,,,,,,0x03,
1959,-971,-101,245,840,-770,140,,,,,,,0x03,
1968,-964,-101,242,910,-700,280,,,,,,,0x03,
1978,-966,-103,240,1050,-840,280,,,,,,,0x03,
1987,-972,-109,240,1190,-840,420,,,,,,,0x03,
1997,-971,-103,241,1400,-840,420,,,,,,,0x03,
2007,-970,-89,244,1960,-980,490,,,,,,,0x03,
2016,-972,-82,248,1400,-1120,700,,,,,,,0x03,
2026,-965,-87,246,-770,-1050,910,,,,,,,0x03,
2036,-963,-106,241,-2520,-910,910,,,,,,,0x03,
2045,-963,-119,242,-2450,-980,910,,,,,,,0x03,
2055,-967,-117,243,-350,-1050,1050,,,,,,,0x03,
2065,-965,-103,246,1820,-1050,1050,,,,,,,0x03,
2074,-965,-99,249,1960,-1050,1260,,,,,,,0x03,
2084,-966,-102,247,770,-840,1260,,,,,,,0x03,
2094,-965,-106,247,490,-770,1190,,,,,,,0x03,
2103,-966,-99,244,980,-630,1330,,,,,,,0x03,
2113,-968,-94,244,1400,-420,1540,,,,,,,0x03,
2123,-968,-98,247,840,-350,1750,,,,,,,0x03,
2132,-967,-101,247,420,-280,1820,,,,,,,0x03,
2142,-964,-100,247,350,-210,1960,,,,,,,0x03,
2151,-966,-102,249,-140,-140,2380,,,,,,,0x03,
2161,-964,-105,246,-560,70,2730,,,,,,,0x03,
2171,-963,-108,245,-420,210,2940,,,,,,,0x03,
2180,-964,-109,246,280,350,3010,,,,,,,0x03,
2190,-965,-103,246,1120,490,3220,,,,,,,0x03,
2200,-965,-97,246,1190,700,3430,,,,,,,0x03,
2209,-966,-100,246,630,840,3710,,,,,,,0x03,
2219,-969,-97,243,350,910,3850,,,,,,,0x03,
2229,-971,-90,239,560,980,4060,,,,,,,0x03,
2238,-970,-88,239,280,910,4200,,,,,,,0x03,
2248,-970,-88,240,-420,910,4200,,,,,,,0x03,
2258,-971,-87,239,-840,840,4130,,,,,,,0x03,
2267,-968,-89,240,-1050,770,4130,,,,,,,0x03,
2277,-969,-87,238,-840,630,4060,,,,,,,0x03,
2287,-972,-85,239,-630,490,4060,,,,,,,0x03,
2296,-970,-86,238,-840,420,3990,,,,,,,0x03,
2306,-971,-84,235,-700,420,3710,,,,,,,0x03,
2315,-971,-85,235,-420,350,3500,,,,,,,0x03,
2325,-973,-80,235,70,280,3290,,,,,,,0x03,
2335,-976,-70,237,910,70,3150,,,,,,,0x03,
2344,-971,-69,242,840,-70,3080,,,,,,,0x03,
2354,-965,-73,242,-70,-140,3080,,,,,,,0x03,
2364,-968,-85,242,-630,-210,3080,,,,,,,0x03,
2373,-969,-89,239,0,-140,2730,,,,,,,0x03,
2383,-968,-87,239,980,-70,2520,,,,,,,0x03,
2393,-968,-85,240,1610,0,2520,,,,,,,0x03,
2402,-971,-87,239,1750,140,2450,,,,,,,0x03,
2412,-971,-88,240,2100,420,2310,,,,,,,0x03,
2422,-972,-81,240,2940,560,2170,,,,,,,0x03,
2431,-973,-75,241,3360,700,2100,,,,,,,0x03,
2441,-971,-71,239,2870,770,2100,,,,,,,0x03,
2451,-970,-71,239,2030,770,2170,,,,,,,0x03,
2460,-971,-71,238,1120,770,2100,,,,,,,0x03,
2470,-971,-66,237,350,700,2030,,,,,,,0x03,
2479,-974,-67,239,-700,700,1960,,,,,,,0x03,
2489,-976,-66,237,-1680,700,1820,,,,,,,0x03,
2499,-976,-60,235,-2030,630,1470,,,,,,,0x03,
2508,-975,-52,236,-2170,420,980,,,,,,,0x03,
2518,-976,-42,237,-2800,140,700,,,,,,,0x03,
2528,-972,-41,239,-4340,0,490,,,,,,,0x03,
2537,-971,-45,237,-6020,-210,-70,,,,,,,0x03,
2547,-974,-56,235,-6860,-350,-490,,,,,,,0x03,
2557,-976,-62,229,-6510,-420,-1260,,,,,,,0x03,
2566,-976,-66,227,-5180,-490,-1890,,,,,,,0x03,
2576,-978,-64,230,-3360,-700,-2660,,,,,,,0x03,
2586,-978,-56,231,-1890,-910,-3360,,,,,,,0x03,
2595,-972,-57,235,-1610,-1120,-3920,,,,,,,0x03,
2605,-973,-59,230,-1750,-1330,-4550,,,,,,,0x03,
2615,-979,-68,225,-1470,-1610,-5040,,,,,,,0x03,
2624,-981,-73,223,-840,-1890,-5670,,,,,,,0x03,
2634,-981,-68,227,140,-2310,-6300,,,,,,,0x03,
2643,-975,-58,235,560,-2590,-6720,,,,,,,0x03,
2653,-968,-57,243,-490,-2800,-6930,,,,,,,0x03,
2663,-964,-69,241,-2590,-2870,-7140,,,,,,,0x03,
2672,-963,-83,240,-3920,-3010,-7490,,,,,,,0x03,
2682,-969,-88,238,-3360,-3220,-7980,,,,,,,0x03,
2692,-975,-85,235,-2240,-3360,-8330,,,,,,,0x03,
2701,-973,-83,236,-2030,-3360,-8400,,,,,,,0x03,
2711,-971,-87,240,-2450,-3430,-8330,,,,,,,0x03,
2721,-969,-96,244,-2800,-3430,-8050,,,,,,,0x03,
2730,-966,-108,242,-2870,-3150,-7770,,,,,,,0x03,
2740,-965,-117,237,-1890,-3080,-7630,,,,,,,0x03,
2750,-964,-124,239,-490,-2870,-7420,,,,,,,0x03,
2759,-964,-123,245,840,-2590,-7070,,,,,,,0x03,
2769,-963,-120,249,1890,-2520,-6720,,,,,,,0x03,
2779,-963,-110,243,2100,-2380,-6440,,,,,,,0x03,
2788,-969,-110,241,1260,-2450,-5880,,,,,,,0x03,
2798,-966,-114,242,-140,-2590,-5670,,,,,,,0x03,
2808,-965,-110,245,-770,-2660,-5670,,,,,,,0x03,
2817,-968,-99,247,-1540,-2800,-5390,,,,,,,0x03,
2827,-969,-89,244,-2940,-2800,-5250,,,,,,,0x03,
2836,-968,-89,248,-5040,-2800,-5180,,,,,,,0x03,
2846,-966,-93,246,-7140,-2870,-5320,,,,,,,0x03,
2856,-966,-96,242,-8050,-2870,-5670,,,,,,,0x03,
2865,-968,-107,239,-8260,-2870,-5810,,,,,,,0x03,
2875,-966,-118,238,-7630,-2870,-6020,,,,,,,0x03,
2885,-965,-125,237,-5600,-2870,-6440,,,,,,,0x03,
2894,-965,-128,242,-2870,-2940,-6860,,,,,,,0x03,
2904,-963,-127,244,-210,-2940,-7070,,,,,,,0x03,
2914,-964,-131,244,1680,-2870,-7000,,,,,,,0x03,
2923,-964,-133,243,3570,-2870,-7000,,,,,,,0x03,
2933,-963,-136,245,5250,-2870,-6860,,,,,,,0x03,
2943,-960,-139,246,5950,-2800,-6510,,,,,,,0x03,
2952,-961,-132,248,6720,-2800,-6370,,,,,,,0x03,
2962,-967,-125,252,6790,-2870,-6090,,,,,,,0x03,
2972,-962,-118,255,5180,-2800,-5600,,,,,,,0x03,
2981,-960,-122,256,2730,-2590,-4830,,,,,,,0x03,
2991,-958,-134,257,210,-2310,-4270,,,,,,,0x03,
3000,-958,-142,258,-1400,-2030,-3780,,,,,,,0x03,
3010,-957,-139,254,-1820,-1820,-3430,,,,,,,0x03,
3020,-961,-129,254,-2030,-1680,-3010,,,,,,,0x03,
3029,-963,-128,255,-3080,-1540,-2380,,,,,,,0x03,
3039,-960,-133,255,-4620,-1470,-1890,,,,,,,0x03,
3049,-957,-141,251,-5390,-1400,-1540,,,,,,,0x03,
3058,-958,-148,250,-4900,-1330,-1260,,,,,,,0x03,
3068,-963,-150,245,-3570,-1190,-1190,,,,,,,0x03,
3078,-965,-140,246,-1540,-1190,-1190,,,,,,,0x03,
3087,-962,-131,249,-140,-1190,-1050,,,,,,,0x03,
3097,-960,-129,250,-70,-1120,-980,,,,,,,0x03,
3107,-962,-130,250,-70,-1190,-910,,,,,,,0x03,
3116,-964,-130,249,210,-1330,-980,,,,,,,0x03,
3126,-965,-127,249,700,-1330,-1120,,,,,,,0x03,
3136,-966,-124,249,770,-1400,-1190,,,,,,,0x03,
3145,-963,-127,251,140,-1400,-1050,,,,,,,0x03,
3155,-959,-135,252,-350,-1400,-1050,,,,,,,0x03,
3164,-959,-142,251,-210,-1330,-1050,,,,,,,0x03,
3174,-962,-145,251,700,-1260,-910,,,,,,,0x03,
3184,-958,-150,252,1540,-1120,-630,,,,,,,0x03,
3193,-958,-151,252,2380,-910,-210,,,,,,,0x03,
3203,-957,-153,257,3010,-700,350,,,,,,,0x03,
3213,-957,-149,258,3430,-560,910,,,,,,,0x03,
3222,-955,-150,260,3500,-210,1610,,,,,,,0x03,
3232,-953,-152,257,2940,140,2170,,,,,,,0x03,
3242,-954,-152,257,2660,420,2940,,,,,,,0x03,
3251,-957,-148,256,2660,630,3570,,,,,,,0x03,
3261,-960,-138,256,2310,770,4200,,,,,,,0x03,
3271,-963,-130,258,1190,980,4760,,,,,,,0x03,
3280,-960,-130,258,-770,1260,5390,,,,,,,0x03,
3290,-957,-133,256,-2590,1400,5810,,,,,,,0x03,
3300,-961,-129,248,-3150,1470,6020,,,,,,,0x03,
3309,-966,-127,247,-3010,1470,6230,,,,,,,0x03,
3319,-965,-124,246,-3220,1400,6510,,,,,,,0x03,
3328,-967,-120,245,-3360,1260,6580,,,,,,,0x03,
3338,-967,-123,242,-3290,1120,6650,,,,,,,0x03,
3348,-966,-133,237,-3150,980,6790,,,,,,,0x03,
3357,-965,-146,235,-2170,770,7070,,,,,,,0x03,
3367,-961,-151,240,350,560,7420,,,,,,,0x03,
3377,-959,-146,245,3640,280,7980,,,,,,,0x03,
3386,-958,-140,248,6020,280,8750,,,,,,,0x03,
3396,-958,-131,246,7280,490,9240,,,,,,,0x03,
3406,-958,-115,253,8190,560,9100,,,,,,,0x03,
3415,-961,-87,257,8400,630,8960,,,,,,,0x03,
3425,-966,-64,262,6440,840,8820,,,,,,,0x03,
3435,-969,-54,257,2310,1050,8610,,,,,,,0x03,
3444,-974,-56,250,-2030,1050,8190,,,,,,,0x03,
3454,-978,-64,246,-5530,980,7420,,,,,,,0x03,
3464,-976,-66,239,-7770,840,6510,,,,,,,0x03,
3473,-975,-73,241,-9100,770,5880,,,,,,,0x03,
3483,-975,-78,240,-9170,770,5110,,,,,,,0x03,
3493,-974,-79,240,-7910,770,4200,,,,,,,0x03,
3502,-973,-82,238,-5950,840,3220,,,,,,,0x03,
3512,-972,-88,237,-3920,910,2590,,,,,,,0x03,
3521,-969,-101,236,-1750,770,2100,,,,,,,0x03,
3531,-966,-108,236,1120,560,1540,,,,,,,0x03,
3541,-967,-111,238,4340,490,1190,,,,,,,0x03,
3550,-966,-109,239,6930,560,1050,,,,,,,0x03,
3560,-964,-108,239,8750,560,910,,,,,,,0x03,
3570,-965,-107,243,9870,560,910,,,,,,,0x03,
3579,-968,-100,245,10220,560,1120,,,,,,,0x03,
3589,-967,-95,245,9590,630,1400,,,,,,,0x03,
3599,-964,-90,246,7770,630,1680,,,,,,,0x03,
3608,-966,-90,247,4900,420,2030,,,,,,,0x03,
3618,-969,-89,245,1820,420,2380,,,,,,,0x03,
3628,-971,-85,243,-980,350,2800,,,,,,,0x03,
3637,-971,-80,244,-3430,210,3010,,,,,,,0x03,
3647,-969,-78,247,-5530,140,3080,,,,,,,0x03,
3657,-970,-77,245,-7140,0,3080,,,,,,,0x03,
3666,-973,-79,239,-8120,70,3080,,,,,,,0x03,
3676,-973,-87,236,-8190,0,2800,,,,,,,0x03,
3685,-973,-89,234,-7070,-210,2450,,,,,,,0x03,
3695,-973,-87,232,-5180,-350,2100,,,,,,,0x03,
3705,-971,-90,235,-3500,-490,1750,,,,,,,0x03,
3714,-972,-92,232,-1820,-630,1330,,,,,,,0x03,
3724,-975,-88,231,560,-630,770,,,,,,,0x03,
3734,-969,-87,234,2520,-700,140,,,,,,,0x03,
3743,-973,-79,237,4200,-980,-420,,,,,,,0x03,
3753,-979,-72,236,5320,-1120,-700,,,,,,,0x03,
3763,-968,-70,240,4900,-1120,-1050,,,,,,,0x03,
3772,-968,-70,242,3780,-1260,-1400,,,,,,,0x03,
3782,-972,-71,245,2590,-1470,-1750,,,,,,,0x03,
3792,-969,-74,246,1120,-1540,-2170,,,,,,,0x03,
3801,-969,-75,242,-70,-1470,-2450,,,,,,,0x03,
3811,-973,-82,240,-1540,-1400,-2660,,,,,,,0x03,
3821,-970,-90,240,-2380,-1400,-2870,,,,,,,0x03,
3830,-967,-92,240,-2240,-1470,-3080,,,,,,,0x03,
3840,-968,-92,242,-1960,-1470,-3220,,,,,,,0x03,
3849,-966,-96,241,-1890,-1400,-3360,,,,,,,0x03,
3859,-966,-99,238,-1680,-1400,-3570,,,,,,,0x03,
3869,-970,-106,235,-910,-1400,-3780,,,,,,,0x03,
3878,-974,-109,234,420,-1400,-4200,,,,,,,0x03,
3888,-972,-105,237,2520,-1400,-4620,,,,,,,0x03,
3898,-971,-90,239,4760,-1470,-4900,,,,,,,0x03,
3907,-971,-85,241,5740,-1470,-5040,,,,,,,0x03,
3917,-971,-88,243,5320,-1400,-4970,,,,,,,0x03,
3927,-967,-95,247,4830,-1400,-4970,,,,,,,0x03,
3936,-962,-98,251,4760,-1470,-4970,,,,,,,0x03,
3946,-963,-93,252,5110,-1610,-4900,,,,,,,0x03,
3956,-965,-92,250,4410,-1610,-4550,,,,,,,0x03,
3965,-966,-97,247,2590,-1540,-4270,,,,,,,0x03,
3975,-966,-108,249,630,-1540,-3850,,,,,,,0x03,
3985,-962,-116,247,-770,-1400,-3640,,,,,,,0x03,
3994,-961,-113,252,-1050,-1400,-3360,,,,,,,0x03,
4004,-964,-107,253,-1190,-1330,-3010,,,,,,,0x03,
4013,-966,-101,246,-2030,-1190,-2590,,,,,,,0x03,
4023,-968,-109,250,-3430,-1120,-2030,,,,,,,0x03,
4033,-964,-119,246,-4410,-1050,-1680,,,,,,,0x03,
4042,-963,-121,243,-3990,-910,-1540,,,,,,,0x03,
4052,-965,-117,242,-2660,-910,-1470,,,,,,,0x03,
4062,-966,-100,244,-1260,-1050,-1470,,,,,,,0x03,
4071,-969,-90,250,-1190,-1190,-1260,,,,,,,0x03,
4081,-968,-91,247,-2660,-1260,-1050,,,,,,,0x03,
4091,-967,-103,240,-3990,-1260,-980,,,,,,,0x03,
4100,-969,-119,236,-4340,-1260,-1120,,,,,,,0x03,
4110,-969,-123,233,-3080,-1330,-1400,,,,,,,0x03,
4120,-966,-118,238,-1050,-1400,-1610,,,,,,,0x03,
4129,-967,-106,244,700,-1470,-1750,,,,,,,0x03,
4139,-970,-96,245,910,-1540,-1820,,,,,,,0x03,
4149,-970,-100,241,140,-1540,-1890,,,,,,,0x03,
4158,-970,-112,240,-980,-1540,-2030,,,,,,,0x03,
4168,-967,-119,240,-770,-1610,-2520,,,,,,,0x03,
4177,-968,-107,241,1050,-1680,-3080,,,,,,,0x03,
4187,-971,-90,244,2240,-1820,-3290,,,,,,,0x03,
4197,-969,-85,247,1190,-1960,-3290,,,,,,,0x03,
4206,-967,-97,250,-770,-1960,-3500,,,,,,,0x03,
4216,-967,-114,245,-2030,-1960,-3780,,,,,,,0x03,
4226,-965,-122,242,-1470,-1890,-3990,,,,,,,0x03,
4235,-962,-125,243,-140,-1820,-3920,,,,,,,0x03,
4245,-963,-128,248,910,-1680,-3640,,,,,,,0x03,
4255,-962,-128,251,1890,-1610,-3150,,,,,,,0x03,
4264,-961,-127,253,2730,-1540,-2660,,,,,,,0x03,
4274,-961,-131,256,2800,-1400,-2030,,,,,,,0x03,
4284,-955,-133,254,2520,-1260,-1540,,,,,,,0x03,
4293,-958,-131,253,2590,-1190,-980,,,,,,,0x03,
4303,-962,-126,255,2380,-1120,-490,,,,,,,0x03,
4313,-960,-120,258,1330,-980,70,,,,,,,0x03,
4322,-957,-117,256,-350,-910,560,,,,,,,0x03,
4332,-962,-117,255,-2030,-840,980,,,,,,,0x03,
4342,-964,-117,252,-3430,-770,1330,,,,,,,0x03,
4351,-965,-117,249,-4340,-700,1680,,,,,,,0x03,
4361,-964,-120,248,-5180,-630,2100,,,,,,,0x03,
4370,-964,-123,244,-5600,-490,2170,,,,,,,0x03,
4380,-966,-122,246,-5110,-490,2170,,,,,,,0x03,
4390,-967,-118,246,-4200,-490,2170,,,,,,,0x03,
4399,-964,-115,246,-3430,-420,2170,,,,,,,0x03,
4409,-964,-117,246,-2660,-280,2100,,,,,,,0x03,
4419,-963,-117,245,-1400,-140,1890,,,,,,,0x03,
4428,-966,-112,244,350,-140,1540,,,,,,,0x03,
4438,-968,-108,244,1680,-140,1330,,,,,,,0x03,
4448,-967,-107,244,2170,-140,1120,,,,,,,0x03,
4457,-969,-109,242,2240,-140,910,,,,,,,0x03,
4467,-966,-113,244,2100,-140,700,,,,,,,0x03,
4477,-962,-111,245,2240,-140,420,,,,,,,0x03,
4486,-968,-110,246,2310,-210,280,,,,,,,0x03,
4496,-968,-114,242,1750,-210,280,,,,,,,0x03,
4506,-965,-123,240,1330,-210,350,,,,,,,0x03,
4515,-965,-134,243,1820,-140,560,,,,,,,0x03,
4525,-962,-133,243,3220,0,630,,,,,,,0x03,
4534,-960,-127,246,4690,70,910,,,,,,,0x03,
4544,-960,-126,251,5110,70,1330,,,,,,,0x03,
4554,-961,-132,247,4620,350,1680,,,,,,,0x03,
4563,-963,-134,245,4620,560,1960,,,,,,,0x03,
4573,-963,-136,242,5320,770,2310,,,,,,,0x03,
4583,-961,-138,241,5950,980,2660,,,,,,,0x03,
4592,-963,-133,243,6790,1120,2870,,,,,,,0x03,
4602,-966,-114,249,8400,1120,2870,,,,,,,0x03,
4612,-963,-105,248,8260,1190,3010,,,,,,,0x03,
4621,-962,-95,248,6580,1330,3150,,,,,,,0x03,
4631,-968,-91,255,5600,1400,3570,,,,,,,0x03,
4641,-968,-85,254,4200,1470,3430,,,,,,,0x03,
4650,-969,-63,252,3430,1330,3010,,,,,,,0x03,
4660,-974,-47,253,2240,1050,2730,,,,,,,0x03,
4670,-974,-41,249,-770,700,2590,,,,,,,0x03,
4679,-977,-49,246,-4270,420,2450,,,,,,,0x03,
4689,-976,-65,241,-6720,210,1750,,,,,,,0x03,
4698,-977,-75,238,-7140,-70,840,,,,,,,0x03,
4708,-974,-82,236,-6790,-350,-140,,,,,,,0x03,
4718,-973,-90,233,-6020,-490,-980,,,,,,,0x03,
4727,-971,-100,235,-4830,-630,-1540,,,,,,,0x03,
4737,-967,-106,237,-2730,-770,-2170,,,,,,,0x03,
4747,-965,-105,235,140,-840,-2590,,,,,,,0x03,
4756,-970,-104,235,2380,-910,-2730,,,,,,,0x03,
4766,-969,-109,238,3640,-910,-2730,,,,,,,0x03,
4776,-970,-116,234,4480,-910,-2730,,,,,,,0x03,
4785,-968,-124,237,5110,-910,-2520,,,,,,,0x03,
4795,-963,-133,245,5460,-980,-2170,,,,,,,0x03,
4805,-960,-124,250,6510,-1050,-1820,,,,,,,0x03,
4814,-961,-108,252,7070,-910,-1330,,,,,,,0x03,
4824,-961,-107,255,5390,-840,-490,,,,,,,0x03,
4834,-961,-112,252,2590,-770,350,,,,,,,0x03,
4843,-961,-118,249,350,-630,1050,,,,,,,0x03,
4853,-964,-113,246,-770,-630,1470,,,,,,,0x03,
4862,-968,-101,249,-1540,-630,2030,,,,,,,0x03,
4872,-965,-91,253,-3220,-560,2660,,,,,,,0x03,
4882,-960,-95,250,-5740,-350,3080,,,,,,,0x03,
4891,-965,-107,244,-7280,-210,3150,,,,,,,0x03,
4901,-971,-107,240,-6580,-210,2940,,,,,,,0x03,
4911,-971,-95,241,-4830,-210,2660,,,,,,,0x03,
4920,-970,-81,242,-3780,-420,2450,,,,,,,0x03,
4930,-973,-79,242,-3850,-700,2380,,,,,,,0x03,
4940,-971,-88,238,-4620,-770,2030,,,,,,,0x03,
4949,-972,-100,236,-4480,-700,1400,,,,,,,0x03,
4959,-972,-106,234,-2940,-700,630,,,,,,,0x03,
4969,-971,-104,229,-910,-630,0,,,,,,,0x03,
4978,-972,-105,232,980,-630,-490,,,,,,,0x03,
4988,-969,-106,238,2240,-700,-770,,,,,,,0x03,
4998,-966,-105,243,3430,-770,-980,,,,,,,0x03,
5007,-967,-97,243,4480,-840,-1190,,,,,,,0x03,
5017,-968,-90,243,4690,-910,-1120,,,,,,,0x03,
5027,-970,-97,246,3150,-910,-840,,,,,,,0x03,
5036,-966,-106,244,1260,-910,-700,,,,,,,0x03,
5046,-962,-114,244,280,-910,-560,,,,,,,0x03,
5055,-961,-116,240,140,-910,-420,,,,,,,0x03,
5065,-965,-120,244,280,-840,0,,,,,,,0x03,
5075,-966,-115,244,280,-770,350,,,,,,,0x03,
5084,-965,-108,243,770,-700,700,,,,,,,0x03,
5094,-966,-112,242,280,-630,1120,,,,,,,0x03,
5104,-965,-118,242,-280,-490,1330,,,,,,,0x03,
5113,-963,-122,244,70,-350,1400,,,,,,,0x03,
5123,-963,-122,244,1050,-140,1540,,,,,,,0x03,
5133,-964,-112,248,2590,0,1680,,,,,,,0x03,
5142,-964,-93,250,3990,0,1610,,,,,,,0x03,
5152,-966,-79,248,4130,0,1820,,,,,,,0x03,
5162,-968,-81,249,2450,70,2030,,,,,,,0x03,
5171,-969,-86,248,1050,70,1960,,,,,,,0x03,
5181,-971,-82,240,770,70,1540,,,,,,,0x03,
5191,-973,-79,237,350,70,1260,,,,,,,0x03,
5200,-975,-81,240,-770,0,980,,,,,,,0x03,
5210,-973,-84,240,-1890,-70,630,,,,,,,0x03,
5219,-971,-84,240,-2170,-210,210,,,,,,,0x03,
5229,-971,-77,238,-1680,-350,-140,,,,,,,0x03,
5239,-972,-74,240,-1400,-560,-210,,,,,,,0x03,
5248,-969,-81,239,-2170,-700,-280,,,,,,,0x03,
5258,-969,-97,239,-2590,-770,-560,,,,,,,0x03,
5268,-968,-109,240,-1960,-840,-770,,,,,,,0x03,
5277,-967,-109,237,-140,-770,-1120,,,,,,,0x03,
5287,-966,-103,239,1610,-840,-1190,,,,,,,0x03,
5297,-966,-110,239,1960,-840,-1050,,,,,,,0x03,
5306,-970,-116,238,2100,-630,-980,,,,,,,0x03,
5316,-967,-116,242,3010,-630,-910,,,,,,,0x03,
5326,-963,-109,243,4060,-630,-560,,,,,,,0x03,
5335,-966,-106,244,3780,-490,-140,,,,,,,0x03,
5345,-967,-110,245,2800,-420,280,,,,,,,0x03,
5355,-966,-104,245,2520,-420,560,,,,,,,0x03,
5364,-968,-95,245,2100,-420,910,,,,,,,0x03,
5374,-967,-95,246,350,-420,1400,,,,,,,0x03,
5383,-963,-106,245,-1750,-280,1680,,,,,,,0x03,
5393,-964,-124,244,-2940,0,1680,,,,,,,0x03,
5403,-968,-139,237,-2240,420,1330,,,,,,,0x03,
5412,-967,-138,230,420,700,630,,,,,,,0x03,
5422,-969,-120,229,3850,770,70,,,,,,,0x03,
5432,-974,-89,240,6580,770,70,,,,,,,0x03,
5441,-972,-57,249,7560,630,490,,,,,,,0x03,
5451,-967,-40,252,6090,490,840,,,,,,,0x03,
5461,-963,-48,251,2730,350,1120,,,,,,,0x03,
5470,-967,-67,246,-140,140,980,,,,,,,0x03,
5480,-973,-80,239,-770,70,420,,,,,,,0x03,
5490,-976,-81,232,0,-70,-280,,,,,,,0x03,
5499,-976,-81,232,630,-350,-630,,,,,,,0x03,
5509,-973,-81,236,630,-490,-770,,,,,,,0x03,
5519,-970,-84,239,490,-630,-1050,,,,,,,0x03,
5528,-973,-82,240,420,-770,-1260,,,,,,,0x03,
5538,-975,-83,236,140,-910,-1540,,,,,,,0x03,
5547,-972,-91,237,-490,-980,-1750,,,,,,,0x03,
5557,-969,-94,239,-840,-1120,-2170,,,,,,,0x03,
5567,-969,-85,243,-140,-1260,-2450,,,,,,,0x03,
5576,-968,-77,244,-70,-1330,-2520,,,,,,,0x03,
5586,-968,-84,240,-1260,-1330,-2240,,,,,,,0x03,
5596,-969,-109,239,-2660,-1330,-2030,,,,,,,0x03,
5605,-967,-127,235,-2240,-1260,-2030,,,,,,,0x03,
5615,-965,-128,235,70,-1190,-1960,,,,,,,0x03,
5625,-966,-114,239,2450,-1190,-1820,,,,,,,0x03,
5634,-966,-100,244,3360,-1260,-1330,,,,,,,0x03,
5644,-966,-94,246,2450,-1260,-770,,,,,,,0x03,
5654,-967,-99,245,910,-1190,-350,,,,,,,0x03,
5663,-966,-105,247,-420,-1190,-70,,,,,,,0x03,
5673,-965,-101,246,-910,-1190,-70,,,,,,,0x03,
5683,-968,-90,246,-910,-1120,0,,,,,,,0x03,
5692,-969,-92,243,-1960,-980,280,,,,,,,0x03,
5702,-966,-108,240,-3780,-840,490,,,,,,,0x03,
5711,-967,-123,237,-4130,-700,280,,,,,,,0x03,
5721,-970,-119,237,-2100,-630,0,,,,,,,0x03,
5731,-973,-93,239,420,-630,-210,,,,,,,0x03,
5740,-969,-76,244,840,-770,0,,,,,,,0x03,
5750,-966,-82,241,-1190,-840,140,,,,,,,0x03,
5760,-969,-104,236,-2870,-840,70,,,,,,,0x03,
5769,-972,-114,236,-1960,-840,-490,,,,,,,0x03,
5779,-970,-97,237,910,-910,-1050,,,,,,,0x03,
5789,-972,-81,241,2450,-1050,-1120,,,,,,,0x03,
5798,-970,-84,245,1470,-1190,-1050,,,,,,,0x03,
5808,-968,-97,243,280,-1190,-1120,,,,,,,0x03,
5818,-965,-107,242,210,-1120,-1260,,,,,,,0x03,
5827,-965,-107,239,980,-1120,-1400,,,,,,,0x03,
5837,-968,-103,241,1750,-1050,-1330,,,,,,,0x03,
5847,-970,-102,241,1540,-1050,-1190,,,,,,,0x03,
5856,-968,-104,242,910,-1050,-1050,,,,,,,0x03,
5866,-967,-109,243,560,-980,-910,,,,,,,0x03,
5876,-964,-110,244,490,-910,-840,,,,,,,0x03,
5885,-967,-104,244,700,-910,-630,,,,,,,0x03,
5895,-966,-98,245,770,-980,-210,,,,,,,0x03,
5904,-964,-101,246,-70,-840,70,,,,,,,0x03,
5914,-965,-102,245,-840,-700,210,,,,,,,0x03,
5924,-969,-101,244,-1050,-630,210,,,,,,,0x03,
5933,-968,-97,245,-1190,-630,280,,,,,,,0x03,
5943,-965,-95,242,-1470,-630,350,,,,,,,0x03,
5953,-968,-101,244,-1750,-560,350,,,,,,,0x03,
5962,-966,-106,244,-1960,-490,350,,,,,,,0x03,
5972,-965,-105,240,-1260,-420,280,,,,,,,0x03,
5982,-968,-108,240,-490,-350,280,,,,,,,0x03,
5991,-968,-108,241,140,-350,210,,,,,,,0x03,
6001,-968,-106,245,910,-280,280,,,,,,,0x03,
6011,-965,-102,244,1610,-140,350,,,,,,,0x03,
6020,-966,-103,243,1820,140,350,,,,,,,0x03,
6030,-972,-103,241,1890,210,350,,,,,,,0x03,
6040,-967,-100,242,1890,210,350,,,,,,,0x03,
6049,-966,-95,242,1680,140,350,,,,,,,0x03,
6059,-968,-91,242,1190,70,420,,,,,,,0x03,
6068,-970,-88,241,70,-210,560,,,,,,,0x03,
6078,-971,-91,240,-1400,-420,560,,,,,,,0x03,
6088,-973,-101,238,-2520,-490,630,,,,,,,0x03,
6097,-970,-106,236,-2870,-560,490,,,,,,,0x03,
6107,-968,-106,238,-2170,-630,420,,,,,,,0x03,
6117,-968,-100,239,-1260,-770,490,,,,,,,0x03,
6126,-970,-97,236,-840,-840,630,,,,,,,0x03,
6136,-970,-103,235,-910,-910,770,,,,,,,0x03,
6146,-969,-111,235,-770,-980,700,,,,,,,0x03,
6155,-969,-107,238,280,-1120,490,,,,,,,0x03,
6165,-969,-94,242,1610,-1050,420,,,,,,,0x03,
6175,-965,-84,247,1750,-1050,420,,,,,,,0x03,
6184,-963,-85,249,910,-1050,490,,,,,,,0x03,
6194,-965,-93,246,-140,-980,490,,,,,,,0x03,
6204,-968,-98,239,-490,-840,490,,,,,,,0x03,
6213,-970,-102,238,-420,-770,420,,,,,,,0x03,
6223,-971,-103,238,-70,-770,210,,,,,,,0x03,
6232,-969,-97,239,140,-840,70,,,,,,,0x03,
6242,-967,-95,242,-70,-910,140,,,,,,,0x03,
6252,-966,-97,243,-700,-910,210,,,,,,,0x03,
6261,-970,-103,245,-980,-910,280,,,,,,,0x03,
6271,-967,-107,243,-700,-700,350,,,,,,,0x03,
6281,-961,-107,246,70,-630,420,,,,,,,0x03,
6290,-963,-104,244,840,-490,560,,,,,,,0x03,
6300,-969,-101,242,1260,-350,630,,,,,,,0x03,
6310,-968,-102,242,1190,-280,700,,,,,,,0x03,
6319,-968,-97,240,1330,-280,770,,,,,,,0x03,
6329,-972,-91,242,1260,-350,910,,,,,,,0x03,
6339,-971,-93,244,0,-350,1050,,,,,,,0x03,
6348,-969,-97,242,-1330,-140,1190,,,,,,,0x03,
6358,-971,-100,239,-1680,-70,1120,,,,,,,0x03,
6368,-970,-98,238,-1400,-70,1120,,,,,,,0x03,
6377,-968,-95,240,-1120,-140,1120,,,,,,,0x03,
6387,-965,-91,244,-1050,-210,1190,,,,,,,0x03,
6396,-966,-90,244,-1330,-210,1190,,,,,,,0x03,
6406,-968,-94,241,-1750,-210,1260,,,,,,,0x03,
6416,-966,-99,240,-1820,-280,1260,,,,,,,0x03,
6425,-968,-100,238,-1400,-350,1190,,,,,,,0x03,
6435,-971,-96,237,-560,-350,1050,,,,,,,0x03,
6445,-971,-91,237,-70,-420,1050,,,,,,,0x03,
6454,-972,-86,238,-70,-560,910,,,,,,,0x03,
6464,-974,-87,238,-420,-560,840,,,,,,,0x03,
6474,-970,-92,235,-1190,-700,770,,,,,,,0x03,
6483,-970,-97,233,-1400,-770,630,,,,,,,0x03,
6493,-973,-99,238,-910,-910,490,,,,,,,0x03,
6503,-968,-98,242,-210,-910,280,,,,,,,0x03,
6512,-964,-90,243,490,-840,140,,,,,,,0x03,
6522,-966,-87,242,560,-840,210,,,,,,,0x03,
6532,-968,-91,242,70,-840,350,,,,,,,0x03,
6541,-967,-99,243,-210,-770,350,,,,,,,0x03,
6551,-968,-99,238,140,-700,210,,,,,,,0x03,
6561,-974,-96,234,630,-560,70,,,,,,,0x03,
6570,-974,-95,237,630,-560,70,,,,,,,0x03,
6580,-970,-86,240,560,-630,-140,,,,,,,0x03,
6589,-971,-82,240,280,-770,-70,,,,,,,0x03,
6599,-969,-88,242,-910,-770,0,,,,,,,0x03,
6609,-968,-94,241,-1470,-770,0,,,,,,,0x03,
6618,-967,-96,240,-980,-840,-70,,,,,,,0x03,
6628,-968,-94,239,-490,-770,-140,,,,,,,0x03,
6638,-970,-91,240,-210,-700,-210,,,,,,,0x03,
6647,-970,-90,241,-210,-700,-280,,,,,,,0x03,
6657,-967,-90,240,-630,-630,-420,,,,,,,0x03,
6667,-969,-88,241,-630,-700,-490,,,,,,,0x03,
6676,-972,-87,240,-560,-770,-630,,,,,,,0x03,
6686,-972,-86,235,-700,-910,-840,,,,,,,0x03,
6696,-974,-87,235,-910,-1050,-980,,,,,,,0x03,
6705,-972,-88,238,-1050,-1190,-1050,,,,,,,0x03,
6715,-971,-86,238,-1330,-1330,-1260,,,,,,,0x03,
6725,-971,-87,240,-1400,-1400,-1540,,,,,,,0x03,
6734,-966,-95,240,-1750,-1470,-1820,,,,,,,0x03,
6744,-966,-99,238,-1540,-1470,-2030,,,,,,,0x03,
6753,-967,-101,238,-420,-1540,-2170,,,,,,,0x03,
6763,-969,-95,238,910,-1540,-2310,,,,,,,0x03,
6773,-969,-92,241,1540,-1610,-2310,,,,,,,0x03,
6782,-968,-94,241,1330,-1750,-2240,,,,,,,0x03,
6792,-968,-95,242,1120,-1820,-2240,,,,,,,0x03,
6802,-971,-94,241,840,-1820,-2240,,,,,,,0x03,
6811,-971,-94,244,280,-1820,-2240,,,,,,,0x03,
6821,-967,-100,245,-420,-1750,-2170,,,,,,,0x03,
6831,-968,-108,239,-1120,-1610,-2100,,,,,,,0x03,
6840,-970,-112,238,-1050,-1470,-1960,,,,,,,0x03,
6850,-969,-109,241,-70,-1400,-1890,,,,,,,0x03,
6860,-964,-101,247,280,-1400,-1820,,,,,,,0x03,
6869,-963,-96,248,-140,-1400,-1750,,,,,,,0x03,
6879,-966,-98,247,-910,-1330,-1540,,,,,,,0x03,
6889,-964,-101,247,-1890,-1190,-1400,,,,,,,0x03,
6898,-966,-101,243,-2030,-1120,-1120,,,,,,,0x03,
6908,-969,-102,243,-1960,-1190,-910,,,,,,,0x03,
6917,-967,-104,242,-2030,-1190,-910,,,,,,,0x03,
6927,-966,-101,241,-1750,-1330,-910,,,,,,,0x03,
6937,-970,-98,242,-1400,-1470,-770,,,,,,,0x03,
6946,-969,-92,247,-1540,-1610,-490,,,,,,,0x03,
6956,-968,-89,248,-1820,-1750,-210,,,,,,,0x03,
6966,-964,-97,246,-3220,-1820,-280,,,,,,,0x03,
6975,-964,-101,244,-4130,-1820,-350,,,,,,,0x03,
6985,-963,-111,248,-4340,-1750,-350,,,,,,,0x03,
6995,-964,-109,242,-4130,-1680,-700,,,,,,,0x03,
7004,-966,-105,240,-3290,-1610,-980,,,,,,,0x03,
7014,-971,-104,242,-2730,-1680,-1120,,,,,,,0x03,
7024,-970,-104,242,-2730,-1610,-1330,,,,,,,0x03,
7033,-969,-108,242,-2590,-1610,-1610,,,,,,,0x03,
7043,-968,-111,242,-2100,-1470,-1750,,,,,,,0x03,
7053,-967,-117,244,-1470,-1330,-1750,,,,,,,0x03,
7062,-964,-124,243,-560,-1120,-1680,,,,,,,0x03,
7072,-961,-129,243,840,-980,-1470,,,,,,,0x03,
7081,-962,-130,242,2590,-840,-1190,,,,,,,0x03,
7091,-964,-131,244,4060,-700,-700,,,,,,,0x03,
7101,-961,-132,246,4970,-490,-140,,,,,,,0x03,
7110,-961,-124,250,5950,-350,350,,,,,,,0x03,
7120,-961,-113,251,6230,-140,770,,,,,,,0x03,
7130,-964,-103,253,5040,140,1190,,,,,,,0x03,
7139,-964,-97,252,2870,140,1750,,,,,,,0x03,
7149,-966,-96,249,350,210,2240,,,,,,,0x03,
7159,-968,-100,247,-2030,280,2590,,,,,,,0x03,
7168,-970,-104,247,-3780,210,2800,,,,,,,0x03,
7178,-967,-108,242,-4760,70,2800,,,,,,,0x03,
7188,-968,-104,239,-4760,0,2730,,,,,,,0x03,
7197,-972,-99,241,-4270,-210,2870,,,,,,,0x03,
7207,-969,-96,241,-4060,-280,2940,,,,,,,0x03,
7217,-966,-98,241,-4130,-280,2940,,,,,,,0x03,
7226,-967,-100,239,-3360,-350,2660,,,,,,,0x03,
7236,-968,-102,240,-1960,-350,2310,,,,,,,0x03,
7245,-968,-100,238,-560,-420,1890,,,,,,,0x03,
7255,-968,-101,240,770,-560,1750,,,,,,,0x03,
7265,-964,-108,243,1890,-560,1680,,,,,,,0x03,
7274,-966,-108,239,3290,-630,1400,,,,,,,0x03,
7284,-972,-104,241,4900,-630,1330,,,,,,,0x03,
7294,-970,-96,243,5530,-490,1330,,,,,,,0x03,
7303,-966,-93,248,4970,-350,1470,,,,,,,0x03,
7313,-968,-98,248,3430,-210,1610,,,,,,,0x03,
7323,-964,-98,248,2240,-140,1540,,,,,,,0x03,
7332,-965,-96,248,1610,-70,1540,,,,,,,0x03,
7342,-968,-92,247,700,70,1750,,,,,,,0x03,
7352,-967,-90,246,-490,70,1890,,,,,,,0x03,
7361,-967,-91,246,-1470,210,2030,,,,,,,0x03,
7371,-968,-92,244,-2170,280,1960,,,,,,,0x03,
7381,-968,-91,243,-2590,350,1890,,,,,,,0x03,
7390,-970,-92,241,-2870,350,1890,,,,,,,0x03,
7400,-972,-90,238,-2870,350,1680,,,,,,,0x03,
7410,-972,-90,238,-2520,210,1540,,,,,,,0x03,
7419,-969,-91,238,-1960,70,1400,,,,,,,0x03,
7429,-967,-93,238,-1400,0,1190,,,,,,,0x03,
7438,-971,-95,237,-560,-70,840,,,,,,,0x03,
7448,-973,-91,235,490,-210,560,,,,,,,0x03,
7458,-971,-89,236,1260,-350,350,,,,,,,0x03,
7467,-971,-89,235,1680,-560,210,,,,,,,0x03,
7477,-970,-91,236,1820,-770,-70,,,,,,,0x03,
7487,-969,-93,239,1890,-980,-350,,,,,,,0x03,
7496,-970,-87,241,1960,-1120,-420,,,,,,,0x03,
7506,-970,-87,243,1540,-1190,-490,,,,,,,0x03,
7516,-967,-89,242,700,-1120,-490,,,,,,,0x03,
7525,-971,-96,239,140,-1120,-420,,,,,,,0x03,
7535,-970,-101,239,-140,-1190,-490,,,,,,,0x03,
7545,-968,-95,241,350,-1260,-560,,,,,,,0x03,
7554,-968,-88,243,630,-1330,-420,,,,,,,0x03,
7564,-968,-86,245,-140,-1400,-210,,,,,,,0x03,
7574,-968,-96,245,-1400,-1400,70,,,,,,,0x03,
7583,-967,-103,243,-1820,-1260,70,,,,,,,0x03,
7593,-965,-106,242,-1120,-1120,0,,,,,,,0x03,
7602,-966,-100,245,-140,-1050,-70,,,,,,,0x03,
7612,-966,-91,243,490,-980,0,,,,,,,0x03,
7622,-969,-90,242,350,-980,70,,,,,,,0x03,
7631,-970,-94,244,-70,-980,140,,,,,,,0x03,
7641,-966,-95,245,-210,-980,140,,,,,,,0x03,
7651,-967,-90,245,-140,-980,70,,,,,,,0x03,
7660,-971,-87,243,-350,-910,140,,,,,,,0x03,
7670,-968,-89,243,-910,-840,70,,,,,,,0x03,
7680,-968,-91,242,-1260,-840,-140,,,,,,,0x03,
7689,-970,-92,243,-1400,-910,-140,,,,,,,0x03,
7699,-967,-93,242,-1330,-840,-350,,,,,,,0x03,
7709,-969,-93,243,-1050,-910,-420,,,,,,,0x03,
7718,-968,-93,244,-700,-910,-490,,,,,,,0x03,
7728,-968,-96,243,-700,-840,-490,,,,,,,0x03,
7738,-968,-100,243,-630,-700,-420,,,,,,,0x03,
7747,-966,-107,240,-420,-700,-420,,,,,,,0x03,
7757,-966,-107,238,280,-700,-630,,,,,,,0x03,
7766,-968,-107,242,1400,-700,-630,,,,,,,0x03,
7776,-967,-100,244,2240,-700,-490,,,,,,,0x03,
7786,-967,-95,245,2310,-630,-210,,,,,,,0x03,
7795,-967,-95,246,1820,-630,70,,,,,,,0x03,
7805,-967,-97,244,1190,-490,350,,,,,,,0x03,
7815,-967,-104,244,490,-420,560,,,,,,,0x03,
7824,-965,-105,244,210,-280,630,,,,,,,0x03,
7834,-965,-99,245,490,-210,770,,,,,,,0x03,
7844,-966,-94,246,280,-140,980,,,,,,,0x03,
7853,-968,-93,246,-350,-70,1190,,,,,,,0x03,
7863,-969,-91,244,-910,-70,1330,,,,,,,0x03,
7873,-969,-92,244,-1330,0,1400,,,,,,,0x03,
7882,-970,-90,240,-1680,-70,1400,,,,,,,0x03,
7892,-969,-94,240,-1890,-140,1400,,,,,,,0x03,
7902,-967,-97,239,-1890,-140,1400,,,,,,,0x03,
7911,-967,-96,240,-1330,-210,1400,,,,,,,0x03,
7921,-974,-89,239,-280,-280,1260,,,,,,,0x03,
7930,-973,-81,238,280,-420,980,,,,,,,0x03,
7940,-972,-79,240,70,-420,840,,,,,,,0x03,
7950,-972,-86,242,-560,-420,700,,,,,,,0x03,
7959,-970,-90,239,-770,-350,350,,,,,,,0x03,
7969,-968,-91,239,-350,-420,0,,,,,,,0x03,
7979,-970,-88,239,280,-560,-210,,,,,,,0x03,
7988,-971,-85,241,560,-700,-210,,,,,,,0x03,
7998,-972,-92,239,-70,-700,-140,,,,,,,0x03,
8008,-969,-100,238,-70,-630,-210,,,,,,,0x03,
8017,-968,-99,241,910,-770,-280,,,,,,,0x03,
8027,-968,-89,240,1890,-910,-350,,,,,,,0x03,
8037,-970,-78,241,1680,-910,-140,,,,,,,0x03,
8046,-974,-75,241,280,-980,-70,,,,,,,0x03,
8056,-972,-80,244,-1330,-1190,-70,,,,,,,0x03,
8066,-968,-86,242,-2520,-1260,-140,,,,,,,0x03,
8075,-969,-81,237,-2520,-1400,-280,,,,,,,0x03,
8085,-973,-79,241,-2380,-1610,-490,,,,,,,0x03,
8095,-972,-77,243,-2940,-1750,-700,,,,,,,0x03,
8104,-971,-83,243,-3640,-1750,-910,,,,,,,0x03,
8114,-970,-90,241,-3920,-1750,-1190,,,,,,,0x03,
8123,-967,-94,242,-3220,-1750,-1540,,,,,,,0x03,
8133,-967,-95,241,-2030,-1680,-1750,,,,,,,0x03,
8143,-969,-97,241,-840,-1610,-1820,,,,,,,0x03,
8152,-968,-101,240,140,-1540,-1820,,,,,,,0x03,
8162,-968,-105,240,1050,-1540,-1960,,,,,,,0x03,
8172,-966,-107,242,1960,-1400,-1960,,,,,,,0x03,
8181,-962,-106,245,2730,-1400,-2170,,,,,,,0x03,
8191,-965,-97,246,3290,-1400,-2240,,,,,,,0x03,
8201,-969,-88,247,3220,-1330,-2030,,,,,,,0x03,
8210,-969,-90,247,1750,-1260,-1680,,,,,,,0x03,
8220,-969,-96,245,70,-1120,-1470,,,,,,,0x03,
8230,-967,-108,245,-980,-1050,-1400,,,,,,,0x03,
8239,-965,-107,242,-980,-980,-1400,,,,,,,0x03,
8249,-968,-100,242,-420,-980,-1260,,,,,,,0x03,
8259,-968,-94,245,-420,-980,-1050,,,,,,,0x03,
8268,-967,-95,247,-1120,-980,-630,,,,,,,0x03,
8278,-966,-103,246,-1820,-910,-420,,,,,,,0x03,
8287,-963,-110,242,-1820,-770,-280,,,,,,,0x03,
8297,-965,-115,240,-910,-700,-210,,,,,,,0x03,
8307,-968,-111,244,490,-700,-210,,,,,,,0x03,
8316,-964,-100,247,1680,-630,-210,,,,,,,0x03,
8326,-965,-92,245,1890,-630,0,,,,,,,0x03,
8336,-970,-90,244,1400,-630,70,,,,,,,0x03,
8345,-970,-94,244,560,-630,70,,,,,,,0x03,
8355,-968,-96,243,350,-700,0,,,,,,,0x03,
8365,-968,-95,241,140,-700,-140,,,,,,,0x03,
8374,-971,-93,242,-70,-770,-280,,,,,,,0x03,
8384,-969,-87,244,-280,-840,-350,,,,,,,0x03,
8394,-969,-88,243,-700,-980,-490,,,,,,,0x03,
8403,-970,-94,244,-1470,-1050,-560,,,,,,,0x03,
8413,-970,-97,241,-1610,-1120,-630,,,,,,,0x03,
8423,-970,-97,240,-1120,-1120,-630,,,,,,,0x03,
8432,-969,-98,240,-630,-1120,-630,,,,,,,0x03,
8442,-967,-100,243,-280,-1120,-630,,,,,,,0x03,
8451,-967,-97,242,210,-1260,-770,,,,,,,0x03,
8461,-970,-100,243,560,-1260,-770,,,,,,,0x03,
8471,-965,-106,242,420,-1400,-700,,,,,,,0x03,
8480,-964,-112,241,630,-1470,-560,,,,,,,0x03,
8490,-966,-120,244,1540,-1330,-280,,,,,,,0x03,
8500,-961,-116,245,2800,-1330,-140,,,,,,,0x03,
8509,-962,-103,250,3990,-1400,140,,,,,,,0x03,
8519,-963,-102,252,3710,-1330,700,,,,,,,0x03,
8529,-961,-102,251,2520,-1190,770,,,,,,,0x03,
8538,-966,-103,252,2030,-1050,1050,,,,,,,0x03,
8548,-966,-104,251,1260,-840,1190,,,,,,,0x03,
8558,-968,-96,245,770,-630,1260,,,,,,,0x03,
8567,-970,-92,248,350,-490,1470,,,,,,,0x03,
8577,-967,-89,250,-910,-420,1610,,,,,,,0x03,
8587,-967,-87,248,-1820,-350,1750,,,,,,,0x03,
8596,-969,-90,247,-2520,-210,1750,,,,,,,0x03,
8606,-967,-94,247,-2870,-70,1610,,,,,,,0x03,
8615,-968,-98,244,-2870,0,1470,,,,,,,0x03,
8625,-970,-94,241,-2240,70,1190,,,,,,,0x03,
8635,-968,-87,244,-1400,0,980,,,,,,,0x03,
8644,-969,-82,245,-980,0,770,,,,,,,0x03,
8654,-971,-80,241,-980,-140,630,,,,,,,0x03,
8664,-971,-88,239,-1260,-350,350,,,,,,,0x03,
8673,-970,-95,237,-1050,-490,70,,,,,,,0x03,
8683,-970,-94,237,-70,-700,-140,,,,,,,0x03,
8693,-970,-93,240,980,-840,-350,,,,,,,0x03,
8702,-967,-94,243,1330,-1050,-420,,,,,,,0x03,
8712,-968,-98,244,1400,-1120,-420,,,,,,,0x03,
8722,-966,-101,245,1540,-1120,-420,,,,,,,0x03,
8731,-965,-104,245,1680,-1120,-210,,,,,,,0x03,
8741,-967,-105,244,1820,-1050,0,,,,,,,0x03,
8751,-968,-104,244,1960,-1050,210,,,,,,,0x03,
8760,-966,-100,248,1960,-1050,280,,,,,,,0x03,
8770,-967,-96,247,1610,-980,420,,,,,,,0x03,
8779,-970,-95,246,980,-910,630,,,,,,,0x03,
8789,-967,-96,246,70,-770,700,,,,,,,0x03,
8799,-962,-98,250,-630,-770,770,,,,,,,0x03,
8808,-966,-97,247,-770,-700,700,,,,,,,0x03,
8818,-970,-97,244,-700,-560,700,,,,,,,0x03,
8828,-969,-96,241,-560,-560,700,,,,,,,0x03,
8837,-969,-97,239,-280,-560,770,,,,,,,0x03,
8847,-972,-95,239,280,-630,770,,,,,,,0x03,
8857,-973,-90,241,1050,-630,350,,,,,,,0x03,
8866,-970,-87,244,1470,-560,70,,,,,,,0x03,
8876,-965,-83,245,1540,-630,-70,,,,,,,0x03,
8886,-966,-83,246,1820,-700,-280,,,,,,,0x03,
8895,-969,-86,245,2170,-770,-350,,,,,,,0x03,
8905,-970,-82,245,2660,-910,-560,,,,,,,0x03,
8915,-971,-76,246,2870,-980,-700,,,,,,,0x03,
8924,-970,-79,247,2170,-980,-700,,,,,,,0x03,
8934,-966,-85,247,1190,-980,-910,,,,,,,0x03,
8944,-966,-93,247,560,-910,-980,,,,,,,0x03,
8953,-963,-101,247,350,-840,-980,,,,,,,0x03,
8963,-963,-103,247,630,-840,-1050,,,,,,,0x03,
8972,-967,-101,246,1260,-840,-980,,,,,,,0x03,
8982,-966,-97,246,1400,-840,-770,,,,,,,0x03,
8992,-969,-97,245,910,-700,-490,,,,,,,0x03,
9001,-968,-98,249,350,-770,-280,,,,,,,0x03,
9011,-963,-100,252,0,-700,-70,,,,,,,0x03,
9021,-962,-97,251,-210,-490,140,,,,,,,0x03,
9030,-966,-94,247,-420,-420,420,,,,,,,0x03,
9040,-966,-96,246,-770,-420,630,,,,,,,0x03,
9050,-966,-98,248,-1190,-350,770,,,,,,,0x03,
9059,-965,-98,246,-1260,-280,910,,,,,,,0x03,
9069,-967,-94,244,-980,-280,910,,,,,,,0x03,
9079,-971,-89,244,-840,-280,980,,,,,,,0x03,
9088,-970,-86,244,-1330,-350,910,,,,,,,0x03,
9098,-970,-89,242,-2100,-350,910,,,,,,,0x03,
9108,-969,-92,242,-2380,-420,770,,,,,,,0x03,
9117,-970,-88,240,-1820,-490,490,,,,,,,0x03,
9127,-972,-82,243,-1330,-560,210,,,,,,,0x03,
9136,-970,-78,243,-1400,-700,70,,,,,,,0x03,
9146,-971,-81,243,-1610,-980,-70,,,,,,,0x03,
9156,-971,-90,240,-2100,-1050,-280,,,,,,,0x03,
9165,-971,-95,239,-2030,-1120,-630,,,,,,,0x03,
9175,-972,-92,240,-770,-1260,-980,,,,,,,0x03,
9185,-970,-83,243,210,-1400,-1330,,,,,,,0x03,
9194,-970,-79,243,210,-1540,-1400,,,,,,,0x03,
9204,-965,-90,241,-700,-1680,-1470,,,,,,,0x03,
9214,-966,-107,240,-1260,-1820,-1540,,,,,,,0x03,
9223,-971,-111,237,-70,-1890,-1750,,,,,,,0x03,
9233,-968,-104,244,1680,-1890,-1960,,,,,,,0x03,
9243,-962,-91,252,2590,-1890,-1890,,,,,,,0x03,
9252,-965,-80,254,2380,-1960,-1470,,,,,,,0x03,
9262,-966,-91,252,630,-1820,-1050,,,,,,,0x03,
9272,-965,-106,249,-700,-1610,-910,,,,,,,0x03,
9281,-966,-110,246,-280,-1470,-910,,,,,,,0x03,
9291,-967,-107,247,630,-1470,-840,,,,,,,0x03,
9300,-963,-98,251,1050,-1330,-630,,,,,,,0x03,
9310,-963,-92,252,700,-1120,-350,,,,,,,0x03,
9320,-964,-93,254,-490,-980,-70,,,,,,,0x03,
9329,-963,-101,251,-1540,-840,210,,,,,,,0x03,
9339,-965,-104,248,-1890,-630,280,,,,,,,0x03,
9349,-966,-101,247,-1400,-560,280,,,,,,,0x03,
9358,-965,-93,250,-910,-560,420,,,,,,,0x03,
9368,-964,-93,249,-1330,-490,560,,,,,,,0x03,
9378,-965,-95,248,-1890,-350,560,,,,,,,0x03,
9387,-967,-100,247,-1890,-280,630,,,,,,,0x03,
9397,-968,-102,246,-1470,-210,560,,,,,,,0x03,
9407,-967,-103,246,-840,-210,560,,,,,,,0x03,
9416,-966,-100,243,-70,-210,560,,,,,,,0x03,
9426,-969,-98,242,350,-210,560,,,,,,,0x03,
9436,-969,-99,242,420,-350,560,,,,,,,0x03,
9445,-969,-98,242,630,-490,350,,,,,,,0x03,
9455,-971,-93,241,840,-700,210,,,,,,,0x03,
9464,-971,-85,242,910,-840,0,,,,,,,0x03,
9474,-972,-78,246,490,-1050,-70,,,,,,,0x03,
9484,-969,-80,246,-700,-1260,-140,,,,,,,0x03,
9493,-967,-88,245,-1820,-1400,-140,,,,,,,0x03,
9503,-967,-94,243,-2030,-1470,-350,,,,,,,0x03,
9513,-969,-96,242,-1540,-1680,-630,,,,,,,0x03,
9522,-969,-91,242,-910,-1890,-770,,,,,,,0x03,
9532,-968,-88,245,-490,-2030,-980,,,,,,,0x03,
9542,-967,-90,249,-770,-2100,-1120,,,,,,,0x03,
9551,-968,-95,252,-980,-2030,-1190,,,,,,,0x03,
9561,-963,-100,248,-490,-2100,-1260,,,,,,,0x03,
9571,-963,-101,246,280,-2100,-1190,,,,,,,0x03,
9580,-968,-102,249,840,-2030,-1050,,,,,,,0x03,
9590,-967,-104,252,1120,-1960,-980,,,,,,,0x03,
9600,-964,-98,252,1330,-1750,-1050,,,,,,,0x03,
9609,-966,-96,252,1260,-1470,-980,,,,,,,0x03,
9619,-964,-97,255,700,-1190,-770,,,,,,,0x03,
9629,-962,-100,254,210,-840,-630,,,,,,,0x03,
9638,-965,-102,252,0,-700,-350,,,,,,,0x03,
9648,-966,-106,247,-210,-490,-210,,,,,,,0x03,
9657,-966,-105,249,-350,-420,0,,,,,,,0x03,
9667,-965,-99,251,-70,-490,140,,,,,,,0x03,
9677,-963,-95,252,-210,-420,280,,,,,,,0x03,
9686,-964,-93,252,-770,-420,490,,,,,,,0x03,
9696,-966,-97,251,-1330,-420,630,,,,,,,0x03,
9706,-964,-98,250,-1680,-420,770,,,,,,,0x03,
9715,-966,-100,250,-1610,-420,770,,,,,,,0x03,
9725,-965,-99,247,-1330,-420,700,,,,,,,0x03,
9735,-963,-100,247,-1260,-420,770,,,,,,,0x03,
9744,-966,-101,249,-1120,-490,700,,,,,,,0x03,
9754,-971,-96,244,-630,-560,560,,,,,,,0x03,
9764,-969,-91,243,-420,-630,420,,,,,,,0x03,
9773,-968,-89,250,-490,-700,420,,,,,,,0x03,
9783,-965,-92,252,-980,-700,420,,,,,,,0x03,
9793,-964,-94,249,-1260,-630,210,,,,,,,0x03,
9802,-970,-96,248,-770,-630,70,,,,,,,0x03,
9812,-967,-95,246,-350,-700,0,,,,,,,0x03,
9821,-965,-94,248,-280,-770,-70,,,,,,,0x03,
9831,-969,-98,248,-280,-700,-70,,,,,,,0x03,
9841,-967,-95,246,-70,-770,-210,,,,,,,0x03,
9850,-968,-89,246,350,-840,-210,,,,,,,0x03,
9860,-968,-88,249,140,-840,-140,,,,,,,0x03,
9870,-967,-89,251,-490,-770,-140,,,,,,,0x03,
9879,-963,-93,250,-1120,-770,-140,,,,,,,0x03,
9889,-966,-95,247,-1330,-630,-280,,,,,,,0x03,
9899,-971,-94,246,-1050,-630,-420,,,,,,,0x03,
9908,-969,-95,247,-980,-630,-490,,,,,,,0x03,
9918,-968,-92,245,-1050,-630,-630,,,,,,,0x03,
9928,-966,-95,247,-980,-700,-630,,,,,,,0x03,
9937,-961,-103,250,-1190,-700,-630,,,,,,,0x03,
9947,-964,-105,249,-700,-770,-700,,,,,,,0x03,
9957,-968,-103,246,350,-770,-630,,,,,,,0x03,
9966,-968,-98,247,980,-840,-560,,,,,,,0x03,
9976,-969,-95,248,1050,-840,-490,,,,,,,0x03,
9985,-969,-94,248,770,-910,-490,,,,,,,0x03,
9995,-965,-96,248,140,-910,-490,,,,,,,0x03,
10005,-966,-100,249,-280,-980,-560,,,,,,,0x03,
10014,-969,-97,248,-350,-910,-700,,,,,,,0x03,
10024,-965,-95,249,-560,-840,-700,,,,,,,0x03,
10034,-965,-96,250,-840,-840,-630,,,,,,,0x03,
10043,-970,-98,248,-1120,-840,-560,,,,,,,0x03,
10053,-969,-98,246,-1120,-840,-770,,,,,,,0x03,
10063,-965,-97,246,-770,-910,-840,,,,,,,0x03,
10072,-967,-93,247,-420,-980,-770,,,,,,,0x03,
10082,-968,-94,251,-560,-1050,-700,,,,,,,0x03,
10092,-963,-100,249,-840,-1050,-770,,,,,,,0x03,
10101,-965,-103,247,-700,-1050,-840,,,,,,,0x03,
10111,-967,-104,247,-280,-980,-770,,,,,,,0x03,
10121,-967,-102,247,140,-980,-770,,,,,,,0x03,
10130,-967,-98,247,560,-980,-770,,,,,,,0x03,
10140,-967,-95,249,700,-1050,-700,,,,,,,0x03,
10149,-966,-94,251,350,-1050,-700,,,,,,,0x03,
10159,-963,-95,253,-420,-1050,-700,,,,,,,0x03,
10169,-964,-100,253,-1190,-980,-700,,,,,,,0x03,
10178,-967,-103,249,-1190,-840,-840,,,,,,,0x03,
10188,-965,-104,247,-910,-840,-770,,,,,,,0x03,
10198,-965,-103,248,-490,-910,-700,,,,,,,0x03,
10207,-965,-103,250,-420,-910,-560,,,,,,,0x03,
10217,-964,-106,251,-630,-910,-420,,,,,,,0x03,
10227,-965,-108,249,-560,-840,-420,,,,,,,0x03,
10236,-965,-110,250,-140,-840,-280,,,,,,,0x03,
10246,-962,-110,252,350,-700,-70,,,,,,,0x03,
10256,-965,-111,250,840,-490,140,,,,,,,0x03,
10265,-964,-107,248,1120,-490,280,,,,,,,0x03,
10275,-965,-102,251,1190,-420,350,,,,,,,0x03,
10285,-967,-97,252,840,-420,490,,,,,,,0x03,
10294,-967,-94,251,210,-350,630,,,,,,,0x03,
10304,-965,-96,250,-560,-420,700,,,,,,,0x03,
10313,-967,-99,248,-1120,-420,700,,,,,,,0x03,
10323,-967,-100,249,-1330,-490,630,,,,,,,0x03,
10333,-968,-98,251,-1330,-490,630,,,,,,,0x03,
10342,-964,-99,250,-1400,-420,560,,,,,,,0x03,
10352,-964,-97,247,-1330,-420,490,,,,,,,0x03,
10362,-967,-98,245,-1190,-490,560,,,,,,,0x03,
10371,-967,-104,245,-1120,-630,560,,,,,,,0x03,
10381,-966,-103,246,-490,-770,630,,,,,,,0x03,
10391,-966,-101,245,350,-700,630,,,,,,,0x03,
10400,-967,-100,246,840,-770,420,,,,,,,0x03,
10410,-969,-98,244,1050,-770,490,,,,,,,0x03,
10420,-967,-105,247,1050,-770,420,,,,,,,0x03,
10429,-966,-107,244,1400,-840,280,,,,,,,0x03,
10439,-966,-104,248,1960,-700,280,,,,,,,0x03,
10449,-964,-100,250,2170,-700,210,,,,,,,0x03,
10458,-964,-97,253,2030,-700,350,,,,,,,0x03,
10468,-965,-94,252,1820,-630,420,,,,,,,0x03,
10478,-964,-88,254,1610,-630,560,,,,,,,0x03,
10487,-964,-86,255,1190,-700,630,,,,,,,0x03,
10497,-965,-90,252,-70,-630,770,,,,,,,0x03,
10506,-967,-101,251,-1050,-700,770,,,,,,,0x03,
10516,-967,-105,249,-910,-630,770,,,,,,,0x03,
10526,-967,-103,250,-140,-490,700,,,,,,,0x03,
10535,-963,-100,253,70,-350,700,,,,,,,0x03,
10545,-962,-100,252,-140,-350,770,,,,,,,0x03,
10555,-965,-101,250,-210,-210,910,,,,,,,0x03,
10564,-968,-100,247,-140,-70,1050,,,,,,,0x03,
10574,-968,-96,248,70,0,1120,,,,,,,0x03,
10584,-965,-95,250,-140,0,1260,,,,,,,0x03,
10593,-967,-89,249,-350,-70,1190,,,,,,,0x03,
10603,-969,-86,249,-700,-70,1190,,,,,,,0x03,
10613,-967,-88,248,-1330,-70,1050,,,,,,,0x03,
10622,-969,-92,245,-1610,-140,910,,,,,,,0x03,
10632,-970,-95,243,-1470,-210,770,,,,,,,0x03,
10642,-967,-99,243,-1120,-350,700,,,,,,,0x03,
10651,-968,-100,245,-630,-420,700,,,,,,,0x03,
10661,-965,-98,246,70,-490,770,,,,,,,0x03,
10670,-967,-93,244,630,-490,700,,,,,,,0x03,
10680,-970,-94,246,770,-630,700,,,,,,,0x03,
10690,-968,-91,246,840,-700,630,,,,,,,0x03,
10699,-968,-89,247,700,-770,490,,,,,,,0x03,
10709,-968,-90,247,420,-840,490,,,,,,,0x03,
10719,-967,-88,247,210,-910,350,,,,,,,0x03,
10728,-966,-90,250,-140,-910,350,,,,,,,0x03,
10738,-967,-92,249,-560,-910,280,,,,,,,0x03,
10748,-966,-94,247,-630,-840,140,,,,,,,0x03,
10757,-965,-93,246,-420,-910,70,,,,,,,0x03,
10767,-967,-93,248,-420,-910,140,,,,,,,0x03,
10777,-968,-95,247,-490,-840,140,,,,,,,0x03,
10786,-968,-95,249,-280,-840,140,,,,,,,0x03,
10796,-965,-93,250,-70,-840,70,,,,,,,0x03,
10806,-965,-90,249,140,-770,0,,,,,,,0x03,
10815,-966,-93,249,0,-770,70,,,,,,,0x03,
10825,-968,-97,249,-140,-700,0,,,,,,,0x03,
10834,-970,-94,247,350,-630,-140,,,,,,,0x03,
10844,-968,-88,246,700,-630,-210,,,,,,,0x03,
10854,-962,-87,248,420,-560,-280,,,,,,,0x03,
10863,-968,-87,248,-140,-560,-280,,,,,,,0x03,
10873,-972,-89,247,-560,-630,-420,,,,,,,0x03,
10883,-970,-88,246,-770,-700,-630,,,,,,,0x03,
10892,-967,-88,247,-1190,-840,-700,,,,,,,0x03,
10902,-967,-91,246,-1540,-910,-770,,,,,,,0x03,
10912,-970,-91,245,-1330,-1050,-910,,,,,,,0x03,
10921,-970,-90,244,-980,-1190,-1050,,,,,,,0x03,
10931,-968,-88,243,-770,-1260,-1260,,,,,,,0x03,
10941,-969,-91,246,-840,-1400,-1400,,,,,,,0x03,
10950,-968,-94,248,-910,-1330,-1680,,,,,,,0x03,
10960,-968,-93,247,-490,-1330,-1890,,,,,,,0x03,
10970,-966,-94,248,-140,-1400,-1960,,,,,,,0x03,
10979,-963,-93,247,70,-1540,-2100,,,,,,,0x03,
10989,-968,-92,247,490,-1680,-2240,,,,,,,0x03,
10998,-970,-97,247,490,-1750,-2240,,,,,,,0x03,
11008,-967,-101,246,560,-1680,-2380,,,,,,,0x03,
11018,-965,-104,250,980,-1680,-2450,,,,,,,0x03,
11027,-964,-100,252,1470,-1680,-2450,,,,,,,0x03,
11037,-965,-95,254,1680,-1610,-2450,,,,,,,0x03,
11047,-963,-97,256,910,-1610,-2450,,,,,,,0x03,
11056,-965,-99,250,140,-1540,-2520,,,,,,,0x03,
11066,-968,-98,249,-140,-1470,-2450,,,,,,,0x03,
11076,-968,-99,248,-490,-1400,-2380,,,,,,,0x03,
11085,-968,-96,249,-770,-1400,-2450,,,,,,,0x03,
11095,-968,-94,249,-910,-1470,-2660,,,,,,,0x03,
11105,-966,-91,251,-1190,-1540,-2800,,,,,,,0x03,
11114,-963,-95,254,-1680,-1540,-2870,,,,,,,0x03,
11124,-964,-101,252,-2100,-1540,-3080,,,,,,,0x03,
11134,-966,-105,249,-1890,-1610,-3570,,,,,,,0x03,
11143,-967,-105,246,-910,-1470,-3990,,,,,,,0x03,
11153,-967,-96,246,280,-1610,-4270,,,,,,,0x03,
11163,-966,-91,248,770,-1680,-4200,,,,,,,0x03,
11172,-966,-96,249,490,-1890,-4130,,,,,,,0x03,
11182,-967,-106,247,70,-1960,-4200,,,,,,,0x03,
11191,-964,-115,249,560,-2100,-4340,,,,,,,0x03,
11201,-963,-117,251,1680,-2170,-4480,,,,,,,0x03,
11211,-965,-115,251,2730,-2240,-4480,,,,,,,0x03,
11220,-964,-113,255,3220,-2240,-4340,,,,,,,0x03,
11230,-959,-111,258,2940,-2170,-3990,,,,,,,0x03,
11240,-962,-112,257,2380,-2100,-3570,,,,,,,0x03,
11249,-961,-115,260,1610,-1960,-3150,,,,,,,0x03,
11259,-961,-115,257,700,-1820,-2940,,,,,,,0x03,
11269,-962,-115,256,70,-1750,-2660,,,,,,,0x03,
11278,-961,-119,257,-1050,-1680,-2310,,,,,,,0x03,
11288,-958,-124,258,-1820,-1610,-1960,,,,,,,0x03,
11298,-958,-124,260,-1540,-1540,-1680,,,,,,,0x03,
11307,-959,-116,257,-1190,-1610,-1400,,,,,,,0x03,
11317,-963,-116,256,-1400,-1610,-980,,,,,,,0x03,
11327,-962,-118,252,-1890,-1540,-630,,,,,,,0x03,
11336,-965,-120,252,-2030,-1540,-350,,,,,,,0x03,
11346,-967,-118,252,-1820,-1540,-280,,,,,,,0x03,
11355,-964,-115,252,-1330,-1470,-350,,,,,,,0x03,
11365,-961,-117,253,-1400,-1400,-350,,,,,,,0x03,
11375,-960,-116,254,-1190,-1330,-560,,,,,,,0x03,
11384,-965,-109,256,-140,-1400,-840,,,,,,,0x03,
11394,-966,-103,257,350,-1400,-1050,,,,,,,0x03,
11404,-963,-106,256,-210,-1330,-1050,,,,,,,0x03,
11413,-962,-115,255,-980,-1260,-1190,,,,,,,0x03,
11423,-966,-124,255,-770,-1190,-1400,,,,,,,0x03,
11433,-964,-124,253,280,-1050,-1540,,,,,,,0x03,
11442,-960,-124,255,1190,-910,-1400,,,,,,,0x03,
11452,-959,-125,256,1750,-910,-1330,,,,,,,0x03,
11462,-960,-129,257,2310,-770,-1120,,,,,,,0x03,
11471,-960,-133,256,2730,-700,-910,,,,,,,0x03,
11481,-957,-132,257,3640,-560,-630,,,,,,,0x03,
11491,-959,-127,261,4130,-560,-210,,,,,,,0x03,
11500,-959,-122,263,3570,-420,350,,,,,,,0x03,
11510,-959,-120,264,2590,-280,840,,,,,,,0x03,
11519,-958,-127,264,1330,-70,1400,,,,,,,0x03,
11529,-956,-128,259,490,70,1890,,,,,,,0x03,
11539,-962,-127,258,420,210,2380,,,,,,,0x03,
11548,-961,-126,259,140,350,2800,,,,,,,0x03,
11558,-957,-125,258,-490,560,3220,,,,,,,0x03,
11568,-958,-124,258,-700,630,3500,,,,,,,0x03,
11577,-958,-121,258,-770,700,3780,,,,,,,0x03,
11587,-961,-115,256,-770,770,3990,,,,,,,0x03,
11597,-966,-108,254,-630,840,4200,,,,,,,0x03,
11606,-964,-107,257,-1050,910,4340,,,,,,,0x03,
11616,-962,-108,255,-1540,980,4270,,,,,,,0x03,
11626,-966,-101,250,-1050,1050,3990,,,,,,,0x03,
11635,-970,-96,248,-280,980,3710,,,,,,,0x03,
11645,-966,-97,251,-350,910,3430,,,,,,,0x03,
11655,-966,-99,252,-420,910,3220,,,,,,,0x03,
11664,-967,-94,250,560,840,2730,,,,,,,0x03,
11674,-965,-92,253,1190,700,2520,,,,,,,0x03,
11683,-963,-99,252,840,700,2380,,,,,,,0x03,
11693,-967,-104,248,910,630,2100,,,,,,,0x03,
11703,-969,-104,248,1820,490,1820,,,,,,,0x03,
11712,-966,-97,249,2520,350,1610,,,,,,,0x03,
11722,-965,-93,252,2380,210,1610,,,,,,,0x03,
11732,-966,-97,254,1610,140,1750,,,,,,,0x03,
11741,-964,-107,251,700,210,1890,,,,,,,0x03,
11751,-963,-113,250,420,280,1960,,,,,,,0x03,
11761,-963,-113,252,910,280,2030,,,,,,,0x03,
11770,-961,-112,256,1190,280,2240,,,,,,,0x03,
11780,-961,-106,254,1260,350,2520,,,,,,,0x03,
11790,-965,-104,251,980,350,2870,,,,,,,0x03,
11799,-966,-103,249,490,350,3220,,,,,,,0x03,
11809,-964,-100,252,-70,280,3500,,,,,,,0x03,
11819,-967,-96,252,-630,210,3640,,,,,,,0x03,
11828,-968,-94,250,-1400,280,3780,,,,,,,0x03,
11838,-968,-95,251,-2030,210,3780,,,,,,,0x03,
11847,-968,-92,248,-2450,280,3640,,,,,,,0x03,
11857,-969,-91,246,-2590,350,3570,,,,,,,0x03,
11867,-968,-94,244,-2660,420,3290,,,,,,,0x03,
11876,-969,-92,246,-2030,420,2800,,,,,,,0x03,
11886,-971,-82,246,-840,280,2380,,,,,,,0x03,
11896,-969,-76,247,-280,210,1960,,,,,,,0x03,
11905,-970,-74,246,-490,0,1750,,,,,,,0x03,
11915,-973,-82,244,-1120,-210,1470,,,,,,,0x03,
11925,-970,-91,239,-1120,-280,980,,,,,,,0x03,
11934,-968,-97,244,-70,-490,630,,,,,,,0x03,
11944,-967,-97,243,1120,-630,350,,,,,,,0x03,
11954,-967,-99,242,1890,-630,280,,,,,,,0x03,
11963,-965,-104,246,2520,-700,280,,,,,,,0x03,
11973,-962,-102,249,3430,-770,280,,,,,,,0x03,
11983,-962,-97,251,3990,-840,420,,,,,,,0x03,
11992,-965,-94,251,3780,-840,700,,,,,,,0x03,
12002,-967,-93,249,3010,-770,770,,,,,,,0x03,
12012,-970,-90,250,2170,-700,770,,,,,,,0x03,
12021,-969,-84,252,1050,-630,840,,,,,,,0x03,
12031,-965,-78,253,-70,-630,840,,,,,,,0x03,
12040,-967,-74,254,-1400,-700,840,,,,,,,0x03,
12050,-968,-76,254,-2940,-630,700,,,,,,,0x03,
12060,-967,-80,251,-4340,-560,420,,,,,,,0x03,
12069,-970,-83,247,-4760,-490,210,,,,,,,0x03,
12079,-970,-87,245,-4410,-560,-70,,,,,,,0x03,
12089,-966,-84,246,-3640,-560,-490,,,,,,,0x03,
12098,-968,-83,246,-2660,-560,-840,,,,,,,0x03,
12108,-969,-85,244,-1960,-560,-1330,,,,,,,0x03,
12118,-966,-86,243,-980,-560,-1750,,,,,,,0x03,
12127,-969,-87,242,140,-700,-2170,,,,,,,0x03,
12137,-969,-89,242,1120,-840,-2660,,,,,,,0x03,
12147,-967,-92,243,1750,-910,-3010,,,,,,,0x03,
12156,-968,-89,242,2520,-1120,-3500,,,,,,,0x03,
12166,-970,-86,246,3080,-1330,-3710,,,,,,,0x03,
12176,-970,-83,247,2730,-1610,-3710,,,,,,,0x03,
12185,-971,-85,248,1820,-1680,-3640,,,,,,,0x03,
12195,-968,-93,249,700,-1750,-3710,,,,,,,0x03,
12204,-968,-95,250,0,-1820,-3850,,,,,,,0x03,
12214,-967,-96,250,-420,-1820,-3780,,,,,,,0x03,
12224,-965,-97,248,-1050,-1820,-3500,,,,,,,0x03,
12233,-967,-100,249,-1610,-1820,-3360,,,,,,,0x03,
12243,-964,-107,251,-1960,-1820,-3150,,,,,,,0x03,
12253,-960,-109,251,-2170,-1820,-2870,,,,,,,0x03,
12262,-961,-113,251,-2100,-1680,-2520,,,,,,,0x03,
12272,-964,-117,252,-1750,-1540,-2310,,,,,,,0x03,
12282,-962,-113,251,-980,-1470,-2240,,,,,,,0x03,
12291,-964,-108,251,-350,-1400,-2030,,,,,,,0x03,
12301,-969,-101,250,0,-1330,-1820,,,,,,,0x03,
12311,-967,-95,249,-210,-1400,-1820,,,,,,,0x03,
12320,-966,-94,251,-910,-1470,-1890,,,,,,,0x03,
12330,-965,-97,253,-1820,-1610,-1960,,,,,,,0x03,
12340,-967,-97,251,-2310,-1610,-2100,,,,,,,0x03,
12349,-960,-100,253,-2520,-1540,-2240,,,,,,,0x03,
12359,-960,-103,253,-2030,-1330,-2450,,,,,,,0x03,
12368,-967,-106,252,-1610,-1400,-2450,,,,,,,0x03,
12378,-967,-114,248,-1050,-1400,-2310,,,,,,,0x03,
12388,-961,-120,247,0,-1330,-2310,,,,,,,0x03,
12397,-959,-123,250,1680,-1330,-2170,,,,,,,0x03,
12407,-963,-123,252,3290,-1190,-2100,,,,,,,0x03,
12417,-965,-122,252,4410,-1050,-1890,,,,,,,0x03,
12426,-966,-119,251,5320,-910,-1820,,,,,,,0x03,
12436,-965,-116,251,5740,-700,-1890,,,,,,,0x03,
12446,-966,-109,254,5670,-630,-1890,,,,,,,0x03,
12455,-964,-111,256,4900,-490,-1540,,,,,,,0x03,
12465,-962,-118,255,3570,-280,-1330,,,,,,,0x03,
12475,-961,-125,255,2800,-70,-1120,,,,,,,0x03,
12484,-958,-125,254,2940,-70,-840,,,,,,,0x03,
12494,-960,-119,253,3290,-70,-280,,,,,,,0x03,
12504,-960,-117,254,2870,0,490,,,,,,,0x03,
12513,-961,-117,255,1820,-70,1120,,,,,,,0x03,
12523,-965,-115,253,840,-70,1610,,,,,,,0x03,
12532,-965,-114,253,-70,-140,2100,,,,,,,0x03,
12542,-961,-107,253,-910,-70,2450,,,,,,,0x03,
12552,-959,-104,255,-1890,-210,2870,,,,,,,0x03,
12561,-959,-106,259,-3220,-140,3150,,,,,,,0x03,
12571,-962,-108,253,-3850,-140,3290,,,,,,,0x03,
12581,-968,-109,249,-3360,-140,3290,,,,,,,0x03,
12590,-966,-108,249,-2660,0,3360,,,,,,,0x03,
12600,-966,-100,248,-1890,70,3150,,,,,,,0x03,
12610,-971,-93,251,-980,70,2940,,,,,,,0x03,
12619,-968,-90,251,-980,140,2660,,,,,,,0x03,
12629,-965,-91,250,-1400,140,2520,,,,,,,0x03,
12639,-967,-99,250,-1610,140,2310,,,,,,,0x03,
12648,-968,-108,246,-1400,210,1890,,,,,,,0x03,
12658,-967,-110,244,70,280,1470,,,,,,,0x03,
12668,-968,-104,249,1960,280,1120,,,,,,,0x03,
12677,-966,-95,248,3010,350,840,,,,,,,0x03,
12687,-965,-91,249,3430,350,840,,,,,,,0x03,
12697,-966,-92,250,2870,280,980,,,,,,,0x03,
12706,-964,-96,250,2310,280,980,,,,,,,0x03,
12716,-965,-101,249,1890,210,1190,,,,,,,0x03,
12725,-966,-109,247,1540,210,1330,,,,,,,0x03,
12735,-965,-118,244,1260,210,1400,,,,,,,0x03,
12745,-965,-120,244,1820,350,1330,,,,,,,0x03,
12754,-966,-121,242,2800,350,1400,,,,,,,0x03,
12764,-966,-124,239,3500,490,1610,,,,,,,0x03,
12774,-966,-122,240,4690,630,1820,,,,,,,0x03,
12783,-962,-107,247,6440,630,2030,,,,,,,0x03,
12793,-959,-98,252,7140,560,2380,,,,,,,0x03,
12803,-958,-96,257,6580,630,2800,,,,,,,0x03,
12812,-963,-101,256,5740,630,2940,,,,,,,0x03,
12822,-967,-95,250,5600,770,2520,,,,,,,0x03,
12832,-971,-70,251,6720,700,2730,,,,,,,0x03,
12841,-970,-70,250,5180,770,3080,,,,,,,0x03,
12851,-968,-72,242,2520,770,2870,,,,,,,0x03,
12861,-976,-80,243,1400,630,2450,,,,,,,0x03,
12870,-975,-78,244,490,630,1680,,,,,,,0x03,
12880,-972,-75,243,-630,630,1190,,,,,,,0x03,
12889,-974,-70,245,-1190,560,770,,,,,,,0x03,
12899,-971,-63,248,-1330,420,490,,,,,,,0x03,
12909,-969,-55,254,-1190,210,210,,,,,,,0x03,
12918,-970,-51,255,-1540,-70,140,,,,,,,0x03,
12928,-966,-59,251,-2310,-140,-210,,,,,,,0x03,
12938,-970,-76,244,-2870,-280,-630,,,,,,,0x03,
12947,-970,-96,239,-2310,-350,-980,,,,,,,0x03,
12957,-971,-102,237,-210,-630,-1400,,,,,,,0x03,
12967,-972,-95,242,2380,-770,-1680,,,,,,,0x03,
12976,-970,-82,243,3570,-980,-1960,,,,,,,0x03,
12986,-966,-78,244,3080,-1120,-1820,,,,,,,0x03,
12996,-967,-93,243,1400,-1260,-1610,,,,,,,0x03,
13005,-969,-106,241,420,-1260,-1540,,,,,,,0x03,
13015,-969,-110,243,910,-1330,-1540,,,,,,,0x03,
13025,-967,-99,243,1750,-1330,-1540,,,,,,,0x03,
13034,-965,-90,247,1540,-1400,-1190,,,,,,,0x03,
13044,-965,-93,251,280,-1470,-840,,,,,,,0x03,
13053,-967,-93,250,-490,-1470,-630,,,,,,,0x03,
13063,-968,-90,249,-560,-1470,-490,,,,,,,0x03,
13073,-966,-87,248,-840,-1400,-280,,,,,,,0x03,
13082,-969,-86,246,-1610,-1330,-140,,,,,,,0x03,
13092,-971,-91,247,-2450,-1260,-140,,,,,,,0x03,
13102,-966,-90,246,-2800,-1260,-210,,,,,,,0x03,
13111,-965,-89,244,-2870,-1260,-210,,,,,,,0x03,
13121,-968,-101,241,-3290,-1260,-210,,,,,,,0x03,
13131,-970,-112,239,-2870,-1260,-350,,,,,,,0x03,
13140,-968,-114,240,-910,-1260,-700,,,,,,,0x03,
13150,-965,-99,245,1610,-1190,-1050,,,,,,,0x03,
13160,-967,-83,252,3080,-1260,-1050,,,,,,,0x03,
13169,-967,-75,258,2590,-1190,-980,,,,,,,0x03,
13179,-965,-76,253,1260,-1120,-980,,,,,,,0x03,
13189,-965,-89,247,70,-1120,-1050,,,,,,,0x03,
13198,-967,-105,242,-630,-1050,-1190,,,,,,,0x03,
13208,-969,-110,243,280,-1120,-1330,,,,,,,0x03,
13217,-970,-96,245,2030,-1190,-1610,,,,,,,0x03,
13227,-969,-81,247,2800,-1260,-1680,,,,,,,0x03,
13237,-967,-80,251,1540,-1330,-1540,,,,,,,0x03,
13246,-968,-94,251,-630,-1400,-1260,,,,,,,0x03,
13256,-966,-102,254,-1400,-1330,-1260,,,,,,,0x03,
13266,-964,-99,250,-770,-1330,-1330,,,,,,,0x03,
13275,-963,-99,249,-700,-1120,-1050,,,,,,,0x03,
13285,-965,-106,250,-1050,-1050,-910,,,,,,,0x03,
13295,-967,-111,248,-770,-980,-840,,,,,,,0x03,
13304,-966,-104,245,280,-910,-840,,,,,,,0x03,
13314,-967,-95,246,1120,-910,-630,,,,,,,0x03,
13324,-968,-92,249,910,-980,-560,,,,,,,0x03,
13333,-969,-91,248,140,-910,-630,,,,,,,0x03,
13343,-969,-86,249,-140,-980,-910,,,,,,,0x03,
13353,-964,-76,254,-560,-1050,-1050,,,,,,,0x03,
13362,-967,-76,254,-1750,-1190,-980,,,,,,,0x03,
13372,-971,-88,249,-3430,-1260,-1050,,,,,,,0x03,
13381,-965,-100,244,-3850,-1330,-1190,,,,,,,0x03,
13391,-965,-105,244,-2730,-1330,-1540,,,,,,,0x03,
13401,-967,-103,244,-1330,-1400,-1680,,,,,,,0x03,
13410,-968,-102,245,-350,-1400,-1820,,,,,,,0x03,
13420,-967,-100,246,420,-1400,-2100,,,,,,,0x03,
13430,-965,-93,251,1050,-1400,-2170,,,,,,,0x03,
13439,-969,-87,252,1330,-1400,-2170,,,,,,,0x03,
13449,-965,-94,250,140,-1470,-2100,,,,,,,0x03,
13459,-964,-113,245,-1050,-1400,-2170,,,,,,,0x03,
13468,-968,-122,247,-420,-1330,-2380,,,,,,,0x03,
13478,-966,-112,249,1540,-1330,-2450,,,,,,,0x03,
13488,-964,-98,250,2660,-1400,-2310,,,,,,,0x03,
13497,-963,-95,251,1820,-1330,-2030,,,,,,,0x03,
13507,-965,-106,255,280,-1330,-1680,,,,,,,0x03,
13517,-961,-105,255,-560,-1190,-1680,,,,,,,0x03,
13526,-963,-96,257,-70,-1120,-1680,,,,,,,0x03,
13536,-969,-86,256,-350,-1120,-1610,,,,,,,0x03,
13546,-968,-80,253,-1400,-1120,-1260,,,,,,,0x03,
13555,-966,-95,250,-3360,-1190,-1120,,,,,,,0x03,
13565,-967,-103,246,-4340,-1190,-1400,,,,,,,0x03,
13574,-968,-102,248,-3360,-1400,-1680,,,,,,,0x03,
13584,-968,-86,246,-2310,-1750,-2030,,,,,,,0x03,
13594,-971,-80,245,-2450,-1960,-2030,,,,,,,0x03,
13603,-969,-89,246,-4060,-2170,-2100,,,,,,,0x03,
13613,-969,-99,246,-4690,-2380,-2380,,,,,,,0x03,
13623,-968,-105,244,-4060,-2590,-2730,,,,,,,0x03,
13632,-965,-106,246,-2730,-2730,-3080,,,,,,,0x03,
13642,-962,-108,252,-1540,-2940,-3290,,,,,,,0x03,
13652,-965,-114,252,-980,-2940,-3500,,,,,,,0x03,
13661,-965,-116,251,-140,-2870,-3640,,,,,,,0x03,
13671,-962,-109,256,1190,-2800,-3710,,,,,,,0x03,
13681,-963,-102,258,1400,-2800,-3640,,,,,,,0x03,
13690,-961,-105,260,280,-2730,-3430,,,,,,,0x03,
13700,-956,-117,261,-1050,-2590,-3360,,,,,,,0x03,
13710,-958,-131,256,-1680,-2380,-3220,,,,,,,0x03,
13719,-963,-147,248,-1540,-1960,-3080,,,,,,,0x03,
13729,-960,-158,250,-420,-1610,-2730,,,,,,,0x03,
13738,-956,-150,257,1890,-1470,-2450,,,,,,,0x03,
13748,-957,-128,260,4130,-1330,-1960,,,,,,,0x03,
13758,-959,-115,262,4200,-1120,-1260,,,,,,,0x03,
13767,-961,-111,262,2240,-910,-630,,,,,,,0x03,
13777,-962,-109,261,420,-840,-280,,,,,,,0x03,
13787,-962,-103,261,-770,-840,70,,,,,,,0x03,
13796,-963,-101,261,-2240,-770,280,,,,,,,0x03,
13806,-962,-105,257,-3780,-630,350,,,,,,,0x03,
13816,-963,-110,254,-4480,-630,70,,,,,,,0x03,
13825,-964,-108,252,-4060,-770,-350,,,,,,,0x03,
13835,-964,-104,255,-3500,-910,-560,,,,,,,0x03,
13845,-962,-96,254,-2940,-1050,-770,,,,,,,0x03,
13854,-966,-94,254,-2800,-1190,-980,,,,,,,0x03,
13864,-970,-99,248,-3220,-1330,-1330,,,,,,,0x03,
13874,-966,-107,249,-2940,-1470,-1750,,,,,,,0x03,
13883,-965,-116,251,-2450,-1610,-2170,,,,,,,0x03,
13893,-965,-113,249,-910,-1680,-2660,,,,,,,0x03,
13902,-964,-110,253,560,-1820,-2940,,,,,,,0x03,
13912,-960,-116,258,1050,-1890,-3080,,,,,,,0x03,
13922,-955,-126,261,1330,-1820,-2870,,,,,,,0x03,
13931,-955,-137,259,1960,-1610,-2730,,,,,,,0x03,
13941,-956,-142,256,3150,-1400,-2520,,,,,,,0x03,
13951,-957,-149,258,4060,-1190,-2100,,,,,,,0x03,
13960,-958,-157,263,4480,-910,-1400,,,,,,,0x03,
13970,-956,-159,264,4970,-490,-490,,,,,,,0x03,
13980,-950,-157,264,5810,-140,350,,,,,,,0x03,
13989,-953,-146,265,6230,140,1400,,,,,,,0x03,
13999,-956,-140,266,5390,420,2590,,,,,,,0x03,
14009,-956,-136,267,3780,770,3640,,,,,,,0x03,
14018,-956,-130,267,1890,1190,4550,,,,,,,0x03,
14028,-955,-124,265,-280,1470,5250,,,,,,,0x03,
14038,-965,-114,260,-2100,1680,5740,,,,,,,0x03,
14047,-964,-108,258,-4060,1750,6090,,,,,,,0x03,
14057,-963,-101,256,-5950,1750,6090,,,,,,,0x03,
14066,-970,-90,251,-7070,1680,5740,,,,,,,0x03,
14076,-971,-81,247,-7840,1470,5250,,,,,,,0x03,
14086,-972,-82,244,-8680,1190,4830,,,,,,,0x03,
14095,-972,-88,244,-8750,840,4200,,,,,,,0x03,
14105,-975,-93,239,-7630,560,3290,,,,,,,0x03,
14115,-969,-98,238,-5460,280,2310,,,,,,,0x03,
14124,-969,-100,239,-2450,0,1470,,,,,,,0x03,
14134,-971,-103,240,280,-350,700,,,,,,,0x03,
14144,-968,-102,241,3290,-560,-70,,,,,,,0x03,
14153,-969,-101,245,6090,-840,-770,,,,,,,0x03,
14163,-968,-101,248,7700,-980,-1190,,,,,,,0x03,
14173,-964,-103,251,8540,-1190,-1470,,,,,,,0x03,
14182,-963,-108,257,8400,-1260,-1470,,,,,,,0x03,
14192,-963,-114,255,7630,-1120,-1540,,,,,,,0x03,
14202,-964,-117,254,7140,-1050,-1540,,,,,,,0x03,
14211,-964,-114,257,6720,-910,-1330,,,,,,,0x03,
14221,-961,-110,259,5390,-770,-770,,,,,,,0x03,
14231,-959,-112,263,3290,-700,0,,,,,,,0x03,
14240,-956,-125,266,770,-630,840,,,,,,,0x03,
14250,-955,-128,262,-770,-350,1470,,,,,,,0x03,
14259,-959,-124,259,-1050,-70,2170,,,,,,,0x03,
14269,-965,-117,259,-1610,70,2730,,,,,,,0x03,
14279,-962,-106,258,-2450,210,3220,,,,,,,0x03,
14288,-961,-100,256,-3500,280,3640,,,,,,,0x03,
14298,-963,-96,256,-4760,350,3780,,,,,,,0x03,
14308,-965,-97,252,-5460,420,3640,,,,,,,0x03,
14317,-966,-93,248,-5460,280,3290,,,,,,,0x03,
14327,-973,-86,244,-4830,210,2800,,,,,,,0x03,
14337,-973,-80,244,-4340,0,2170,,,,,,,0x03,
14346,-970,-78,245,-4130,-280,1470,,,,,,,0x03,
14356,-971,-78,242,-3430,-490,700,,,,,,,0x03,
14366,-974,-84,240,-2730,-700,0,,,,,,,0x03,
14375,-972,-90,243,-1610,-910,-770,,,,,,,0x03,
14385,-969,-88,247,210,-1190,-1680,,,,,,,0x03,
14395,-967,-88,248,1540,-1400,-2380,,,,,,,0x03,
14404,-967,-95,244,2310,-1540,-2940,,,,,,,0x03,
14414,-968,-109,245,2870,-1610,-3290,,,,,,,0x03,
14423,-967,-119,249,3710,-1750,-3710,,,,,,,0x03,
14433,-966,-117,249,5390,-1680,-4060,,,,,,,0x03,
14443,-962,-110,254,6650,-1680,-3920,,,,,,,0x03,
14452,-959,-103,259,6300,-1680,-3500,,,,,,,0x03,
14462,-962,-104,262,4900,-1750,-2940,,,,,,,0x03,
14472,-962,-114,258,2730,-1680,-2310,,,,,,,0x03,
14481,-958,-119,259,980,-1540,-1890,,,,,,,0x03,
14491,-959,-120,259,140,-1400,-1540,,,,,,,0x03,
14501,-967,-111,259,-630,-1260,-1120,,,,,,,0x03,
14510,-965,-105,258,-2100,-1190,-770,,,,,,,0x03,
14520,-962,-102,258,-3710,-1190,-490,,,,,,,0x03,
14530,-963,-103,257,-5250,-1120,-350,,,,,,,0x03,
14539,-967,-100,254,-6160,-1190,-350,,,,,,,0x03,
14549,-967,-99,252,-6440,-1260,-350,,,,,,,0x03,
14559,-964,-102,252,-6720,-1260,-560,,,,,,,0x03,
14568,-965,-104,250,-6370,-1400,-980,,,,,,,0x03,
14578,-967,-105,249,-4970,-1470,-1400,,,,,,,0x03,
14587,-966,-106,245,-3570,-1540,-1890,,,,,,,0x03,
14597,-968,-108,245,-2100,-1680,-2240,,,,,,,0x03,
14607,-968,-110,246,-420,-1820,-2660,,,,,,,0x03,
14616,-964,-109,249,1260,-1960,-3080,,,,,,,0x03,
14626,-965,-107,251,2450,-2170,-3290,,,,,,,0x03,
14636,-964,-109,252,2870,-2240,-3360,,,,,,,0x03,
14645,-963,-114,254,2730,-2310,-3430,,,,,,,0x03,
14655,-963,-118,257,2800,-2240,-3640,,,,,,,0x03,
14665,-959,-114,261,3080,-2240,-3850,,,,,,,0x03,
14674,-960,-105,261,2940,-2240,-3920,,,,,,,0x03,
14684,-965,-106,259,1610,-2100,-3640,,,,,,,0x03,
14694,-964,-118,256,-490,-1960,-3360,,,,,,,0x03,
14703,-960,-128,258,-1820,-1960,-3010,,,,,,,0x03,
14713,-959,-133,260,-1960,-1890,-2590,,,,,,,0x03,
14723,-957,-132,262,-1680,-1820,-2170,,,,,,,0x03,
14732,-957,-127,264,-1470,-1680,-1610,,,,,,,0x03,
14742,-959,-129,261,-1820,-1470,-1050,,,,,,,0x03,
14751,-958,-133,261,-2100,-1260,-630,,,,,,,0x03,
14761,-956,-133,261,-1820,-1120,-140,,,,,,,0x03,
14771,-958,-128,260,-1610,-910,140,,,,,,,0x03,
14780,-958,-128,261,-1960,-840,420,,,,,,,0x03,
14790,-958,-127,260,-2310,-770,490,,,,,,,0x03,
14800,-963,-124,256,-2100,-700,560,,,,,,,0x03,
14809,-965,-121,254,-2100,-630,700,,,,,,,0x03,
14819,-962,-122,251,-2100,-560,700,,,,,,,0x03,
14829,-963,-125,252,-1890,-630,630,,,,,,,0x03,
14838,-962,-122,257,-1190,-630,420,,,,,,,0x03,
14848,-960,-113,258,-280,-630,280,,,,,,,0x03,
14858,-964,-105,257,70,-700,210,,,,,,,0x03,
14867,-966,-109,257,-560,-840,210,,,,,,,0x03,
14877,-964,-120,253,-1190,-840,210,,,,,,,0x03,
14887,-962,-132,252,-770,-770,70,,,,,,,0x03,
14896,-958,-136,255,770,-700,-140,,,,,,,0x03,
14906,-958,-128,259,2730,-700,-210,,,,,,,0x03,
14915,-959,-121,262,3710,-490,0,,,,,,,0x03,
14925,-960,-126,260,3290,-280,280,,,,,,,0x03,
14935,-959,-130,258,2940,-70,420,,,,,,,0x03,
14944,-961,-127,258,3500,-70,490,,,,,,,0x03,
14954,-964,-122,259,3360,0,770,,,,,,,0x03,
14964,-963,-116,260,2240,140,1050,,,,,,,0x03,
14973,-962,-115,261,980,140,1330,,,,,,,0x03,
14983,-960,-117,260,-280,210,1540,,,,,,,0x03,
14993,-962,-118,259,-1120,280,1750,,,,,,,0x03,
15002,-960,-116,256,-1470,350,1820,,,,,,,0x03,
15012,-961,-110,255,-1540,280,1820,,,,,,,0x03,
15022,-968,-108,253,-1960,210,1820,,,,,,,0x03,
15031,-968,-107,255,-2380,140,1750,,,,,,,0x03,
15041,-965,-102,252,-2380,0,1400,,,,,,,0x03,
15051,-962,-98,253,-2240,-210,1120,,,,,,,0x03,
15060,-966,-108,250,-2450,-350,910,,,,,,,0x03,
15070,-962,-120,245,-2240,-490,490,,,,,,,0x03,
15080,-966,-132,245,-560,-420,0,,,,,,,0x03,
15089,-967,-135,247,2170,-420,-490,,,,,,,0x03,
15099,-962,-123,250,5040,-420,-1050,,,,,,,0x03,
15108,-963,-107,254,7140,-420,-1190,,,,,,,0x03,
15118,-961,-104,259,7070,-420,-1050,,,,,,,0x03,
15128,-964,-111,257,5950,-350,-980,,,,,,,0x03,
15137,-961,-114,258,5460,-210,-1120,,,,,,,0x03,
15147,-960,-109,262,5880,-350,-1120,,,,,,,0x03,
15157,-959,-102,265,5740,-350,-910,,,,,,,0x03,
15166,-960,-103,264,4200,-280,-490,,,,,,,0x03,
15176,-963,-114,260,2170,-140,-140,,,,,,,0x03,
15186,-964,-124,256,1050,0,140,,,,,,,0x03,
15195,-962,-124,254,840,70,280,,,,,,,0x03,
15205,-961,-117,256,630,70,700,,,,,,,0x03,
15215,-963,-109,259,-70,0,1050,,,,,,,0x03,
15224,-963,-106,260,-1470,0,1330,,,,,,,0x03,
15234,-960,-106,257,-2940,70,1540,,,,,,,0x03,
15244,-965,-111,254,-3850,70,1540,,,,,,,0x03,
15253,-969,-110,252,-3990,0,1540,,,,,,,0x03,
15263,-964,-107,252,-3430,-140,1400,,,,,,,0x03,
15272,-965,-108,250,-3220,-210,1190,,,,,,,0x03,
15282,-965,-112,250,-3080,-280,980,,,,,,,0x03,
15292,-966,-110,249,-2100,-420,560,,,,,,,0x03,
15301,-968,-104,250,-700,-560,280,,,,,,,0x03,
15311,-966,-98,252,140,-700,70,,,,,,,0x03,
15321,-965,-97,251,210,-910,-210,,,,,,,0x03,
15330,-969,-104,249,70,-1190,-490,,,,,,,0x03,
15340,-967,-109,245,280,-1330,-910,,,,,,,0x03,
