#Format version: 1.0
time[ms],accX[mg],accY[mg],accZ[mg],gyroX[mdps],gyroY[mdps],gyroZ[mdps],magnX[mG],magnY[mG],magnZ[mG],press[hPa],temp[°C],hum[0,-59,-131,-1000,-5670,-420,-2660,,,,,,,0x03,
10,-70,-125,-1005,-4900,-490,-2590,,,,,,,0x03,
19,-73,-120,-1013,-4060,-1050,-2590,,,,,,,0x03,
29,-77,-112,-1020,-3780,-1680,-2450,,,,,,,0x03,
39,-84,-119,-1020,-4620,-2100,-2170,,,,,,,0x03,
48,-82,-129,-1011,-5040,-2240,-2100,,,,,,,0x03,
58,-76,-142,-993,-4270,-2100,-1960,,,,,,,0x03,
67,-69,-152,-984,-2380,-1610,-1960,,,,,,,0x03,
77,-57,-151,-976,420,-1190,-1680,,,,,,,0x03,
87,-54,-145,-984,2870,-770,-1330,,,,,,,0x03,
96,-55,-139,-992,4550,-420,-1050,,,,,,,0x03,
106,-69,-134,-1001,4550,-420,-840,,,,,,,0x03,
116,-81,-135,-1006,3570,-560,-840,,,,,,,0x03,
125,-82,-134,-1001,1960,-350,-910,,,,,,,0x03,
135,-78,-140,-990,700,-70,-630,,,,,,,0x03,
145,-66,-153,-983,770,350,-350,,,,,,,0x03,
154,-53,-166,-968,2100,910,280,,,,,,,0x03,
164,-59,-177,-965,4200,1680,770,,,,,,,0x03,
173,-65,-174,-973,7490,2310,840,,,,,,,0x03,
183,-60,-159,-979,9590,3010,1260,,,,,,,0x03,
193,-61,-147,-971,9240,4130,1470,,,,,,,0x03,
202,-65,-150,-968,7490,4620,1540,,,,,,,0x03,
212,-62,-158,-985,5670,4550,1610,,,,,,,0x03,
222,-59,-161,-1000,3570,4620,1400,,,,,,,0x03,
231,-53,-171,-1010,1470,4620,1260,,,,,,,0x03,
241,-45,-187,-1013,280,4480,1260,,,,,,,0x03,
250,-42,-198,-1006,560,4270,1260,,,,,,,0x03,
260,-40,-194,-995,2240,4060,1330,,,,,,,0x03,
270,-44,-190,-992,3640,3570,1540,,,,,,,0x03,
279,-56,-185,-990,4060,3290,1610,,,,,,,0x03,
289,-60,-181,-988,3710,3290,1400,,,,,,,0x03,
299,-53,-165,-987,2870,3220,1050,,,,,,,0x03,
308,-42,-152,-977,840,3360,910,,,,,,,0x03,
318,-38,-151,-968,-2380,3360,770,,,,,,,0x03,
328,-45,-158,-977,-5320,3220,350,,,,,,,0x03,
337,-45,-158,-994,-7070,3080,-70,,,,,,,0x03,
347,-35,-155,-1007,-8330,2800,-280,,,,,,,0x03,
356,-39,-160,-1016,-9800,2170,-350,,,,,,,0x03,
366,-61,-167,-1020,-9940,1330,-490,,,,,,,0x03,
376,-72,-162,-1027,-8610,490,-700,,,,,,,0x03,
385,-52,-146,-1020,-7000,210,-910,,,,,,,0x03,
395,-35,-143,-1007,-6370,-210,-630,,,,,,,0x03,
405,-42,-150,-1001,-5600,-1050,-490,,,,,,,0x03,
414,-50,-137,-1008,-3500,-1750,-700,,,,,,,0x03,
424,-42,-116,-1018,-2310,-2380,-700,,,,,,,0x03,
434,-35,-111,-1026,-3220,-2800,-560,,,,,,,0x03,
443,-44,-121,-1019,-4830,-3360,-630,,,,,,,0x03,
453,-65,-130,-1007,-5740,-3990,-840,,,,,,,0x03,
462,-70,-141,-1004,-5180,-4480,-1050,,,,,,,0x03,
472,-59,-145,-998,-3850,-4550,-1120,,,,,,,0x03,
482,-56,-148,-988,-2310,-4410,-980,,,,,,,0x03,
491,-60,-141,-983,-700,-4200,-770,,,,,,,0x03,
501,-54,-128,-978,1190,-3780,-560,,,,,,,0x03,
511,-53,-113,-982,2100,-3570,-350,,,,,,,0x03,
520,-65,-108,-987,1820,-3290,-140,,,,,,,0x03,
530,-80,-111,-997,910,-3010,-70,,,,,,,0x03,
539,-77,-121,-998,0,-2590,-70,,,,,,,0x03,
549,-71,-134,-990,-280,-2030,-140,,,,,,,0x03,
559,-63,-146,-987,700,-1680,-70,,,,,,,0x03,
568,-52,-151,-983,2590,-1400,210,,,,,,,0x03,
578,-55,-150,-982,4550,-1190,630,,,,,,,0x03,
588,-71,-150,-983,5320,-980,1050,,,,,,,0x03,
597,-82,-144,-992,5530,-630,1260,,,,,,,0x03,
607,-62,-135,-998,4760,-140,1470,,,,,,,0x03,
617,-44,-147,-989,1960,490,1890,,,,,,,0x03,
626,-43,-169,-984,210,840,1750,,,,,,,0x03,
636,-39,-181,-992,560,490,1540,,,,,,,0x03,
645,-40,-180,-1004,1120,420,1470,,,,,,,0x03,
655,-47,-184,-998,1120,560,1470,,,,,,,0x03,
665,-59,-187,-996,1050,210,1400,,,,,,,0x03,
674,-71,-175,-993,1610,0,1260,,,,,,,0x03,
684,-68,-146,-988,1680,280,1120,,,,,,,0x03,
694,-46,-130,-978,-210,840,1470,,,,,,,0x03,
703,-35,-140,-974,-2590,1610,1890,,,,,,,0x03,
713,-24,-156,-981,-2940,2380,2030,,,,,,,0x03,
723,-21,-161,-986,-1330,3080,2100,,,,,,,0x03,
732,-41,-163,-984,-70,3570,2450,,,,,,,0x03,
742,-69,-165,-975,210,3920,2590,,,,,,,0x03,
751,-74,-159,-985,420,4200,2170,,,,,,,0x03,
761,-63,-153,-988,-490,4410,1960,,,,,,,0x03,
771,-70,-153,-980,-2450,5180,2100,,,,,,,0x03,
780,-57,-151,-979,-3290,5810,2100,,,,,,,0x03,
790,-28,-145,-986,-3220,6230,2170,,,,,,,0x03,
800,-26,-143,-982,-3780,6510,2310,,,,,,,0x03,
809,-42,-150,-989,-4970,6440,2450,,,,,,,0x03,
819,-37,-156,-1003,-5320,6160,1890,,,,,,,0x03,
828,-36,-153,-1010,-5600,5810,1050,,,,,,,0x03,
838,-50,-156,-1003,-6650,5180,770,,,,,,,0x03,
848,-69,-163,-1001,-7280,4130,490,,,,,,,0x03,
857,-56,-153,-1011,-6440,3290,-70,,,,,,,0x03,
867,-24,-138,-1026,-6020,2660,-630,,,,,,,0x03,
877,-8,-130,-1034,-6720,1890,-840,,,,,,,0x03,
886,-13,-127,-1036,-7280,840,-1190,,,,,,,0x03,
896,-32,-122,-1029,-7560,-210,-1400,,,,,,,0x03,
906,-53,-114,-1025,-7700,-1190,-1680,,,,,,,0x03,
915,-57,-111,-1021,-7770,-1750,-1890,,,,,,,0x03,
925,-56,-113,-1004,-7770,-1820,-2030,,,,,,,0x03,
934,-58,-123,-980,-6720,-1610,-1960,,,,,,,0x03,
944,-66,-131,-968,-4620,-1540,-1610,,,,,,,0x03,
954,-62,-116,-968,-1190,-1050,-1540,,,,,,,0x03,
963,-33,-91,-968,980,-70,-1330,,,,,,,0x03,
973,-9,-74,-991,980,630,-980,,,,,,,0x03,
983,-2,-79,-1007,140,560,-840,,,,,,,0x03,
992,-25,-88,-1017,-910,140,-770,,,,,,,0x03,
1002,-45,-95,-1034,-1050,-630,-910,,,,,,,0x03,
1012,-51,-113,-1042,-1260,-1680,-910,,,,,,,0x03,
1021,-68,-135,-1037,-1260,-2380,-840,,,,,,,0x03,
1031,-63,-152,-1015,350,-2450,-1050,,,,,,,0x03,
1040,-36,-152,-995,4060,-2450,-980,,,,,,,0x03,
1050,-18,-147,-982,8330,-2590,-280,,,,,,,0x03,
1060,-9,-139,-997,11970,-2730,210,,,,,,,0x03,
1069,-10,-122,-1009,13860,-2730,490,,,,,,,0x03,
1079,-21,-116,-1010,12880,-2450,700,,,,,,,0x03,
1089,-42,-133,-998,10010,-2240,630,,,,,,,0x03,
1098,-62,-150,-981,7700,-1960,70,,,,,,,0x03,
1108,-63,-160,-966,6790,-1680,-490,,,,,,,0x03,
1117,-58,-162,-965,6090,-1470,-700,,,,,,,0x03,
1127,-48,-163,-977,5810,-1330,-630,,,,,,,0x03,
1137,-37,-167,-989,5390,-1190,-350,,,,,,,0x03,
1146,-32,-163,-994,4830,-980,-280,,,,,,,0x03,
1156,-38,-159,-990,4060,-840,-350,,,,,,,0x03,
1166,-45,-155,-994,3010,-910,-560,,,,,,,0x03,
1175,-55,-152,-993,1470,-910,-770,,,,,,,0x03,
1185,-69,-150,-992,-420,-840,-840,,,,,,,0x03,
1195,-69,-161,-988,-1890,-630,-840,,,,,,,0x03,
1204,-57,-165,-988,-2100,-350,-980,,,,,,,0x03,
1214,-41,-158,-985,-840,70,-980,,,,,,,0x03,
1223,-21,-141,-983,420,350,-770,,,,,,,0x03,
1233,-15,-132,-986,420,560,-490,,,,,,,0x03,
1243,-27,-133,-1002,-420,420,-350,,,,,,,0x03,
1252,-42,-138,-1010,-1330,210,-280,,,,,,,0x03,
1262,-58,-140,-1012,-2240,140,-350,,,,,,,0x03,
1272,-57,-144,-1011,-2730,-140,-420,,,,,,,0x03,
1281,-44,-149,-1004,-2800,-140,-420,,,,,,,0x03,
1291,-46,-161,-986,-2660,-140,-280,,,,,,,0x03,
1301,-55,-166,-976,-1260,140,-280,,,,,,,0x03,
1310,-47,-158,-976,1190,560,-140,,,,,,,0x03,
1320,-34,-147,-978,2520,1330,280,,,,,,,0x03,
1329,-28,-147,-987,2800,1820,560,,,,,,,0x03,
1339,-27,-143,-993,2590,2170,560,,,,,,,0x03,
1349,-39,-139,-986,1190,2240,490,,,,,,,0x03,
1358,-52,-147,-992,-1400,1890,210,,,,,,,0x03,
1368,-54,-152,-1001,-3430,1680,-280,,,,,,,0x03,
1378,-48,-157,-998,-5180,1610,-420,,,,,,,0x03,
1387,-41,-166,-993,-6160,1680,-490,,,,,,,0x03,
1397,-22,-164,-995,-5180,1540,-560,,,,,,,0x03,
1406,-6,-160,-1009,-3780,1050,-350,,,,,,,0x03,
1416,-8,-152,-1017,-2730,700,-350,,,,,,,0x03,
1426,-27,-142,-1023,-2450,0,-280,,,,,,,0x03,
1435,-47,-140,-1022,-3150,-700,-210,,,,,,,0x03,
1445,-62,-140,-1015,-4270,-1400,-490,,,,,,,0x03,
1455,-67,-139,-1005,-4900,-1890,-840,,,,,,,0x03,
1464,-58,-136,-996,-5110,-1960,-1050,,,,,,,0x03,
1474,-33,-128,-982,-4130,-1540,-980,,,,,,,0x03,
1484,-2,-119,-973,-2380,-910,-630,,,,,,,0x03,
1493,8,-116,-986,-280,-490,-70,,,,,,,0x03,
1503,-7,-119,-1000,1540,-490,420,,,,,,,0x03,
1512,-45,-115,-1007,2310,-420,700,,,,,,,0x03,
1522,-69,-111,-1009,1890,-560,560,,,,,,,0x03,
1532,-72,-116,-1008,560,-770,490,,,,,,,0x03,
1541,-65,-127,-999,-280,-770,350,,,,,,,0x03,
1551,-48,-138,-997,0,-770,490,,,,,,,0x03,
1561,-15,-154,-995,1750,-490,910,,,,,,,0x03,
1570,-5,-167,-991,4200,-350,1330,,,,,,,0x03,
1580,-18,-169,-1002,7070,-770,1470,,,,,,,0x03,
1590,-24,-150,-1009,8820,-1120,1330,,,,,,,0x03,
1599,-39,-134,-1007,7000,-1330,1260,,,,,,,0x03,
1609,-49,-138,-1003,3360,-1540,910,,,,,,,0x03,
1618,-46,-149,-996,280,-1890,490,,,,,,,0x03,
1628,-45,-161,-990,-1610,-2030,350,,,,,,,0x03,
1638,-44,-177,-986,-2030,-2030,210,,,,,,,0x03,
1647,-43,-182,-987,-840,-1890,280,,,,,,,0x03,
1657,-38,-170,-981,980,-1470,350,,,,,,,0x03,
1667,-28,-155,-985,2170,-1050,490,,,,,,,0x03,
1676,-18,-142,-987,2170,-770,490,,,,,,,0x03,
1686,-24,-134,-991,1050,-840,350,,,,,,,0x03,
1696,-43,-133,-1004,-770,-1190,0,,,,,,,0x03,
1705,-55,-129,-1010,-2380,-1470,-420,,,,,,,0x03,
1715,-65,-131,-1002,-4130,-1470,-490,,,,,,,0x03,
1724,-73,-141,-996,-5040,-1330,-420,,,,,,,0x03,
1734,-60,-139,-989,-3500,-980,-560,,,,,,,0x03,
1744,-30,-127,-993,-1190,-700,-350,,,,,,,0x03,
1753,-16,-124,-997,350,-420,210,,,,,,,0x03,
1763,-26,-131,-991,1540,-140,490,,,,,,,0x03,
1773,-45,-131,-995,2800,-70,700,,,,,,,0x03,
1782,-54,-126,-999,3710,210,630,,,,,,,0x03,
1792,-53,-124,-997,2870,560,700,,,,,,,0x03,
1801,-54,-138,-987,770,1050,770,,,,,,,0x03,
1811,-44,-152,-983,70,1330,350,,,,,,,0x03,
1821,-23,-159,-981,630,1540,210,,,,,,,0x03,
1830,-23,-169,-979,840,1820,350,,,,,,,0x03,
1840,-33,-176,-983,1820,2380,210,,,,,,,0x03,
1850,-31,-161,-987,3360,3010,70,,,,,,,0x03,
1859,-41,-150,-986,3080,3570,210,,,,,,,0x03,
1869,-56,-146,-981,1540,4130,210,,,,,,,0x03,
1879,-53,-142,-988,420,4270,-140,,,,,,,0x03,
1888,-45,-140,-990,-1120,4410,-350,,,,,,,0x03,
1898,-56,-151,-983,-2870,4550,-490,,,,,,,0x03,
1907,-72,-158,-980,-3780,4340,-630,,,,,,,0x03,
1917,-50,-145,-982,-3500,4480,-1050,,,,,,,0x03,
1927,-15,-131,-978,-4130,4690,-1260,,,,,,,0x03,
1936,-1,-131,-995,-5390,4480,-980,,,,,,,0x03,
1946,-6,-144,-1017,-5670,3780,-840,,,,,,,0x03,
1956,-25,-145,-1034,-5180,3010,-840,,,,,,,0x03,
1965,-44,-146,-1031,-5670,2240,-980,,,,,,,0x03,
1975,-48,-145,-1028,-6790,1610,-1260,,,,,,,0x03,
1985,-20,-139,-1018,-6930,1330,-1610,,,,,,,0x03,
1994,8,-137,-1020,-6580,770,-1400,,,,,,,0x03,
2004,17,-146,-1032,-5320,0,-910,,,,,,,0x03,
2013,12,-155,-1037,-2870,-770,-700,,,,,,,0x03,
2023,-7,-151,-1034,-280,-1470,-560,,,,,,,0x03,
2033,-21,-144,-1024,1750,-1890,-560,,,,,,,0x03,
2042,-33,-146,-1013,2100,-2380,-490,,,,,,,0x03,
2052,-61,-152,-985,1330,-2450,-700,,,,,,,0x03,
2062,-73,-152,-953,560,-1890,-840,,,,,,,0x03,
2071,-34,-142,-946,910,-1050,-1190,,,,,,,0x03,
2081,21,-131,-954,1540,-210,-1260,,,,,,,0x03,
2090,38,-123,-977,1680,280,-910,,,,,,,0x03,
2100,15,-121,-1000,1470,140,-490,,,,,,,0x03,
2110,-29,-117,-1017,560,-280,-490,,,,,,,0x03,
2119,-68,-109,-1022,-1260,-490,-840,,,,,,,0x03,
2129,-89,-112,-1007,-3640,-560,-980,,,,,,,0x03,
2139,-92,-127,-989,-5110,-210,-980,,,,,,,0x03,
2148,-66,-137,-978,-3500,980,-1120,,,,,,,0x03,
2158,-19,-138,-966,560,2100,-700,,,,,,,0x03,
2168,15,-142,-973,5040,3010,280,,,,,,,0x03,
2177,18,-141,-982,9100,3570,700,,,,,,,0x03,
2187,-3,-125,-995,11550,3570,980,,,,,,,0x03,
2196,-27,-113,-1011,10360,3570,910,,,,,,,0x03,
2206,-52,-114,-1010,6160,3780,350,,,,,,,0x03,
2216,-76,-130,-995,980,3990,-280,,,,,,,0x03,
2225,-77,-149,-986,-1890,4480,-840,,,,,,,0x03,
2235,-44,-157,-974,-1260,5390,-1050,,,,,,,0x03,
2245,1,-157,-964,1540,6230,-490,,,,,,,0x03,
2254,24,-156,-966,4900,6790,140,,,,,,,0x03,
2264,21,-148,-985,8120,6650,700,,,,,,,0x03,
2274,2,-134,-1004,9310,6580,840,,,,,,,0x03,
2283,-29,-120,-1014,7280,6580,560,,,,,,,0x03,
2293,-60,-125,-1013,2660,6160,210,,,,,,,0x03,
2302,-79,-136,-1003,-2030,5950,-280,,,,,,,0x03,
2312,-56,-141,-996,-4760,6090,-840,,,,,,,0x03,
2322,0,-140,-983,-5950,6440,-840,,,,,,,0x03,
2331,43,-151,-977,-6020,6860,-70,,,,,,,0x03,
2341,58,-173,-987,-3850,7000,700,,,,,,,0x03,
2351,53,-183,-1001,-70,6650,840,,,,,,,0x03,
2360,22,-168,-1014,2660,6160,350,,,,,,,0x03,
2370,-12,-152,-1028,2660,5530,0,,,,,,,0x03,
2379,-31,-142,-1035,700,4900,-490,,,,,,,0x03,
2389,-29,-139,-1030,-1610,4410,-910,,,,,,,0x03,
2399,-10,-140,-1023,-2520,3780,-1120,,,,,,,0x03,
2408,10,-141,-1015,-1750,3220,-980,,,,,,,0x03,
2418,17,-144,-1006,140,2660,-490,,,,,,,0x03,
2428,13,-144,-995,2240,2310,140,,,,,,,0x03,
2437,9,-142,-985,4060,2380,490,,,,,,,0x03,
2447,3,-139,-982,5110,2660,490,,,,,,,0x03,
2457,-3,-137,-981,5250,2800,490,,,,,,,0x03,
2466,-9,-138,-985,4340,3010,490,,,,,,,0x03,
2476,-7,-141,-988,2940,3360,350,,,,,,,0x03,
2485,-1,-141,-993,1820,3430,280,,,,,,,0x03,
2495,8,-140,-1002,980,3220,350,,,,,,,0x03,
2505,15,-142,-1010,70,3080,630,,,,,,,0x03,
2514,20,-147,-1014,-140,2800,770,,,,,,,0x03,
2524,25,-152,-1012,70,2310,910,,,,,,,0x03,
2534,15,-157,-1006,840,1820,910,,,,,,,0x03,
2543,4,-153,-1005,2240,1330,770,,,,,,,0x03,
2553,-5,-148,-1001,2730,770,910,,,,,,,0x03,
2563,-15,-143,-997,2310,770,980,,,,,,,0x03,
2572,-6,-136,-983,1610,1260,1050,,,,,,,0x03,
2582,10,-134,-977,280,1890,1190,,,,,,,0x03,
2591,27,-140,-979,-700,2380,1470,,,,,,,0x03,
2601,32,-153,-983,-1050,3080,1750,,,,,,,0x03,
2611,25,-155,-986,-420,3710,1750,,,,,,,0x03,
2620,13,-159,-981,490,4200,1820,,,,,,,0x03,
2630,3,-165,-994,840,4270,1750,,,,,,,0x03,
2640,-5,-161,-1004,1260,4130,1610,,,,,,,0x03,
2649,-19,-161,-1007,490,3850,1400,,,,,,,0x03,
2659,-20,-153,-1013,-350,3360,1050,,,,,,,0x03,
2668,-3,-141,-1019,-1330,3080,840,,,,,,,0x03,
2678,25,-134,-1011,-3080,2870,980,,,,,,,0x03,
2688,39,-143,-1003,-4900,2520,1400,,,,,,,0x03,
2697,40,-165,-1000,-5180,1960,1820,,,,,,,0x03,
2707,34,-180,-1006,-3920,1400,1610,,,,,,,0x03,
2717,34,-182,-1010,-1470,980,1260,,,,,,,0x03,
2726,27,-181,-999,700,630,1120,,,,,,,0x03,
2736,12,-179,-997,2310,0,840,,,,,,,0x03,
2746,-1,-173,-998,3570,-770,630,,,,,,,0x03,
2755,-3,-157,-1009,3990,-1260,350,,,,,,,0x03,
2765,9,-144,-1010,3150,-1190,210,,,,,,,0x03,
2774,24,-134,-1001,1330,-1050,140,,,,,,,0x03,
2784,30,-133,-991,-280,-1050,280,,,,,,,0x03,
2794,32,-137,-987,-1400,-1050,350,,,,,,,0x03,
2803,29,-143,-988,-1750,-980,350,,,,,,,0x03,
2813,26,-148,-994,-1610,-840,420,,,,,,,0x03,
2823,23,-155,-997,-770,-490,350,,,,,,,0x03,
2832,21,-155,-997,560,-280,210,,,,,,,0x03,
2842,20,-157,-998,2380,-210,210,,,,,,,0x03,
2852,17,-155,-1001,4270,-210,280,,,,,,,0x03,
2861,7,-152,-1000,5880,-70,420,,,,,,,0x03,
2871,0,-151,-1001,6930,0,630,,,,,,,0x03,
2880,-3,-147,-997,7280,70,630,,,,,,,0x03,
2890,-7,-142,-1000,6720,-70,490,,,,,,,0x03,
2900,-2,-134,-1001,5320,0,560,,,,,,,0x03,
2909,3,-134,-995,3290,350,560,,,,,,,0x03,
2919,9,-138,-985,1260,420,700,,,,,,,0x03,
2929,15,-146,-982,-70,420,1050,,,,,,,0x03,
2938,17,-157,-984,-350,560,1260,,,,,,,0x03,
2948,19,-167,-987,140,770,1540,,,,,,,0x03,
2957,16,-182,-988,1050,1190,1750,,,,,,,0x03,
2967,14,-190,-989,2940,1470,1680,,,,,,,0x03,
2977,16,-191,-989,5180,1470,1610,,,,,,,0x03,
2986,21,-186,-996,6650,1330,1610,,,,,,,0x03,
2996,31,-184,-998,6930,1330,1680,,,,,,,0x03,
3006,38,-186,-994,6300,1470,1540,,,,,,,0x03,
3015,38,-190,-990,5320,1470,1260,,,,,,,0x03,
3025,37,-190,-983,4410,1190,980,,,,,,,0x03,
3035,35,-191,-982,3080,770,700,,,,,,,0x03,
3044,33,-190,-984,1330,420,350,,,,,,,0x03,
3054,25,-188,-983,-910,210,-70,,,,,,,0x03,
3063,20,-187,-980,-3290,0,-630,,,,,,,0x03,
3073,14,-185,-985,-5670,-280,-910,,,,,,,0x03,
3083,19,-181,-992,-7350,-490,-1260,,,,,,,0x03,
3092,26,-175,-996,-8680,-630,-1470,,,,,,,0x03,
3102,33,-171,-1002,-9870,-840,-1610,,,,,,,0x03,
3112,40,-171,-1001,-10710,-1050,-1680,,,,,,,0x03,
3121,42,-169,-999,-10500,-1330,-1820,,,,,,,0x03,
3131,38,-165,-999,-9730,-1610,-1820,,,,,,,0x03,
3141,31,-161,-996,-8610,-1680,-1960,,,,,,,0x03,
3150,19,-155,-994,-7420,-1750,-1890,,,,,,,0x03,
3160,8,-151,-994,-6300,-1820,-1680,,,,,,,0x03,
3169,4,-146,-994,-5110,-1890,-1610,,,,,,,0x03,
3179,-6,-143,-994,-4340,-1820,-1610,,,,,,,0x03,
3189,-11,-134,-1000,-3710,-1750,-1470,,,,,,,0x03,
3198,-5,-127,-999,-3710,-1470,-1330,,,,,,,0x03,
3208,1,-127,-996,-4340,-1190,-1190,,,,,,,0x03,
3218,7,-130,-997,-4970,-1120,-1050,,,,,,,0x03,
3227,11,-132,-999,-4900,-1120,-980,,,,,,,0x03,
3237,18,-132,-998,-4620,-1050,-770,,,,,,,0x03,
3247,23,-135,-993,-4200,-840,-490,,,,,,,0x03,
3256,27,-138,-992,-3360,-910,-420,,,,,,,0x03,
3266,26,-139,-991,-2170,-980,-420,,,,,,,0x03,
3275,23,-140,-998,-980,-1050,-420,,,,,,,0x03,
3285,23,-139,-1004,140,-770,-350,,,,,,,0x03,
3295,23,-137,-998,1400,-280,-210,,,,,,,0x03,
3304,21,-141,-990,2660,70,70,,,,,,,0x03,
3314,23,-141,-988,3850,70,140,,,,,,,0x03,
3324,26,-138,-989,4690,70,140,,,,,,,0x03,
3333,29,-138,-991,4970,70,0,,,,,,,0x03,
3343,27,-136,-994,4760,70,-140,,,,,,,0x03,
3352,29,-139,-994,4550,70,-280,,,,,,,0x03,
3362,31,-141,-995,4620,0,-420,,,,,,,0x03,
3372,28,-140,-993,4760,70,-350,,,,,,,0x03,
3381,19,-143,-992,4900,210,-210,,,,,,,0x03,
3391,6,-145,-989,5460,280,-280,,,,,,,0x03,
3401,-5,-139,-992,6230,350,-70,,,,,,,0x03,
3410,0,-138,-998,7070,350,140,,,,,,,0x03,
3420,11,-132,-1007,7350,350,420,,,,,,,0x03,
3430,18,-135,-1008,6860,560,980,,,,,,,0x03,
3439,24,-143,-1002,6020,840,1260,,,,,,,0x03,
3449,32,-151,-992,5670,980,1470,,,,,,,0x03,
3458,36,-162,-986,5390,980,1680,,,,,,,0x03,
3468,33,-174,-987,5320,700,1750,,,,,,,0x03,
3478,28,-180,-991,5670,420,1610,,,,,,,0x03,
3487,23,-185,-996,5740,350,1400,,,,,,,0x03,
3497,16,-187,-1000,5530,350,1120,,,,,,,0x03,
3507,11,-187,-1002,5250,210,1050,,,,,,,0x03,
3516,15,-186,-1002,4410,350,840,,,,,,,0x03,
3526,20,-181,-993,3360,280,770,,,,,,,0x03,
3536,22,-185,-987,1890,210,700,,,,,,,0x03,
3545,24,-188,-988,630,-70,490,,,,,,,0x03,
3555,28,-189,-991,-210,-350,210,,,,,,,0x03,
3564,32,-184,-996,-840,-490,-210,,,,,,,0x03,
3574,32,-180,-995,-1330,-560,-350,,,,,,,0x03,
3584,25,-176,-995,-1540,-700,-560,,,,,,,0x03,
3593,19,-169,-997,-1330,-770,-560,,,,,,,0x03,
3603,18,-161,-994,-1050,-630,-490,,,,,,,0x03,
3613,21,-155,-990,-700,-490,-350,,,,,,,0x03,
3622,22,-151,-986,-280,-350,-70,,,,,,,0x03,
3632,22,-147,-988,350,-280,280,,,,,,,0x03,
3641,22,-147,-988,1050,-140,560,,,,,,,0x03,
3651,20,-145,-992,1610,-140,770,,,,,,,0x03,
3661,17,-141,-989,1960,-210,1050,,,,,,,0x03,
3670,17,-141,-995,1610,-140,1190,,,,,,,0x03,
3680,19,-141,-996,1400,140,1260,,,,,,,0x03,
3690,19,-142,-993,980,490,1610,,,,,,,0x03,
3699,19,-149,-998,630,420,2030,,,,,,,0x03,
3709,29,-149,-999,1120,700,2030,,,,,,,0x03,
3719,29,-153,-992,1190,1050,2310,,,,,,,0x03,
3728,32,-151,-1000,1330,840,2450,,,,,,,0x03,
3738,37,-149,-996,2100,840,2380,,,,,,,0x03,
3747,36,-159,-994,1750,980,2450,,,,,,,0x03,
3757,36,-172,-992,1610,1190,2240,,,,,,,0x03,
3767,31,-182,-995,2800,1260,2100,,,,,,,0x03,
3776,29,-189,-991,4620,1190,2100,,,,,,,0x03,
3786,20,-193,-987,6300,1190,1890,,,,,,,0x03,
3796,16,-192,-990,7630,770,1680,,,,,,,0x03,
3805,12,-194,-998,8120,770,1400,,,,,,,0x03,
3815,6,-184,-999,7770,840,980,,,,,,,0x03,
3825,4,-177,-996,6580,1050,980,,,,,,,0x03,
3834,12,-175,-993,4690,980,980,,,,,,,0x03,
3844,27,-178,-987,2800,980,980,,,,,,,0x03,
3853,37,-186,-989,1120,980,980,,,,,,,0x03,
3863,43,-190,-986,210,700,910,,,,,,,0x03,
3873,40,-198,-989,-280,350,770,,,,,,,0x03,
3882,41,-200,-997,-490,-70,560,,,,,,,0x03,
3892,31,-200,-993,-700,-70,420,,,,,,,0x03,
3902,17,-195,-992,-840,-140,210,,,,,,,0x03,
3911,13,-188,-991,-980,-70,210,,,,,,,0x03,
3921,23,-186,-987,-2310,140,280,,,,,,,0x03,
3930,32,-182,-987,-3780,280,210,,,,,,,0x03,
3940,40,-178,-986,-5180,280,420,,,,,,,0x03,
3950,45,-175,-990,-7070,280,560,,,,,,,0x03,
3959,47,-172,-990,-9520,280,700,,,,,,,0x03,
3969,47,-170,-988,-12320,350,770,,,,,,,0x03,
3979,41,-171,-987,-15400,140,770,,,,,,,0x03,
3988,29,-174,-991,-18480,-70,840,,,,,,,0x03,
3998,25,-175,-995,-21140,-140,700,,,,,,,0x03,
4008,19,-172,-997,-23100,70,420,,,,,,,0x03,
4017,15,-170,-995,-24430,0,70,,,,,,,0x03,
4027,20,-165,-1005,-24990,-490,-140,,,,,,,0x03,
4036,33,-160,-1006,-25130,-560,-350,,,,,,,0x03,
4046,38,-162,-1008,-25690,-420,-490,,,,,,,0x03,
4056,42,-168,-1004,-25060,-630,-560,,,,,,,0x03,
4065,40,-179,-1001,-23170,-770,-910,,,,,,,0x03,
4075,36,-176,-1000,-20510,-770,-1260,,,,,,,0x03,
4085,32,-175,-996,-17290,-700,-1540,,,,,,,0x03,
4094,24,-165,-993,-14140,-770,-1960,,,,,,,0x03,
4104,10,-144,-998,-11690,-1050,-2170,,,,,,,0x03,
4114,9,-119,-1005,-10220,-1120,-2240,,,,,,,0x03,
4123,19,-105,-1008,-9800,-980,-2240,,,,,,,0x03,
4133,30,-95,-1006,-10290,-840,-2100,,,,,,,0x03,
4142,36,-90,-1001,-10920,-700,-2030,,,,,,,0x03,
4152,39,-93,-991,-11200,-700,-2030,,,,,,,0x03,
4162,41,-91,-994,-10920,-910,-2100,,,,,,,0x03,
4171,44,-91,-992,-9730,-910,-2030,,,,,,,0x03,
4181,43,-88,-993,-7770,-770,-1890,,,,,,,0x03,
4191,44,-85,-993,-4900,-630,-1400,,,,,,,0x03,
4200,45,-83,-992,-2100,-560,-1120,,,,,,,0x03,
4210,43,-81,-996,280,-420,-910,,,,,,,0x03,
4219,42,-76,-995,2590,-70,-770,,,,,,,0x03,
4229,36,-76,-991,4130,140,-630,,,,,,,0x03,
4239,33,-77,-992,4550,280,-490,,,,,,,0x03,
4248,30,-83,-994,4130,420,-420,,,,,,,0x03,
4258,27,-90,-996,3080,490,-490,,,,,,,0x03,
4268,25,-98,-1001,1890,490,-770,,,,,,,0x03,
4277,24,-102,-1002,420,420,-1260,,,,,,,0x03,
4287,19,-102,-1005,-1330,70,-1610,,,,,,,0x03,
4297,19,-104,-1010,-3010,-490,-1960,,,,,,,0x03,
4306,21,-117,-1021,-4620,-700,-2240,,,,,,,0x03,
4316,21,-123,-1023,-5320,-560,-2590,,,,,,,0x03,
4325,17,-125,-1015,-4830,-630,-2870,,,,,,,0x03,
4335,20,-122,-1008,-3570,-910,-2940,,,,,,,0x03,
4345,29,-114,-1009,-2100,-1120,-3080,,,,,,,0x03,
4354,33,-110,-1002,-910,-980,-3080,,,,,,,0x03,
4364,27,-103,-993,420,-840,-3150,,,,,,,0x03,
4374,20,-95,-987,1610,-840,-3010,,,,,,,0x03,
4383,17,-91,-986,2590,-700,-2730,,,,,,,0x03,
4393,20,-82,-984,3290,-420,-2660,,,,,,,0x03,
4403,21,-77,-986,3850,-210,-2310,,,,,,,0x03,
4412,22,-76,-991,4200,-140,-1960,,,,,,,0x03,
4422,27,-70,-1003,5110,-140,-1750,,,,,,,0x03,
4431,29,-65,-1002,5950,-70,-1330,,,,,,,0x03,
4441,24,-63,-1005,6300,-350,-840,,,,,,,0x03,
4451,21,-69,-1015,7140,-560,-210,,,,,,,0x03,
4460,18,-72,-1015,8120,-490,490,,,,,,,0x03,
4470,19,-81,-1016,8330,-280,1190,,,,,,,0x03,
4480,26,-87,-1007,8400,-70,1750,,,,,,,0x03,
4489,35,-97,-996,8260,-140,2590,,,,,,,0x03,
4499,44,-108,-997,7700,-210,3080,,,,,,,0x03,
4509,53,-116,-995,7420,-140,3290,,,,,,,0x03,
4518,56,-127,-993,7140,-70,3290,,,,,,,0x03,
4528,51,-139,-992,7560,0,3500,,,,,,,0x03,
4537,45,-154,-994,8540,0,3990,,,,,,,0x03,
4547,49,-165,-995,10220,210,4270,,,,,,,0x03,
4557,49,-175,-993,11620,560,4480,,,,,,,0x03,
4566,51,-169,-993,12460,770,4410,,,,,,,0x03,
4576,52,-170,-986,12180,1050,4690,,,,,,,0x03,
4586,44,-177,-982,10570,1190,4690,,,,,,,0x03,
4595,38,-181,-986,8470,1120,4550,,,,,,,0x03,
4605,39,-181,-990,6580,980,4130,,,,,,,0x03,
4614,36,-186,-999,4270,560,3920,,,,,,,0x03,
4624,43,-187,-1007,1960,140,3360,,,,,,,0x03,
4634,43,-194,-1014,-140,-210,2940,,,,,,,0x03,
4643,37,-195,-1015,-1330,-770,2660,,,,,,,0x03,
4653,31,-195,-1010,-1890,-1260,2240,,,,,,,0x03,
4663,28,-194,-1010,-2730,-1610,1890,,,,,,,0x03,
4672,27,-179,-1002,-3150,-1890,1470,,,,,,,0x03,
4682,21,-174,-996,-4200,-2030,1120,,,,,,,0x03,
4692,20,-158,-997,-5530,-2380,700,,,,,,,0x03,
4701,18,-147,-999,-7000,-2520,420,,,,,,,0x03,
4711,18,-139,-1000,-8820,-2380,140,,,,,,,0x03,
4720,15,-137,-1002,-10570,-1960,0,,,,,,,0x03,
4730,14,-130,-997,-11060,-1680,-350,,,,,,,0x03,
4740,12,-129,-996,-11130,-1680,-420,,,,,,,0x03,
4749,13,-119,-1003,-10080,-1750,-490,,,,,,,0x03,
4759,7,-112,-1002,-7910,-1540,-210,,,,,,,0x03,
4769,1,-105,-1006,-5810,-1400,140,,,,,,,0x03,
4778,5,-93,-1007,-3010,-1190,630,,,,,,,0x03,
4788,15,-81,-1004,-490,-840,1120,,,,,,,0x03,
4798,27,-74,-996,1470,-350,1750,,,,,,,0x03,
4807,28,-77,-987,3360,70,2450,,,,,,,0x03,
4817,21,-82,-983,5530,490,2870,,,,,,,0x03,
4826,19,-80,-982,7490,980,3220,,,,,,,0x03,
4836,29,-87,-988,8610,1470,3570,,,,,,,0x03,
4846,30,-93,-989,9590,1890,3780,,,,,,,0x03,
4855,26,-99,-993,10850,2030,3920,,,,,,,0x03,
4865,28,-103,-1001,12110,2100,4060,,,,,,,0x03,
4875,38,-104,-1002,12880,2380,4130,,,,,,,0x03,
4884,48,-118,-1001,12810,2380,4130,,,,,,,0x03,
4894,56,-137,-1004,13020,2240,4060,,,,,,,0x03,
4903,60,-155,-1007,14140,1890,3710,,,,,,,0x03,
4913,52,-172,-1003,15260,1610,3150,,,,,,,0x03,
4923,33,-183,-999,16170,1190,2240,,,,,,,0x03,
4932,16,-182,-995,16800,910,1330,,,,,,,0x03,
4942,9,-184,-999,15960,700,700,,,,,,,0x03,
4952,15,-185,-995,14560,700,-140,,,,,,,0x03,
4961,17,-190,-996,12810,700,-840,,,,,,,0x03,
4971,12,-193,-997,11830,490,-1400,,,,,,,0x03,
4981,-4,-192,-990,10850,210,-1960,,,,,,,0x03,
4990,-18,-185,-992,9660,-140,-2450,,,,,,,0x03,
5000,-12,-182,-1000,8400,-210,-2730,,,,,,,0x03,
5009,11,-179,-1008,6580,-70,-2940,,,,,,,0x03,
5019,43,-181,-1006,4340,350,-3010,,,,,,,0x03,
5029,65,-189,-995,2520,420,-3150,,,,,,,0x03,
5038,75,-199,-987,1330,-70,-3500,,,,,,,0x03,
5048,81,-196,-985,770,-420,-4130,,,,,,,0x03,
5058,82,-195,-986,70,-700,-4480,,,,,,,0x03,
5067,85,-190,-981,-1120,-630,-4830,,,,,,,0x03,
5077,84,-183,-972,-2170,-910,-4970,,,,,,,0x03,
5087,85,-179,-970,-2590,-1330,-5040,,,,,,,0x03,
5096,85,-175,-978,-2940,-1750,-5040,,,,,,,0x03,
5106,82,-170,-984,-2730,-1890,-4830,,,,,,,0x03,
5115,72,-168,-987,-2170,-1820,-4550,,,,,,,0x03,
5125,65,-167,-988,-1470,-1680,-4130,,,,,,,0x03,
5135,56,-164,-984,-980,-1470,-3710,,,,,,,0x03,
5144,51,-165,-979,-700,-1400,-3360,,,,,,,0x03,
5154,46,-168,-986,-490,-1330,-2940,,,,,,,0x03,
5164,39,-170,-990,140,-1050,-2590,,,,,,,0x03,
5173,28,-169,-992,490,-840,-2240,,,,,,,0x03,
5183,24,-164,-996,490,-770,-1960,,,,,,,0x03,
5192,24,-162,-999,-210,-630,-1540,,,,,,,0x03,
5202,25,-163,-1005,-1610,-560,-1260,,,,,,,0x03,
5212,32,-166,-1005,-3080,-280,-1120,,,,,,,0x03,
5221,37,-168,-999,-4410,-70,-1120,,,,,,,0x03,
5231,40,-171,-997,-5040,-280,-1050,,,,,,,0x03,
5241,42,-171,-990,-5040,-630,-1050,,,,,,,0x03,
5250,36,-167,-995,-5040,-1050,-910,,,,,,,0x03,
5260,28,-163,-995,-4760,-1470,-770,,,,,,,0x03,
5270,21,-158,-1001,-4410,-1820,-490,,,,,,,0x03,
5279,17,-157,-1004,-4410,-1960,-280,,,,,,,0x03,
5289,16,-157,-1004,-4200,-1750,-210,,,,,,,0x03,
5298,14,-159,-1002,-4200,-1540,-70,,,,,,,0x03,
5308,13,-158,-997,-3780,-1330,70,,,,,,,0x03,
5318,11,-160,-990,-2940,-1050,420,,,,,,,0x03,
5327,9,-159,-985,-1890,-770,560,,,,,,,0x03,
5337,8,-155,-985,-1050,-630,840,,,,,,,0x03,
5347,10,-155,-989,-1050,-420,1050,,,,,,,0x03,
5356,16,-154,-994,-1470,-280,1050,,,,,,,0x03,
5366,21,-162,-997,-2800,70,1190,,,,,,,0x03,
5376,26,-164,-997,-3710,280,1120,,,,,,,0x03,
5385,27,-168,-994,-3850,210,1050,,,,,,,0x03,
5395,30,-172,-996,-4270,-210,910,,,,,,,0x03,
5404,35,-168,-1003,-4480,-630,560,,,,,,,0x03,
5414,40,-169,-1005,-4900,-770,490,,,,,,,0x03,
5424,40,-169,-1008,-4970,-980,490,,,,,,,0x03,
5433,43,-167,-1004,-4340,-980,560,,,,,,,0x03,
5443,44,-164,-1001,-4130,-1050,560,,,,,,,0x03,
5453,47,-158,-997,-4060,-1120,490,,,,,,,0x03,
5462,47,-150,-997,-4130,-1190,350,,,,,,,0x03,
5472,47,-144,-994,-4060,-1050,350,,,,,,,0x03,
5481,45,-138,-989,-4270,-980,420,,,,,,,0x03,
5491,42,-135,-986,-4620,-910,420,,,,,,,0x03,
5501,40,-132,-984,-4970,-910,560,,,,,,,0x03,
5510,39,-135,-985,-5390,-840,700,,,,,,,0x03,
5520,40,-136,-993,-5320,-700,700,,,,,,,0x03,
5530,42,-133,-996,-4340,-490,770,,,,,,,0x03,
5539,40,-134,-995,-3430,-560,980,,,,,,,0x03,
5549,40,-132,-1000,-2660,-630,1120,,,,,,,0x03,
5559,40,-128,-1000,-1610,-840,1330,,,,,,,0x03,
5568,41,-133,-1004,-770,-910,1610,,,,,,,0x03,
5578,42,-137,-1006,-140,-910,1750,,,,,,,0x03,
5587,41,-143,-1001,700,-840,1680,,,,,,,0x03,
5597,35,-149,-995,1610,-840,1680,,,,,,,0x03,
5607,31,-151,-996,3150,-1050,1680,,,,,,,0x03,
5616,28,-149,-998,4760,-1120,1540,,,,,,,0x03,
5626,26,-142,-996,5950,-1120,1470,,,,,,,0x03,
5636,28,-133,-994,6510,-980,1470,,,,,,,0x03,
5645,32,-127,-991,6440,-910,1680,,,,,,,0x03,
5655,40,-131,-993,5880,-770,1890,,,,,,,0x03,
5665,44,-132,-988,5390,-630,1820,,,,,,,0x03,
5674,40,-137,-990,4480,-630,1820,,,,,,,0x03,
5684,36,-144,-994,3640,-770,1750,,,,,,,0x03,
5693,31,-149,-996,2660,-840,1540,,,,,,,0x03,
5703,25,-152,-998,1470,-840,1470,,,,,,,0x03,
5713,25,-156,-999,0,-700,1330,,,,,,,0x03,
5722,31,-162,-993,-1610,-490,910,,,,,,,0x03,
5732,33,-164,-991,-2940,-490,630,,,,,,,0x03,
5742,40,-167,-995,-3290,-700,280,,,,,,,0x03,
5751,44,-162,-997,-3360,-630,70,,,,,,,0x03,
5761,42,-159,-994,-3220,-630,-210,,,,,,,0x03,
5770,39,-154,-996,-2730,-770,-350,,,,,,,0x03,
5780,35,-146,-998,-1960,-910,-350,,,,,,,0x03,
5790,33,-142,-997,-1540,-980,-350,,,,,,,0x03,
5799,31,-141,-998,-910,-980,-490,,,,,,,0x03,
5809,31,-136,-1000,-210,-980,-490,,,,,,,0x03,
5819,29,-133,-994,280,-840,-420,,,,,,,0x03,
5828,28,-134,-993,770,-560,-420,,,,,,,0x03,
5838,30,-132,-992,1820,-630,-350,,,,,,,0x03,
5848,34,-127,-997,2870,-490,-280,,,,,,,0x03,
5857,35,-128,-994,3500,-210,-70,,,,,,,0x03,
5867,33,-136,-991,4200,-70,70,,,,,,,0x03,
5876,34,-138,-992,5600,0,210,,,,,,,0x03,
5886,35,-140,-993,6930,70,420,,,,,,,0x03,
5896,37,-147,-994,7910,210,630,,,,,,,0x03,
5905,36,-151,-996,8890,350,770,,,,,,,0x03,
5915,37,-158,-996,9870,490,840,,,,,,,0x03,
5925,38,-160,-997,10850,490,840,,,,,,,0x03,
5934,39,-160,-996,11690,420,910,,,,,,,0x03,
5944,38,-161,-995,12110,420,980,,,,,,,0x03,
5954,35,-166,-991,12320,280,1050,,,,,,,0x03,
5963,33,-174,-990,12530,0,1050,,,,,,,0x03,
5973,33,-176,-998,12880,-490,840,,,,,,,0x03,
5982,37,-176,-1004,13020,-980,910,,,,,,,0x03,
5992,40,-182,-1010,12460,-1190,980,,,,,,,0x03,
6002,39,-187,-1008,12040,-1190,910,,,,,,,0x03,
6011,36,-188,-999,11060,-1120,980,,,,,,,0x03,
6021,34,-192,-988,9100,-1260,910,,,,,,,0x03,
6031,35,-200,-987,6720,-1470,770,,,,,,,0x03,
6040,37,-207,-981,4410,-1330,280,,,,,,,0x03,
6050,37,-211,-973,2380,-1050,-140,,,,,,,0x03,
6060,35,-215,-973,560,-980,-490,,,,,,,0x03,
6069,38,-212,-977,-560,-840,-840,,,,,,,0x03,
6079,38,-207,-978,-1610,-700,-1050,,,,,,,0x03,
6088,37,-203,-986,-2870,-630,-1120,,,,,,,0x03,
6098,40,-198,-989,-3920,-420,-1260,,,,,,,0x03,
6108,40,-195,-993,-4970,-350,-1400,,,,,,,0x03,
6117,40,-187,-998,-5390,-490,-1610,,,,,,,0x03,
6127,38,-184,-1000,-5530,-630,-1540,,,,,,,0x03,
6137,36,-183,-1002,-5460,-910,-1540,,,,,,,0x03,
6146,32,-173,-999,-4900,-1050,-1610,,,,,,,0x03,
6156,25,-166,-991,-4340,-1190,-1470,,,,,,,0x03,
6165,23,-164,-991,-4060,-1330,-1400,,,,,,,0x03,
6175,28,-157,-992,-3220,-1400,-1330,,,,,,,0x03,
6185,31,-155,-991,-2800,-980,-1050,,,,,,,0x03,
6194,29,-156,-987,-2170,-700,-840,,,,,,,0x03,
6204,28,-156,-986,-840,-490,-560,,,,,,,0x03,
6214,27,-151,-988,490,-350,-210,,,,,,,0x03,
6223,31,-152,-987,1330,-140,0,,,,,,,0x03,
6233,31,-155,-992,1890,-70,210,,,,,,,0x03,
6243,33,-159,-998,2240,-70,350,,,,,,,0x03,
6252,31,-162,-991,2520,70,490,,,,,,,0x03,
6262,28,-168,-992,2800,-210,700,,,,,,,0x03,
6271,35,-173,-997,3430,-420,840,,,,,,,0x03,
6281,39,-175,-999,3850,-280,910,,,,,,,0x03,
6291,38,-179,-997,3640,-140,1050,,,,,,,0x03,
6300,36,-186,-990,3570,-70,1050,,,,,,,0x03,
6310,37,-192,-988,3850,-140,1050,,,,,,,0x03,
6320,44,-197,-995,4130,-140,1050,,,,,,,0x03,
6329,48,-197,-992,4270,70,840,,,,,,,0x03,
6339,43,-199,-987,3640,-70,770,,,,,,,0x03,
6349,43,-203,-991,3010,-210,630,,,,,,,0x03,
6358,46,-200,-992,2730,-210,280,,,,,,,0x03,
6368,44,-199,-988,1610,-280,70,,,,,,,0x03,
6377,44,-198,-989,700,-210,-70,,,,,,,0x03,
6387,41,-202,-992,210,0,-70,,,,,,,0x03,
6397,41,-197,-994,-70,-140,-420,,,,,,,0x03,
6406,39,-193,-993,-210,0,-420,,,,,,,0x03,
6416,38,-195,-997,-910,210,-420,,,,,,,0x03,
6426,41,-192,-993,-1400,280,-560,,,,,,,0x03,
6435,40,-191,-985,-1680,420,-700,,,,,,,0x03,
6445,38,-193,-981,-2030,280,-910,,,,,,,0x03,
6454,39,-190,-984,-1960,140,-840,,,,,,,0x03,
6464,36,-185,-983,-2450,-140,-980,,,,,,,0x03,
6474,31,-175,-980,-3430,-700,-1050,,,,,,,0x03,
6483,27,-163,-983,-4550,-1330,-1330,,,,,,,0x03,
6493,30,-153,-994,-5180,-1680,-1540,,,,,,,0x03,
6503,33,-152,-1001,-6230,-1610,-1330,,,,,,,0x03,
6512,32,-157,-999,-7070,-1330,-1190,,,,,,,0x03,
6522,31,-165,-991,-6930,-1120,-840,,,,,,,0x03,
6532,32,-169,-991,-5600,-1050,-700,,,,,,,0x03,
6541,38,-165,-993,-3220,-980,-560,,,,,,,0x03,
6551,37,-162,-989,-1470,-630,-280,,,,,,,0x03,
6560,34,-160,-986,0,-420,-70,,,,,,,0x03,
6570,35,-160,-984,1260,-70,210,,,,,,,0x03,
6580,36,-158,-985,1960,70,420,,,,,,,0x03,
6589,35,-161,-986,2450,140,560,,,,,,,0x03,
6599,37,-165,-992,2170,210,630,,,,,,,0x03,
6609,38,-167,-996,1820,210,630,,,,,,,0x03,
6618,36,-172,-998,1610,70,700,,,,,,,0x03,
6628,36,-177,-1002,1190,-350,630,,,,,,,0x03,
6638,37,-177,-1000,1050,-700,560,,,,,,,0x03,
6647,40,-181,-997,140,-840,630,,,,,,,0x03,
6657,40,-192,-994,-560,-980,560,,,,,,,0x03,
6666,39,-196,-990,-840,-980,490,,,,,,,0x03,
6676,38,-201,-987,-910,-840,280,,,,,,,0x03,
6686,39,-201,-986,-700,-770,140,,,,,,,0x03,
6695,40,-194,-984,-420,-630,0,,,,,,,0x03,
6705,39,-189,-984,-350,-560,-140,,,,,,,0x03,
6715,36,-179,-986,-700,-560,-210,,,,,,,0x03,
6724,36,-176,-991,-1190,-630,-280,,,,,,,0x03,
6734,35,-171,-994,-1960,-700,-420,,,,,,,0x03,
6743,34,-171,-998,-2590,-700,-420,,,,,,,0x03,
6753,37,-174,-1002,-2800,-840,-350,,,,,,,0x03,
6763,40,-173,-999,-2590,-980,-350,,,,,,,0x03,
6772,39,-173,-994,-2310,-980,-350,,,,,,,0x03,
6782,41,-172,-991,-1820,-1050,-350,,,,,,,0x03,
6792,42,-170,-989,-1120,-1050,-350,,,,,,,0x03,
6801,40,-169,-992,-560,-1120,-280,,,,,,,0x03,
6811,39,-171,-996,-280,-980,-210,,,,,,,0x03,
6821,36,-170,-990,-140,-630,-210,,,,,,,0x03,
6830,35,-173,-987,-210,-560,-140,,,,,,,0x03,
6840,35,-174,-986,140,-630,-210,,,,,,,0x03,
6849,35,-171,-986,350,-630,-210,,,,,,,0x03,
6859,37,-170,-993,70,-700,-210,,,,,,,0x03,
6869,39,-170,-992,-210,-630,-280,,,,,,,0x03,
6878,38,-170,-991,-630,-630,-280,,,,,,,0x03,
6888,36,-171,-992,-630,-560,-350,,,,,,,0x03,
6898,38,-173,-996,-210,-560,-210,,,,,,,0x03,
6907,37,-173,-995,0,-560,-140,,,,,,,0x03,
6917,35,-173,-993,-70,-560,-140,,,,,,,0x03,
6927,34,-176,-993,-140,-770,-280,,,,,,,0x03,
6936,33,-175,-995,-280,-770,-280,,,,,,,0x03,
6946,30,-171,-992,-350,-700,-280,,,,,,,0x03,
6955,34,-172,-990,-350,-630,-210,,,,,,,0x03,
6965,43,-172,-995,-140,-700,-210,,,,,,,0x03,
6975,46,-173,-995,210,-630,-140,,,,,,,0x03,
6984,44,-178,-992,420,-490,-140,,,,,,,0x03,
6994,43,-178,-988,1190,-490,-140,,,,,,,0x03,
7004,42,-176,-989,1820,-560,-210,,,,,,,0x03,
7013,42,-173,-990,2170,-560,-70,,,,,,,0x03,
7023,39,-171,-989,2030,-420,-140,,,,,,,0x03,
7032,36,-171,-987,1610,-420,-280,,,,,,,0x03,
7042,33,-173,-989,1190,-490,-280,,,,,,,0x03,
7052,34,-171,-992,700,-630,-350,,,,,,,0x03,
7061,34,-169,-995,280,-770,-210,,,,,,,0x03,
7071,36,-172,-995,-350,-770,-140,,,,,,,0x03,
7081,38,-174,-996,-840,-770,-210,,,,,,,0x03,
7090,39,-176,-993,-700,-840,-280,,,,,,,0x03,
7100,37,-180,-994,-350,-910,-210,,,,,,,0x03,
7110,39,-181,-995,70,-910,-210,,,,,,,0x03,
7119,37,-182,-991,700,-770,-70,,,,,,,0x03,
7129,35,-182,-991,1260,-630,0,,,,,,,0x03,
7138,36,-182,-991,1820,-490,70,,,,,,,0x03,
7148,37,-180,-989,2030,-280,70,,,,,,,0x03,
7158,36,-178,-987,1890,-210,70,,,,,,,0x03,
7167,38,-177,-987,1610,-210,70,,,,,,,0x03,
7177,35,-176,-986,840,-140,0,,,,,,,0x03,
7187,36,-178,-993,140,-420,0,,,,,,,0x03,
7196,40,-176,-998,-420,-560,-140,,,,,,,0x03,
7206,38,-176,-998,-1120,-630,-140,,,,,,,0x03,
7216,39,-178,-1000,-1540,-770,-70,,,,,,,0x03,
7225,40,-182,-996,-1330,-840,-140,,,,,,,0x03,
7235,40,-180,-994,-1120,-980,-70,,,,,,,0x03,
7244,40,-180,-991,-700,-1050,70,,,,,,,0x03,
7254,39,-181,-990,-350,-1050,140,,,,,,,0x03,
7264,38,-178,-985,-140,-840,140,,,,,,,0x03,
7273,35,-177,-985,-280,-700,140,,,,,,,0x03,
7283,36,-176,-988,-280,-700,70,,,,,,,0x03,
7293,38,-174,-988,-700,-560,70,,,,,,,0x03,
7302,38,-171,-992,-1330,-420,0,,,,,,,0x03,
7312,37,-175,-991,-2100,-420,0,,,,,,,0x03,
7321,37,-179,-992,-2450,-490,-140,,,,,,,0x03,
7331,38,-178,-996,-2450,-770,-140,,,,,,,0x03,
7341,39,-178,-994,-2310,-770,-210,,,,,,,0x03,
7350,37,-177,-994,-2100,-910,-350,,,,,,,0x03,
7360,38,-175,-997,-1400,-1120,-350,,,,,,,0x03,
7370,38,-171,-994,-910,-1190,-350,,,,,,,0x03,
7379,33,-168,-993,-840,-1190,-280,,,,,,,0x03,
7389,32,-169,-992,-770,-1050,-140,,,,,,,0x03,
7399,34,-169,-991,-1120,-910,-210,,,,,,,0x03,
7408,34,-170,-988,-1190,-770,-210,,,,,,,0x03,
7418,37,-172,-987,-1190,-770,-210,,,,,,,0x03,
7427,39,-171,-990,-910,-770,-140,,,,,,,0x03,
7437,41,-167,-993,-700,-700,-70,,,,,,,0x03,
7447,41,-169,-992,-840,-490,0,,,,,,,0x03,
7456,42,-171,-994,-840,-350,0,,,,,,,0x03,
7466,44,-169,-989,-350,-70,70,,,,,,,0x03,
7476,40,-170,-986,-420,140,280,,,,,,,0x03,
7485,37,-170,-983,-630,140,350,,,,,,,0x03,
7495,35,-166,-987,-700,70,70,,,,,,,0x03,
7505,32,-166,-992,-1400,70,140,,,,,,,0x03,
7514,33,-165,-991,-2310,0,-70,,,,,,,0x03,
7524,31,-170,-996,-3080,-140,70,,,,,,,0x03,
7533,34,-173,-1003,-3080,-210,0,,,,,,,0x03,
7543,37,-172,-995,-3010,-140,0,,,,,,,0x03,
7553,38,-176,-993,-3290,-280,70,,,,,,,0x03,
7562,42,-177,-995,-2870,-420,0,,,,,,,0x03,
7572,43,-177,-996,-2380,-490,-70,,,,,,,0x03,
7582,43,-175,-995,-2170,-420,-70,,,,,,,0x03,
7591,38,-175,-988,-1750,-560,0,,,,,,,0x03,
7601,36,-176,-1000,-1050,-1190,70,,,,,,,0x03,
7611,41,-169,-1005,-350,-1330,70,,,,,,,0x03,
7620,37,-168,-1000,-490,-1330,140,,,,,,,0x03,
7630,34,-167,-998,-1120,-1540,70,,,,,,,0x03,
7639,36,-168,-993,-1050,-1470,-140,,,,,,,0x03,
7649,39,-166,-990,-980,-1400,-210,,,,,,,0x03,
7659,36,-166,-983,-1260,-1190,-70,,,,,,,0x03,
7668,35,-170,-981,-1540,-1120,0,,,,,,,0x03,
7678,36,-168,-987,-1610,-1190,70,,,,,,,0x03,
7688,36,-162,-991,-1750,-1050,70,,,,,,,0x03,
7697,35,-163,-995,-2380,-910,70,,,,,,,0x03,
7707,33,-164,-1000,-2940,-910,0,,,,,,,0x03,
7716,34,-165,-996,-3290,-840,-70,,,,,,,0x03,
7726,36,-168,-993,-3710,-840,-210,,,,,,,0x03,
7736,37,-170,-990,-3430,-770,-210,,,,,,,0x03,
7745,37,-172,-990,-2380,-840,-140,,,,,,,0x03,
7755,38,-170,-994,-1050,-910,-140,,,,,,,0x03,
7765,37,-166,-994,-420,-840,-70,,,,,,,0x03,
7774,34,-157,-995,0,-770,0,,,,,,,0x03,
7784,35,-155,-994,70,-700,140,,,,,,,0x03,
7794,36,-153,-996,-70,-560,140,,,,,,,0x03,
7803,36,-151,-994,-490,-490,140,,,,,,,0x03,
7813,36,-155,-991,-840,-490,140,,,,,,,0x03,
7822,37,-160,-992,-700,-560,210,,,,,,,0x03,
7832,38,-161,-996,-210,-560,280,,,,,,,0x03,
7842,40,-163,-994,70,-560,350,,,,,,,0x03,
7851,39,-166,-994,140,-490,420,,,,,,,0x03,
7861,41,-165,-990,490,-420,350,,,,,,,0x03,
7871,42,-162,-991,840,-280,350,,,,,,,0x03,
7880,41,-160,-988,1120,-350,350,,,,,,,0x03,
7890,38,-160,-989,490,-420,420,,,,,,,0x03,
7900,38,-159,-996,140,-630,280,,,,,,,0x03,
7909,40,-157,-999,-70,-770,210,,,,,,,0x03,
7919,40,-161,-1002,-840,-770,280,,,,,,,0x03,
7928,39,-163,-999,-1190,-700,280,,,,,,,0x03,
7938,38,-170,-993,-980,-700,350,,,,,,,0x03,
7948,37,-170,-993,-490,-700,350,,,,,,,0x03,
7957,39,-169,-990,280,-700,350,,,,,,,0x03,
7967,37,-169,-990,630,-630,280,,,,,,,0x03,
7977,34,-166,-991,840,-700,210,,,,,,,0x03,
7986,37,-159,-992,770,-700,140,,,,,,,0x03,
7996,38,-158,-995,280,-560,140,,,,,,,0x03,
8005,37,-159,-996,-350,-630,70,,,,,,,0x03,
8015,37,-161,-998,-700,-700,0,,,,,,,0x03,
8025,36,-164,-998,-770,-490,-70,,,,,,,0x03,
8034,32,-167,-992,-490,-280,0,,,,,,,0x03,
8044,30,-169,-991,-140,-140,70,,,,,,,0x03,
8054,36,-168,-989,840,70,0,,,,,,,0x03,
8063,37,-165,-984,1330,630,70,,,,,,,0x03,
8073,34,-164,-979,1960,910,140,,,,,,,0x03,
8083,35,-161,-985,2660,1260,140,,,,,,,0x03,
8092,35,-154,-985,2940,1680,140,,,,,,,0x03,
8102,34,-152,-983,2520,2170,350,,,,,,,0x03,
8111,39,-153,-985,2240,2590,420,,,,,,,0x03,
8121,39,-160,-977,1260,3010,770,,,,,,,0x03,
8131,34,-163,-985,630,2380,560,,,,,,,0x03,
8140,48,-165,-1010,910,1400,420,,,,,,,0x03,
8150,55,-165,-1025,-70,1260,280,,,,,,,0x03,
8160,47,-172,-1017,-1120,1050,280,,,,,,,0x03,
8169,39,-182,-1009,-700,420,350,,,,,,,0x03,
8179,38,-189,-1002,770,-210,420,,,,,,,0x03,
8189,39,-186,-1002,2170,-770,420,,,,,,,0x03,
8198,38,-191,-994,2730,-980,560,,,,,,,0x03,
8208,39,-197,-993,2870,-1120,210,,,,,,,0x03,
8217,43,-194,-994,4270,-1260,0,,,,,,,0x03,
8227,47,-185,-996,5600,-1330,-70,,,,,,,0x03,
8237,47,-180,-993,5880,-1190,-70,,,,,,,0x03,
8246,46,-174,-987,5530,-1050,-140,,,,,,,0x03,
8256,48,-169,-986,4200,-980,-210,,,,,,,0x03,
8266,48,-166,-986,2450,-910,-280,,,,,,,0x03,
8275,46,-170,-986,840,-910,-350,,,,,,,0x03,
8285,43,-171,-992,-350,-1050,-420,,,,,,,0x03,
8294,41,-168,-991,-1050,-1050,-420,,,,,,,0x03,
8304,35,-170,-991,-1750,-980,-490,,,,,,,0x03,
8314,33,-165,-996,-1890,-1260,-490,,,,,,,0x03,
8323,37,-166,-998,-1960,-1190,-490,,,,,,,0x03,
8333,36,-166,-1001,-2240,-1120,-560,,,,,,,0x03,
8343,38,-162,-996,-2030,-1050,-280,,,,,,,0x03,
8352,38,-166,-991,-1400,-980,-140,,,,,,,0x03,
8362,39,-164,-992,-560,-980,-70,,,,,,,0x03,
8372,39,-160,-988,210,-840,140,,,,,,,0x03,
8381,35,-164,-985,560,-770,280,,,,,,,0x03,
8391,33,-164,-991,1050,-700,280,,,,,,,0x03,
8400,31,-159,-994,1610,-700,350,,,,,,,0x03,
8410,33,-162,-993,1470,-420,420,,,,,,,0x03,
8420,36,-161,-992,1330,-210,560,,,,,,,0x03,
8429,40,-162,-986,1190,0,630,,,,,,,0x03,
8439,41,-166,-979,840,210,700,,,,,,,0x03,
8449,39,-168,-980,350,210,700,,,,,,,0x03,
8458,39,-164,-989,210,70,840,,,,,,,0x03,
8468,43,-168,-997,-70,70,910,,,,,,,0x03,
8478,44,-166,-1005,-560,-70,840,,,,,,,0x03,
8487,45,-171,-1003,-980,-140,980,,,,,,,0x03,
8497,43,-180,-1003,-1540,-280,840,,,,,,,0x03,
8506,44,-182,-998,-1190,-560,770,,,,,,,0x03,
8516,42,-189,-1001,-1050,-840,770,,,,,,,0x03,
8526,45,-190,-995,-770,-840,700,,,,,,,0x03,
8535,44,-191,-990,-630,-980,630,,,,,,,0x03,
8545,48,-190,-989,-140,-1120,630,,,,,,,0x03,
8555,50,-186,-984,490,-980,420,,,,,,,0x03,
8564,46,-180,-985,490,-980,350,,,,,,,0x03,
8574,46,-175,-986,210,-840,280,,,,,,,0x03,
8583,45,-168,-986,-630,-770,0,,,,,,,0x03,
8593,42,-165,-988,-1470,-770,-70,,,,,,,0x03,
8603,40,-165,-992,-2170,-840,-210,,,,,,,0x03,
8612,40,-164,-997,-2800,-1050,-210,,,,,,,0x03,
8622,38,-164,-998,-3150,-1120,-210,,,,,,,0x03,
8632,38,-168,-1002,-2940,-1120,-280,,,,,,,0x03,
8641,38,-169,-995,-2170,-910,-210,,,,,,,0x03,
8651,37,-171,-988,-1400,-700,-70,,,,,,,0x03,
8661,38,-170,-987,-490,-630,0,,,,,,,0x03,
8670,43,-169,-987,420,-490,70,,,,,,,0x03,
8680,42,-165,-992,770,-420,140,,,,,,,0x03,
8689,41,-162,-992,350,-420,140,,,,,,,0x03,
8699,40,-162,-991,-210,-350,-70,,,,,,,0x03,
8709,39,-166,-994,-630,-420,-210,,,,,,,0x03,
8718,41,-168,-996,-1120,-420,-350,,,,,,,0x03,
8728,39,-171,-990,-1470,-350,-490,,,,,,,0x03,
8738,39,-176,-990,-1120,-420,-560,,,,,,,0x03,
8747,39,-173,-994,-280,-700,-560,,,,,,,0x03,
8757,40,-166,-998,70,-980,-490,,,,,,,0x03,
8767,37,-165,-1001,-280,-1050,-490,,,,,,,0x03,
8776,37,-165,-997,-490,-980,-490,,,,,,,0x03,
8786,36,-166,-993,-630,-910,-490,,,,,,,0x03,
8795,39,-166,-992,-350,-910,-490,,,,,,,0x03,
8805,42,-168,-987,-140,-770,-490,,,,,,,0x03,
8815,43,-167,-987,-70,-700,-490,,,,,,,0x03,
8824,44,-169,-990,350,-700,-490,,,,,,,0x03,
8834,48,-169,-992,840,-630,-420,,,,,,,0x03,
8844,44,-165,-994,700,-560,-490,,,,,,,0x03,
8853,44,-166,-989,350,-420,-490,,,,,,,0x03,
8863,43,-167,-992,280,-350,-420,,,,,,,0x03,
8872,43,-168,-993,350,-350,-490,,,,,,,0x03,
8882,40,-168,-989,210,-350,-490,,,,,,,0x03,
8892,37,-170,-991,70,-350,-490,,,,,,,0x03,
8901,37,-171,-994,350,-280,-420,,,,,,,0x03,
8911,36,-170,-990,420,-140,-350,,,,,,,0x03,
8921,39,-174,-992,70,-210,-280,,,,,,,0x03,
8930,45,-174,-999,-70,-350,-280,,,,,,,0x03,
8940,47,-174,-995,-350,-210,-350,,,,,,,0x03,
8950,44,-177,-993,-840,-210,-420,,,,,,,0x03,
8959,44,-176,-992,-700,-350,-560,,,,,,,0x03,
8969,43,-171,-990,-420,-350,-560,,,,,,,0x03,
8978,39,-169,-992,-770,-350,-490,,,,,,,0x03,
8988,40,-167,-992,-1190,-350,-490,,,,,,,0x03,
8998,40,-164,-994,-1680,-420,-420,,,,,,,0x03,
9007,39,-164,-993,-2030,-560,-420,,,,,,,0x03,
9017,39,-164,-992,-2170,-770,-420,,,,,,,0x03,
9027,37,-162,-996,-2240,-1120,-420,,,,,,,0x03,
9036,40,-161,-1007,-2030,-1400,-280,,,,,,,0x03,
9046,44,-162,-1003,-1960,-1190,-140,,,,,,,0x03,
9056,41,-168,-992,-1890,-770,-210,,,,,,,0x03,
9065,41,-175,-986,-1190,-560,-140,,,,,,,0x03,
9075,40,-176,-985,-210,-560,-210,,,,,,,0x03,
9084,39,-166,-984,770,-420,-210,,,,,,,0x03,
9094,38,-160,-985,840,-280,-140,,,,,,,0x03,
9104,40,-153,-993,420,-490,-140,,,,,,,0x03,
9113,45,-148,-997,-210,-490,-140,,,,,,,0x03,
9123,49,-151,-998,-1330,-560,-140,,,,,,,0x03,
9133,47,-158,-998,-2030,-840,-70,,,,,,,0x03,
9142,47,-165,-998,-1890,-1120,-70,,,,,,,0x03,
9152,48,-162,-998,-980,-1190,-70,,,,,,,0x03,
9162,44,-174,-998,-420,-1120,280,,,,,,,0x03,
9171,38,-175,-989,700,-1190,140,,,,,,,0x03,
9181,34,-171,-992,1960,-1190,280,,,,,,,0x03,
9190,40,-167,-992,3010,-1330,280,,,,,,,0x03,
9200,40,-167,-994,2660,-1190,490,,,,,,,0x03,
9210,42,-166,-992,2030,-1190,210,,,,,,,0x03,
9219,43,-174,-991,1260,-1120,140,,,,,,,0x03,
9229,45,-175,-989,840,-1120,0,,,,,,,0x03,
9239,44,-179,-987,350,-980,-140,,,,,,,0x03,
9248,41,-182,-989,-70,-1190,-280,,,,,,,0x03,
9258,41,-181,-997,-210,-1330,-350,,,,,,,0x03,
9267,43,-173,-999,-700,-1260,-420,,,,,,,0x03,
9277,39,-174,-993,-1610,-980,-490,,,,,,,0x03,
9287,38,-173,-989,-1890,-980,-630,,,,,,,0x03,
9296,41,-169,-988,-1470,-980,-700,,,,,,,0x03,
9306,41,-162,-987,-1750,-770,-630,,,,,,,0x03,
9316,39,-163,-991,-1890,-840,-560,,,,,,,0x03,
9325,39,-164,-995,-1610,-770,-630,,,,,,,0x03,
9335,38,-160,-995,-1190,-700,-630,,,,,,,0x03,
9345,36,-160,-995,-1050,-630,-490,,,,,,,0x03,
9354,37,-161,-996,-560,-630,-490,,,,,,,0x03,
9364,40,-158,-994,-420,-560,-420,,,,,,,0x03,
9373,37,-161,-988,-420,-350,-280,,,,,,,0x03,
9383,38,-165,-989,-140,-490,-210,,,,,,,0x03,
9393,40,-165,-996,700,-560,-210,,,,,,,0x03,
9402,43,-161,-1000,910,-420,-70,,,,,,,0x03,
9412,41,-165,-997,630,-420,-70,,,,,,,0x03,
9422,42,-167,-996,560,-630,-70,,,,,,,0x03,
9431,41,-167,-993,560,-840,-70,,,,,,,0x03,
9441,41,-170,-992,350,-840,-140,,,,,,,0x03,
9451,41,-175,-993,-70,-840,-210,,,,,,,0x03,
9460,42,-175,-990,-140,-770,-280,,,,,,,0x03,
9470,40,-175,-991,-70,-910,-280,,,,,,,0x03,
9479,42,-172,-996,70,-980,-350,,,,,,,0x03,
9489,42,-169,-995,70,-770,-420,,,,,,,0x03,
9499,40,-165,-992,-280,-700,-420,,,,,,,0x03,
9508,40,-165,-989,-770,-700,-350,,,,,,,0x03,
9518,42,-164,-990,-1050,-630,-490,,,,,,,0x03,
9528,41,-167,-990,-1190,-490,-490,,,,,,,0x03,
9537,41,-166,-991,-1190,-420,-560,,,,,,,0x03,
9547,39,-163,-988,-630,-350,-490,,,,,,,0x03,
9556,38,-159,-992,-70,-560,-420,,,,,,,0x03,
9566,42,-157,-999,70,-560,-350,,,,,,,0x03,
9576,41,-155,-1001,-70,-560,-280,,,,,,,0x03,
9585,39,-161,-997,-420,-490,-140,,,,,,,0x03,
9595,39,-167,-993,-420,-560,-140,,,,,,,0x03,
9605,40,-168,-994,140,-700,-70,,,,,,,0x03,
9614,40,-169,-995,560,-840,-70,,,,,,,0x03,
9624,39,-168,-996,840,-840,70,,,,,,,0x03,
9634,37,-168,-994,910,-700,70,,,,,,,0x03,
9643,34,-168,-987,840,-420,0,,,,,,,0x03,
9653,30,-168,-983,700,-280,0,,,,,,,0x03,
9662,32,-166,-987,630,-350,0,,,,,,,0x03,
9672,36,-166,-994,280,-420,70,,,,,,,0x03,
9682,40,-164,-1000,-420,-700,0,,,,,,,0x03,
9691,44,-164,-1003,-1260,-910,-70,,,,,,,0x03,
9701,46,-165,-1001,-1960,-1050,-140,,,,,,,0x03,
9711,48,-168,-997,-2100,-1260,-70,,,,,,,0x03,
9720,49,-172,-997,-1540,-1470,0,,,,,,,0x03,
9730,50,-174,-991,-840,-1680,70,,,,,,,0x03,
9740,42,-175,-993,-70,-1960,-140,,,,,,,0x03,
9749,44,-177,-1000,350,-2590,-140,,,,,,,0x03,
9759,46,-159,-996,700,-2520,-630,,,,,,,0x03,
9768,40,-161,-996,-490,-2520,-280,,,,,,,0x03,
9778,40,-163,-997,-1400,-2730,-420,,,,,,,0x03,
9788,42,-163,-990,-1890,-2660,-560,,,,,,,0x03,
9797,42,-160,-989,-2800,-2450,-700,,,,,,,0x03,
9807,42,-169,-986,-3010,-2170,-630,,,,,,,0x03,
9817,38,-169,-983,-2310,-1960,-910,,,,,,,0x03,
9826,36,-162,-988,-1330,-1820,-910,,,,,,,0x03,
9836,37,-156,-989,-770,-1330,-840,,,,,,,0x03,
9845,37,-155,-988,-350,-770,-770,,,,,,,0x03,
9855,32,-151,-985,70,-420,-840,,,,,,,0x03,
9865,32,-148,-989,420,-490,-770,,,,,,,0x03,
9874,32,-149,-997,490,-420,-770,,,,,,,0x03,
9884,33,-148,-998,560,-280,-700,,,,,,,0x03,
9894,30,-153,-995,560,-140,-630,,,,,,,0x03,
9903,32,-158,-996,1190,-210,-420,,,,,,,0x03,
9913,35,-159,-994,2100,-210,-350,,,,,,,0x03,
9923,33,-163,-991,2660,-140,-280,,,,,,,0x03,
9932,31,-163,-994,3150,-280,-140,,,,,,,0x03,
9942,35,-163,-995,3850,-280,0,,,,,,,0x03,
9951,36,-164,-995,3570,-210,0,,,,,,,0x03,
9961,38,-166,-993,3150,-210,140,,,,,,,0x03,
9971,41,-172,-990,2660,-210,140,,,,,,,0x03,
9980,40,-175,-991,2100,-280,70,,,,,,,0x03,
9990,42,-177,-995,1820,-490,70,,,,,,,0x03,
10000,45,-179,-992,1400,-280,-70,,,,,,,0x03,
10009,39,-181,-990,1120,-280,-140,,,,,,,0x03,
10019,39,-180,-994,1120,-560,-210,,,,,,,0x03,
10029,42,-176,-994,840,-630,-350,,,,,,,0x03,
10038,42,-172,-997,70,-770,-350,,,,,,,0x03,
10048,41,-171,-999,-910,-910,-280,,,,,,,0x03,
10057,43,-172,-1000,-1400,-910,-350,,,,,,,0x03,
10067,43,-171,-998,-1680,-1050,-420,,,,,,,0x03,
10077,43,-171,-995,-2310,-980,-350,,,,,,,0x03,
10086,42,-172,-992,-2660,-1120,-420,,,,,,,0x03,
10096,40,-173,-989,-3080,-1120,-560,,,,,,,0x03,
10106,39,-172,-989,-3500,-1190,-630,,,,,,,0x03,
10115,36,-174,-987,-3290,-1050,-630,,,,,,,0x03,
10125,33,-171,-990,-3080,-1120,-700,,,,,,,0x03,
10134,33,-167,-989,-2940,-980,-770,,,,,,,0x03,
10144,33,-162,-994,-3010,-980,-700,,,,,,,0x03,
10154,41,-160,-1002,-2800,-1120,-630,,,,,,,0x03,
10163,42,-160,-999,-2590,-980,-630,,,,,,,0x03,
10173,38,-156,-995,-2450,-1050,-560,,,,,,,0x03,
10183,35,-159,-993,-2030,-1190,-420,,,,,,,0x03,
10192,37,-157,-994,-1470,-1330,-420,,,,,,,0x03,
10202,37,-155,-992,-1330,-1190,-210,,,,,,,0x03,
10212,34,-163,-991,-1330,-980,-210,,,,,,,0x03,
10221,33,-162,-993,-350,-1050,-210,,,,,,,0x03,
10231,34,-159,-996,490,-980,-140,,,,,,,0x03,
10240,34,-159,-995,840,-910,-70,,,,,,,0x03,
10250,35,-161,-994,1050,-840,-70,,,,,,,0x03,
10260,36,-159,-992,1190,-910,-70,,,,,,,0x03,
10269,40,-164,-989,1260,-700,0,,,,,,,0x03,
10279,37,-167,-986,1190,-560,0,,,,,,,0x03,
10289,34,-170,-985,1400,-700,-70,,,,,,,0x03,
10298,33,-167,-994,1330,-840,-70,,,,,,,0x03,
10308,39,-162,-1002,910,-770,-70,,,,,,,0x03,
10318,39,-160,-999,70,-700,-70,,,,,,,0x03,
10327,39,-167,-997,-770,-630,-70,,,,,,,0x03,
10337,41,-168,-999,-770,-840,-140,,,,,,,0x03,
10346,42,-171,-995,-700,-910,-70,,,,,,,0x03,
10356,40,-172,-990,-770,-840,-140,,,,,,,0x03,
10366,38,-173,-992,-630,-1190,-280,,,,,,,0x03,
10375,39,-168,-999,-350,-1400,-280,,,,,,,0x03,
10385,38,-167,-1001,-630,-1330,-350,,,,,,,0x03,
10395,34,-165,-995,-1260,-1120,-420,,,,,,,0x03,
10404,32,-165,-987,-1680,-910,-420,,,,,,,0x03,
10414,32,-167,-986,-1540,-770,-280,,,,,,,0x03,
10424,34,-164,-987,-1190,-770,-280,,,,,,,0x03,
10433,38,-158,-991,-910,-700,-350,,,,,,,0x03,
10443,39,-156,-990,-910,-630,-210,,,,,,,0x03,
10452,39,-154,-993,-980,-490,-280,,,,,,,0x03,
10462,41,-152,-994,-980,-350,-350,,,,,,,0x03,
10472,40,-152,-992,-980,-280,-210,,,,,,,0x03,
10481,40,-152,-993,-840,-350,-210,,,,,,,0x03,
10491,38,-155,-993,-490,-280,-140,,,,,,,0x03,
10501,36,-157,-996,280,-350,-70,,,,,,,0x03,
10510,36,-158,-1001,1260,-350,0,,,,,,,0x03,
10520,36,-158,-992,1820,0,0,,,,,,,0x03,
10529,33,-159,-987,2380,140,140,,,,,,,0x03,
10539,35,-159,-986,3150,280,280,,,,,,,0x03,
10549,37,-153,-990,3920,210,420,,,,,,,0x03,
10558,36,-160,-992,3430,490,770,,,,,,,0x03,
10568,33,-159,-989,2240,770,420,,,,,,,0x03,
10578,33,-162,-989,1960,700,490,,,,,,,0x03,
10587,36,-167,-994,1330,630,350,,,,,,,0x03,
10597,37,-168,-994,980,490,280,,,,,,,0x03,
10607,36,-172,-999,490,140,350,,,,,,,0x03,
10616,37,-177,-1006,210,-140,140,,,,,,,0x03,
10626,40,-176,-1009,140,-350,140,,,,,,,0x03,
10635,40,-179,-1006,-70,-560,140,,,,,,,0x03,
10645,41,-182,-1000,-70,-700,70,,,,,,,0x03,
10655,43,-181,-997,280,-910,-70,,,,,,,0x03,
10664,42,-176,-991,630,-1050,-140,,,,,,,0x03,
10674,43,-175,-984,420,-840,-210,,,,,,,0x03,
10684,40,-173,-982,70,-630,-280,,,,,,,0x03,
10693,40,-168,-982,-70,-420,-420,,,,,,,0x03,
10703,39,-165,-984,-560,-210,-490,,,,,,,0x03,
10713,40,-158,-988,-1120,-210,-490,,,,,,,0x03,
10722,41,-156,-997,-1680,-350,-490,,,,,,,0x03,
10732,43,-155,-1003,-2170,-490,-490,,,,,,,0x03,
10741,42,-156,-1001,-2730,-490,-490,,,,,,,0x03,
10751,42,-160,-1001,-2520,-770,-420,,,,,,,0x03,
10761,45,-166,-1000,-1890,-980,-420,,,,,,,0x03,
10770,45,-167,-996,-1120,-980,-350,,,,,,,0x03,
10780,40,-169,-993,-630,-980,-280,,,,,,,0x03,
10790,41,-168,-989,210,-1050,-210,,,,,,,0x03,
10799,40,-163,-986,700,-910,-140,,,,,,,0x03,
10809,40,-159,-987,700,-980,-140,,,,,,,0x03,
10818,41,-160,-991,140,-840,-140,,,,,,,0x03,
10828,39,-156,-991,-420,-840,-210,,,,,,,0x03,
10838,38,-161,-992,-1190,-840,-210,,,,,,,0x03,
10847,37,-165,-995,-1400,-910,-210,,,,,,,0x03,
10857,37,-168,-997,-980,-980,-210,,,,,,,0x03,
10867,37,-167,-999,-490,-1050,-210,,,,,,,0x03,
10876,35,-168,-998,-280,-980,-210,,,,,,,0x03,
10886,32,-168,-991,-70,-840,-210,,,,,,,0x03,
10896,29,-167,-989,210,-700,-140,,,,,,,0x03,
10905,31,-165,-992,490,-560,-210,,,,,,,0x03,
10915,31,-163,-988,420,-280,-210,,,,,,,0x03,
10924,31,-163,-987,-70,-280,-210,,,,,,,0x03,
10934,37,-160,-996,-210,-560,-280,,,,,,,0x03,
10944,42,-159,-1001,-700,-630,-350,,,,,,,0x03,
10953,41,-158,-1000,-1330,-560,-350,,,,,,,0x03,
10963,40,-165,-998,-1540,-700,-280,,,,,,,0x03,
10973,44,-168,-996,-980,-840,-280,,,,,,,0x03,
10982,44,-166,-990,-210,-700,-210,,,,,,,0x03,
10992,39,-168,-988,420,-770,-70,,,,,,,0x03,
11002,40,-166,-992,1120,-700,-70,,,,,,,0x03,
11011,38,-158,-988,1610,-420,0,,,,,,,0x03,
11021,35,-158,-988,1190,-490,0,,,,,,,0x03,
11030,37,-158,-992,700,-490,-70,,,,,,,0x03,
11040,38,-158,-994,70,-420,-70,,,,,,,0x03,
11050,38,-161,-996,-630,-350,-70,,,,,,,0x03,
11059,40,-168,-997,-1050,-280,-70,,,,,,,0x03,
11069,43,-170,-999,-910,-280,0,,,,,,,0x03,
11079,45,-175,-996,-630,-140,140,,,,,,,0x03,
11088,46,-176,-992,140,70,70,,,,,,,0x03,
11098,43,-173,-984,1120,140,70,,,,,,,0x03,
11107,41,-167,-984,1610,140,140,,,,,,,0x03,
11117,44,-164,-991,1820,70,140,,,,,,,0x03,
11127,45,-161,-992,1050,350,70,,,,,,,0x03,
11136,43,-162,-993,-350,490,0,,,,,,,0x03,
11146,41,-164,-995,-1400,560,-70,,,,,,,0x03,
11156,40,-167,-992,-1750,560,-140,,,,,,,0x03,
11165,39,-166,-995,-2100,420,-140,,,,,,,0x03,
11175,42,-167,-993,-1960,560,-280,,,,,,,0x03,
11185,37,-164,-989,-2100,560,-280,,,,,,,0x03,
11194,37,-166,-998,-1960,70,-280,,,,,,,0x03,
11204,41,-163,-1005,-1610,-280,-350,,,,,,,0x03,
11213,39,-157,-1002,-1330,-350,-350,,,,,,,0x03,
11223,37,-159,-1001,-1470,-700,-280,,,,,,,0x03,
11233,40,-157,-1000,-1190,-840,-350,,,,,,,0x03,
11242,42,-158,-998,-1120,-910,-210,,,,,,,0x03,
11252,42,-161,-992,-1260,-840,-140,,,,,,,0x03,
11262,40,-163,-989,-1050,-630,-280,,,,,,,0x03,
11271,38,-160,-984,-280,-490,-210,,,,,,,0x03,
11281,38,-158,-987,420,-490,-70,,,,,,,0x03,
11291,42,-153,-989,840,-490,-70,,,,,,,0x03,
11300,42,-151,-995,560,-560,0,,,,,,,0x03,
11310,43,-153,-997,-70,-490,0,,,,,,,0x03,
11319,41,-154,-991,-490,-350,-70,,,,,,,0x03,
11329,39,-157,-992,-350,-700,70,,,,,,,0x03,
11339,45,-158,-1000,350,-980,140,,,,,,,0x03,
11348,47,-159,-1001,350,-980,280,,,,,,,0x03,
11358,45,-165,-998,140,-840,280,,,,,,,0x03,
11368,42,-170,-990,420,-840,280,,,,,,,0x03,
11377,41,-169,-990,1120,-840,210,,,,,,,0x03,
11387,46,-169,-990,1330,-770,280,,,,,,,0x03,
11396,45,-167,-992,910,-770,140,,,,,,,0x03,
11406,43,-168,-990,350,-630,210,,,,,,,0x03,
11416,40,-167,-990,-140,-560,70,,,,,,,0x03,
11425,39,-165,-992,-420,-700,-70,,,,,,,0x03,
11435,39,-164,-995,-910,-840,-70,,,,,,,0x03,
11445,38,-166,-998,-1680,-840,-140,,,,,,,0x03,
11454,34,-165,-995,-2240,-770,-210,,,,,,,0x03,
11464,36,-166,-999,-2100,-770,-210,,,,,,,0x03,
11474,38,-163,-995,-1890,-630,-280,,,,,,,0x03,
11483,38,-163,-989,-1610,-630,-140,,,,,,,0x03,
11493,41,-161,-992,-1050,-770,-140,,,,,,,0x03,
11502,42,-158,-994,-280,-700,-140,,,,,,,0x03,
11512,42,-152,-995,-140,-560,-140,,,,,,,0x03,
11522,40,-152,-991,-70,-350,0,,,,,,,0x03,
11531,38,-155,-988,140,-280,0,,,,,,,0x03,
11541,40,-154,-991,420,-210,70,,,,,,,0x03,
11551,43,-154,-994,770,0,70,,,,,,,0x03,
11560,43,-156,-991,840,70,70,,,,,,,0x03,
11570,42,-158,-990,980,140,70,,,,,,,0x03,
11580,42,-160,-991,1190,-70,140,,,,,,,0x03,
11589,43,-159,-999,1260,-420,140,,,,,,,0x03,
11599,46,-156,-1003,1190,-560,140,,,,,,,0x03,
11608,44,-157,-997,630,-630,280,,,,,,,0x03,
11618,41,-167,-996,-210,-630,140,,,,,,,0x03,
11628,43,-168,-998,-420,-700,70,,,,,,,0x03,
11637,44,-168,-993,-420,-700,0,,,,,,,0x03,
11647,44,-169,-990,-210,-630,-70,,,,,,,0x03,
11657,43,-166,-991,210,-630,0,,,,,,,0x03,
11666,43,-164,-995,350,-700,140,,,,,,,0x03,
11676,46,-163,-996,350,-840,140,,,,,,,0x03,
11685,43,-163,-996,210,-840,70,,,,,,,0x03,
11695,42,-163,-997,70,-910,70,,,,,,,0x03,
11705,39,-166,-998,-210,-1120,0,,,,,,,0x03,
11714,42,-166,-998,-420,-1190,-70,,,,,,,0x03,
11724,40,-168,-989,-840,-1120,0,,,,,,,0x03,
11734,39,-171,-991,-1260,-1190,-140,,,,,,,0x03,
11743,40,-167,-994,-1120,-1120,-210,,,,,,,0x03,
11753,38,-162,-990,-1190,-910,-140,,,,,,,0x03,
11763,37,-163,-993,-1330,-910,-70,,,,,,,0x03,
11772,39,-161,-994,-1050,-840,-140,,,,,,,0x03,
11782,39,-158,-995,-560,-700,-70,,,,,,,0x03,
11791,38,-157,-997,-630,-630,0,,,,,,,0x03,
11801,38,-159,-991,-770,-560,0,,,,,,,0x03,
11811,39,-161,-992,-770,-700,-70,,,,,,,0x03,
11820,40,-160,-993,-490,-700,-70,,,,,,,0x03,
11830,40,-160,-992,-490,-630,70,,,,,,,0x03,
11840,40,-161,-994,-490,-630,140,,,,,,,0x03,
