accX[g],accY[g],accZ[g]
-0.011,-0.034,-0.994
-0.011,-0.034,-0.993
-0.01,-0.034,-0.992
-0.01,-0.034,-0.992
-0.011,-0.035,-0.992
-0.011,-0.034,-0.993
-0.01,-0.034,-0.992
-0.011,-0.034,-0.994
-0.009,-0.035,-0.994
-0.01,-0.036,-0.991
-0.01,-0.034,-0.99
-0.01,-0.033,-0.994
0.282,0.037,-1.444
0.17,-0.246,-1.352
0.192,-0.72,-1.2
0.29,-0.03,-1.371
0.059,-0.147,-1.304
0.237,-0.081,-1.164
0.056,-0.034,-1.072
0.046,-0.029,-0.945
0.011,-0.041,-0.838
0.091,-0.103,-0.801
0.051,-0.157,-0.877
-0.073,-0.288,-0.964
-0.157,-0.347,-0.917
-0.299,-0.468,-0.848
-0.135,-0.428,-1.078
-0.234,-0.349,-0.891
0.006,-0.299,-0.776
-0.041,-0.142,-0.874
-0.034,-0.062,-0.749
-0.083,0.065,-0.691
-0.145,0.132,-0.884
-0.11,0.077,-1.02
-0.074,0.121,-0.883
-0.116,0.129,-0.968
-0.295,0.121,-1.31
-0.329,-0.019,-1.114
-0.363,-0.102,-1.103
-0.292,-0.09,-0.924
-0.296,-0.063,-0.79
-0.209,-0.081,-0.92
-0.189,-0.15,-0.945
0.092,-0.227,-0.986
0.119,-0.24,-1.138
0.056,-0.199,-1.031
-0.103,-0.189,-1.199
-0.085,-0.149,-0.976
-0.098,-0.03,-0.977
-0.166,0.053,-0.88
-0.054,0.002,-0.837
0.025,0.026,-0.91
-0.113,0.107,-0.952
-0.146,0.107,-0.932
0.018,0.153,-1.101
-0.027,0.101,-1.131
-0.046,0.139,-1.021
-0.213,0.159,-1.088
-0.214,0.059,-0.978
-0.366,0.06,-0.825
-0.348,-0.031,-1.027
-0.407,-0.077,-0.935
-0.305,-0.074,-0.97
-0.339,-0.08,-0.892
-0.228,-0.102,-0.971
-0.235,-0.093,-1.061
-0.115,-0.128,-1.015
0.009,-0.042,-0.944
-0.015,-0.048,-1.247
0.04,-0.186,-0.931
-0.083,-0.216,-1.048
-0.068,-0.189,-1.031
-0.115,-0.182,-0.953
-0.048,-0.127,-0.826
-0.058,-0.022,-0.902
0.017,-0.002,-1.04
-0.013,0.005,-0.995
-0.028,0.002,-1.105
-0.006,0.022,-1.07
-0.049,-0.085,-1.228
-0.25,-0.174,-0.903
-0.28,-0.157,-0.987
-0.203,-0.163,-0.917
-0.172,-0.025,-0.791
-0.091,-0.008,-0.803
-0.089,0.085,-0.814
-0.006,0.09,-0.919
-0.015,0.051,-1.027
-0.028,-0.129,-1.272
-0.159,-0.273,-1.35
-0.237,-0.379,-1.305
-0.045,-0.369,-1.081
-0.028,-0.277,-0.855
-0.084,-0.128,-0.697
-0.1,0.013,-0.609
-0.146,0.153,-0.685
-0.179,0.263,-0.815
-0.245,0.313,-1.016
-0.376,0.224,-1.254
-0.364,-0.02,-1.418
-0.36,-0.199,-1.173
-0.395,-0.2,-1.108
-0.272,-0.273,-1.092
-0.15,-0.224,-0.845
-0.062,-0.187,-0.816
0.012,-0.084,-0.825
0.14,-0.069,-0.768
0.279,-0.123,-0.935
0.274,-0.153,-1.066
0.305,-0.24,-1.203
0.202,-0.22,-1.052
0.208,-0.169,-1.076
0.143,-0.125,-0.897
-0.088,-0.043,-0.837
-0.206,0.016,-0.766
-0.334,0.164,-0.864
-0.452,0.285,-0.857
-0.558,0.362,-1.008
-0.417,0.339,-1.055
-0.411,0.339,-1.192
-0.426,0.158,-1.189
-0.409,-0.045,-1.091
-0.165,-0.184,-0.802
-0.336,-0.189,-1.005
-0.023,-0.206,-0.733
0.102,-0.164,-0.8
0.266,-0.147,-0.775
0.32,-0.123,-1.0
0.21,-0.132,-0.922
0.229,-0.057,-1.133
0.199,-0.119,-1.034
0.119,-0.144,-1.123
0.074,-0.117,-1.014
-0.037,-0.065,-0.89
-0.139,-0.033,-0.885
-0.277,0.082,-0.959
-0.329,0.102,-1.012
-0.398,0.075,-1.205
-0.207,-0.009,-0.937
-0.369,0.009,-1.179
-0.274,-0.154,-0.972
-0.326,-0.286,-0.925
-0.237,-0.31,-0.848
-0.116,-0.226,-0.777
-0.019,-0.255,-0.699
-0.092,-0.183,-0.917
0.03,-0.169,-0.906
0.025,-0.227,-0.991
-0.016,-0.146,-1.007
0.008,-0.099,-1.104
-0.098,-0.176,-0.982
0.038,-0.155,-0.971
-0.08,-0.099,-0.986
-0.095,-0.022,-0.953
-0.073,-0.027,-0.734
-0.042,-0.025,-0.755
-0.116,-0.116,-1.007
-0.134,-0.116,-0.853
-0.149,-0.192,-1.061
-0.064,-0.42,-0.947
-0.261,-0.219,-1.198
-0.293,-0.318,-0.919
-0.213,-0.161,-1.039
-0.081,-0.131,-0.983
-0.119,-0.241,-1.004
-0.137,-0.255,-1.051
-0.077,-0.232,-1.14
0.114,-0.233,-1.156
0.075,-0.101,-0.977
-0.018,0.139,-1.046
0.074,0.247,-1.008
-0.04,0.056,-0.973
-0.025,-0.051,-0.996
0.006,-0.069,-0.943
-0.013,-0.052,-0.942
-0.039,0.094,-1.065
0.033,0.175,-1.049
0.033,0.067,-1.002
-0.033,-0.036,-0.976
-0.02,-0.042,-0.959
0.015,0.051,-0.995
0.028,0.099,-1.003
0.009,0.065,-0.997
-0.009,-0.003,-0.978
-0.012,-0.003,-0.983
0.004,0.052,-0.999
0.01,0.071,-1.001
-0.002,0.033,-0.99
-0.007,0.009,-0.981
-0.001,0.028,-0.994
0.005,0.054,-0.995
0.002,0.045,-0.995
-0.004,0.024,-0.991
-0.004,0.024,-0.991
0.001,0.041,-0.995
0.262,-0.004,-0.907
-0.043,-0.021,-1.432
0.108,-0.401,-1.422
-0.088,-0.126,-1.404
-0.126,-0.119,-1.404
0.031,-0.208,-1.377
-0.129,-0.197,-1.267
-0.182,-0.024,-1.101
-0.226,0.083,-0.998
-0.095,0.115,-0.829
-0.089,0.073,-0.774
-0.297,0.021,-0.708
-0.249,0.125,-0.743
0.27,0.345,-0.674
0.279,0.306,-0.68
0.134,0.159,-0.815
0.038,0.093,-0.662
0.007,0.123,-0.798
-0.022,0.167,-0.858
0.016,0.15,-0.904
0.063,0.141,-0.9
0.055,0.208,-1.015
0.031,0.208,-0.984
-0.105,0.215,-1.048
0.036,0.222,-1.006
-0.321,0.146,-1.264
-0.45,0.188,-1.315
-0.323,0.151,-1.136
-0.209,0.266,-0.862
-0.267,0.263,-0.66
-0.376,0.295,-0.668
-0.273,0.318,-0.739
-0.215,0.186,-0.904
-0.03,0.173,-1.017
0.082,0.232,-1.132
0.131,0.137,-1.199
0.165,0.235,-1.051
0.218,0.109,-1.015
0.176,-0.01,-0.848
-0.091,0.015,-0.877
-0.081,0.059,-0.748
-0.012,0.225,-0.607
-0.157,0.375,-0.842
-0.223,0.448,-0.881
-0.322,0.554,-1.123
-0.418,0.478,-1.381
-0.353,0.188,-1.081
-0.333,0.122,-0.988
-0.36,0.038,-1.026
-0.211,-0.019,-0.824
-0.062,-0.023,-0.808
0.01,0.022,-0.825
0.102,0.01,-0.828
0.169,0.044,-0.96
0.213,0.036,-1.046
0.166,0.095,-1.136
0.209,0.021,-1.157
0.145,-0.029,-1.039
0.034,-0.025,-0.911
-0.087,0.016,-0.834
-0.124,0.089,-0.811
-0.184,0.164,-0.9
-0.226,0.236,-0.935
-0.259,0.284,-1.099
-0.301,0.312,-1.148
-0.39,0.179,-1.248
-0.332,0.132,-1.026
-0.215,-0.091,-0.85
-0.323,-0.015,-1.0
-0.035,-0.052,-0.765
-0.034,0.007,-0.831
0.025,0.044,-0.872
0.081,0.059,-0.866
0.33,0.123,-1.08
0.274,0.158,-1.113
0.148,0.11,-1.109
0.102,-0.017,-0.938
0.069,-0.001,-0.958
0.026,0.012,-0.844
-0.045,0.054,-0.85
-0.122,0.152,-0.77
-0.052,0.259,-0.809
-0.188,0.193,-1.19
-0.1,0.259,-1.053
-0.206,0.057,-0.954
-0.19,0.156,-1.14
-0.126,-0.099,-0.761
-0.126,-0.071,-0.817
-0.007,0.045,-0.856
0.001,-0.141,-0.729
0.004,0.06,-0.9
0.171,0.116,-1.039
0.008,-0.104,-1.147
0.022,0.069,-1.096
0.09,-0.345,-0.917
-0.025,-0.23,-0.928
-0.002,-0.224,-1.057
-0.036,-0.158,-1.145
-0.099,-0.078,-1.081
-0.118,-0.111,-1.18
-0.133,-0.174,-1.118
-0.028,-0.155,-1.035
-0.137,-0.175,-1.279
-0.201,-0.111,-1.41
-0.05,-0.076,-0.807
-0.075,-0.035,-1.136
-0.026,-0.056,-0.965
0.074,-0.005,-0.994
-0.003,-0.056,-0.974
-0.051,-0.053,-0.99
-0.001,-0.034,-1.004
0.035,-0.046,-0.998
-0.019,-0.057,-0.981
-0.035,-0.037,-0.987
-0.005,-0.038,-1.002
-0.018,-0.049,-1.001
-0.019,-0.048,-0.998
-0.011,-0.036,-0.983
-0.023,-0.037,-0.986
-0.004,-0.049,-0.995
0.015,-0.049,-0.999
-0.018,-0.039,-0.998
-0.023,-0.041,-0.984
0.004,-0.049,-0.985
-0.006,-0.046,-0.995
-0.02,-0.035,-0.986
-0.01,-0.042,-0.991
-0.014,-0.049,-0.997
-0.005,-0.045,-0.998
-0.001,-0.04,-0.983
0.369,-0.079,-0.952
0.022,-0.273,-1.481
-0.145,0.097,-1.456
-0.132,-0.185,-1.407
-0.292,-0.094,-1.452
-0.365,-0.095,-1.453
-0.236,0.02,-1.307
-0.196,0.305,-1.16
0.053,-0.174,-0.726
-0.09,-0.133,-0.615
-0.054,-0.071,-0.618
-0.038,0.015,-0.476
-0.083,0.093,-0.302
-0.439,0.133,-0.36
-0.08,0.341,-0.939
0.108,0.395,-0.928
0.119,0.243,-0.802
0.018,0.222,-0.854
0.085,0.151,-0.723
0.01,0.137,-0.935
0.122,0.049,-0.963
0.125,0.069,-1.089
0.095,0.118,-1.108
-0.002,0.135,-1.13
-0.068,0.164,-1.231
-0.085,0.077,-1.151
-0.171,0.011,-0.994
-0.116,0.043,-1.201
-0.258,0.02,-1.034
-0.169,-0.02,-0.913
-0.111,-0.044,-0.762
-0.031,0.048,-0.764
0.018,0.144,-0.835
0.092,0.222,-0.884
0.117,0.234,-1.076
0.29,0.216,-1.153
0.337,0.003,-1.354
0.185,-0.217,-1.114
0.137,-0.135,-0.963
0.142,-0.099,-0.904
-0.026,-0.13,-0.796
-0.111,-0.018,-0.798
-0.176,0.123,-0.857
-0.289,0.235,-0.915
-0.353,0.333,-1.084
-0.266,0.308,-1.136
-0.279,0.267,-1.182
-0.318,0.123,-1.066
-0.302,0.067,-1.069
-0.267,-0.074,-0.991
-0.112,-0.11,-0.811
0.0,-0.055,-0.779
0.08,-0.01,-0.819
0.18,0.019,-0.871
0.191,0.003,-1.117
0.23,0.025,-1.123
0.349,0.038,-1.158
0.35,-0.02,-1.022
0.328,-0.098,-1.078
0.181,-0.163,-0.932
0.074,-0.059,-0.758
0.011,0.057,-0.773
-0.086,0.158,-0.849
-0.083,0.27,-0.976
-0.123,0.304,-1.232
-0.218,0.299,-1.336
-0.3,0.155,-1.186
-0.278,0.078,-1.007
-0.242,0.036,-0.938
-0.157,-0.009,-0.755
0.005,0.005,-0.733
0.065,0.045,-0.819
0.179,0.043,-0.884
0.248,0.057,-1.124
0.227,0.014,-1.029
0.328,0.041,-1.044
0.255,0.0,-1.013
0.217,-0.059,-0.995
0.099,-0.053,-0.93
-0.001,0.007,-0.744
-0.028,0.122,-0.887
-0.054,0.215,-0.883
-0.073,0.271,-0.959
-0.188,0.271,-1.202
-0.177,0.26,-1.117
-0.222,0.176,-1.076
-0.143,0.022,-0.722
-0.107,0.101,-1.028
-0.095,-0.038,-0.654
-0.076,0.087,-0.624
0.039,-0.047,-0.73
0.03,0.116,-0.743
0.206,0.029,-0.673
0.1,0.094,-0.856
-0.002,0.007,-0.847
0.013,-0.218,-0.572
0.111,-0.101,-0.833
-0.054,-0.097,-0.846
0.005,-0.176,-0.898
-0.086,-0.148,-1.003
-0.123,-0.203,-1.062
-0.181,-0.214,-1.197
-0.172,-0.181,-1.261
-0.117,-0.133,-1.291
-0.119,-0.135,-1.388
-0.061,-0.167,-1.305
-0.097,-0.128,-1.317
-0.783,0.838,-1.677
-0.379,-1.089,0.031
0.009,-0.15,-1.0
-0.016,-0.151,-1.037
-0.004,-0.064,-0.981
-0.003,-0.003,-1.014
-0.02,-0.048,-1.002
-0.017,-0.058,-0.988
-0.009,-0.038,-0.997
-0.016,-0.066,-0.992
-0.011,-0.039,-0.997
-0.015,-0.053,-0.991
-0.011,-0.044,-0.996
-0.014,-0.048,-0.992
-0.012,-0.047,-0.992
-0.013,-0.048,-0.992
-0.014,-0.047,-0.994
-0.012,-0.048,-0.992
-0.013,-0.048,-0.994
-0.012,-0.046,-0.992
-0.013,-0.048,-0.993
-0.012,-0.048,-0.991
-0.012,-0.047,-0.994
-0.013,-0.047,-0.992
-0.012,-0.047,-0.991
-0.013,-0.049,-0.99
-0.013,-0.047,-0.993
-0.013,-0.048,-0.993
-0.013,-0.048,-0.992
-0.012,-0.048,-0.994
-0.011,-0.048,-0.992
-0.013,-0.048,-0.992
-0.523,-0.203,-1.313
0.078,-0.212,-1.686
0.172,-0.007,-1.599
-0.112,-0.237,-1.587
-0.084,-0.229,-1.385
-0.025,-0.195,-1.495
-0.054,-0.157,-1.533
-0.045,-0.189,-1.255
0.068,0.173,-0.923
0.089,0.041,-1.202
-0.097,0.172,-0.64
-0.074,0.029,-0.223
0.134,0.11,0.052
0.124,0.122,-0.292
-0.779,0.06,-0.61
0.332,-0.251,-0.811
-0.137,0.123,-0.985
-0.232,0.128,-0.972
-0.226,0.078,-0.899
-0.124,0.044,-0.888
-0.097,0.134,-0.905
-0.07,0.212,-0.97
0.044,0.183,-0.969
0.169,0.213,-0.934
0.075,0.135,-1.04
0.116,0.149,-1.045
0.074,0.143,-0.892
0.056,0.201,-0.887
0.078,0.191,-0.835
0.054,0.231,-0.909
0.019,0.231,-0.949
-0.019,0.251,-0.939
-0.081,0.302,-0.951
-0.144,0.327,-1.071
-0.187,0.32,-1.117
-0.274,0.252,-1.206
-0.303,0.12,-1.146
-0.293,0.091,-0.948
-0.199,0.084,-1.01
-0.124,-0.027,-0.88
-0.03,-0.033,-0.781
0.097,0.15,-0.84
0.017,0.088,-0.791
0.071,0.2,-0.975
0.073,0.195,-1.173
0.124,0.253,-1.138
0.217,0.14,-1.109
0.174,0.108,-0.843
0.214,0.118,-0.898
0.002,0.108,-0.836
-0.117,0.143,-0.835
-0.146,0.233,-0.885
-0.276,0.282,-0.902
-0.253,0.369,-1.008
-0.38,0.363,-1.18
-0.291,0.382,-1.003
-0.409,0.262,-1.138
-0.376,0.123,-1.064
-0.292,-0.018,-0.838
-0.129,0.039,-0.759
-0.007,0.068,-0.804
0.101,0.134,-0.883
0.062,0.152,-0.96
0.116,0.117,-1.078
0.111,0.204,-1.106
0.219,0.15,-1.138
0.142,0.103,-1.058
0.049,0.062,-0.869
0.011,0.111,-0.805
0.095,0.065,-0.985
-0.099,0.233,-0.864
-0.163,0.276,-0.889
-0.241,0.391,-1.067
-0.262,0.378,-1.085
-0.35,0.367,-1.236
-0.39,0.253,-1.086
-0.382,0.161,-1.023
-0.284,0.074,-0.93
-0.112,-0.026,-0.801
-0.005,0.047,-0.823
0.083,0.142,-0.843
0.152,0.201,-0.864
0.101,0.177,-1.079
0.169,0.221,-1.033
0.221,0.203,-1.053
0.122,0.23,-0.92
-0.005,0.237,-0.934
-0.031,0.195,-0.878
-0.119,0.217,-0.888
-0.135,0.257,-0.924
-0.207,0.253,-0.895
-0.219,0.399,-0.965
-0.249,0.383,-1.058
-0.198,0.508,-0.997
-0.207,0.219,-0.934
-0.293,0.325,-1.216
-0.253,0.092,-1.038
-0.128,-0.004,-0.934
-0.025,0.0,-0.824
-0.046,0.067,-0.933
0.0,0.015,-0.88
0.072,0.062,-0.985
0.202,0.141,-1.005
0.167,0.245,-1.15
0.138,0.184,-1.063
0.156,0.186,-1.001
0.107,0.139,-0.957
-0.011,0.13,-0.857
-0.042,0.188,-0.81
-0.116,0.242,-0.839
-0.221,0.319,-0.873
-0.281,0.381,-1.052
-0.317,0.444,-1.152
-0.385,0.333,-1.172
-0.276,0.221,-0.918
-0.352,0.21,-1.016
-0.24,0.09,-0.879
-0.119,0.121,-0.79
-0.147,0.221,-0.777
-0.154,0.252,-0.764
-0.108,0.299,-0.849
-0.177,0.272,-1.006
-0.218,0.241,-1.017
-0.408,0.21,-1.162
-0.41,0.091,-0.947
-0.421,0.195,-0.937
-0.236,0.135,-1.019
-0.236,0.127,-0.889
-0.13,0.221,-0.878
-0.26,0.28,-0.847
-0.236,0.326,-0.967
-0.23,0.311,-1.057
-0.322,0.394,-1.082
-0.32,0.339,-1.111
-0.164,0.355,-0.956
-0.099,0.248,-1.014
0.03,0.217,-0.908
0.107,0.263,-0.898
0.113,0.298,-0.948
0.089,0.165,-0.913
0.155,0.25,-1.006
0.28,0.36,-1.137
0.251,0.261,-1.047
0.194,0.197,-1.039
0.169,0.131,-0.925
0.097,0.196,-0.966
0.073,0.206,-0.827
-0.038,0.237,-0.778
-0.065,0.327,-0.742
-0.087,0.387,-0.685
-0.17,0.41,-0.794
-0.319,0.403,-0.835
-0.462,0.394,-0.928
-0.417,0.355,-0.843
-0.422,0.172,-0.859
-0.246,0.069,-0.898
-0.115,-0.033,-0.743
0.13,0.019,-0.722
0.12,0.074,-0.762
0.111,0.088,-0.923
0.233,0.197,-1.079
0.119,-0.017,-1.334
0.125,-0.08,-1.469
0.166,-0.061,-1.267
0.163,-0.103,-1.312
0.071,-0.089,-1.064
-0.042,-0.064,-0.932
-0.041,-0.012,-0.924
-0.086,-0.044,-0.9
-0.109,-0.054,-0.993
-0.235,-0.097,-1.131
-0.245,-0.18,-1.259
-0.21,-0.196,-0.968
-0.261,-0.131,-1.076
-0.183,-0.132,-1.016
0.015,-0.119,-0.911
0.041,-0.116,-0.927
0.062,-0.16,-0.908
-0.014,-0.194,-0.999
-0.087,-0.246,-1.162
-0.088,-0.264,-1.077
-0.152,-0.056,-1.053
-0.13,0.102,-1.06
-0.03,0.179,-1.069
0.028,0.217,-0.914
0.028,0.31,-0.836
-0.088,0.318,-0.848
-0.159,0.183,-0.848
-0.271,0.203,-0.977
-0.317,0.226,-1.116
-0.115,0.215,-0.904
-0.137,0.131,-1.005
-0.104,0.104,-0.97
0.086,0.049,-0.911
0.174,0.018,-0.906
0.23,-0.109,-0.94
0.222,-0.159,-1.009
0.055,-0.063,-0.976
0.173,0.198,-0.978
0.064,0.255,-1.013
-0.051,0.144,-0.864
0.099,0.139,-0.834
-0.03,0.132,-0.9
-0.009,0.197,-1.002
-0.084,0.113,-1.132
-0.245,0.139,-1.305
-0.132,0.188,-1.171
-0.218,0.19,-1.1
-0.307,0.087,-1.011
-0.31,0.084,-0.928
-0.301,0.114,-0.958
-0.171,0.094,-0.904
-0.131,0.076,-0.913
-0.139,0.057,-0.994
-0.046,0.06,-0.871
0.034,0.116,-0.895
0.07,0.215,-0.948
0.131,0.223,-0.961
0.268,0.226,-0.913
-0.008,0.013,-1.093
0.111,0.025,-1.16
-0.029,-0.021,-1.1
-0.038,-0.092,-1.041
0.108,-0.034,-0.876
0.067,0.16,-1.003
0.143,0.278,-0.843
0.083,0.242,-0.85
0.075,0.211,-0.918
0.069,0.135,-1.037
-0.031,0.143,-1.208
0.005,0.091,-1.223
0.074,0.1,-1.015
0.062,-0.002,-1.017
-0.002,0.006,-1.08
-0.038,-0.062,-0.867
0.12,0.091,-0.837
0.135,0.175,-0.887
0.175,0.117,-0.865
0.154,0.079,-0.966
0.202,0.121,-1.137
0.112,0.002,-1.113
0.122,-0.032,-1.096
0.183,-0.017,-1.031
0.15,-0.037,-0.863
0.113,0.056,-0.754
0.04,0.137,-0.784
0.0,0.27,-0.884
-0.046,0.244,-0.987
-0.147,0.065,-1.091
-0.167,0.156,-1.129
-0.289,0.012,-1.065
-0.285,0.132,-1.104
-0.201,-0.051,-0.91
-0.049,0.0,-0.873
0.132,-0.033,-0.855
0.137,-0.133,-0.813
0.269,-0.206,-0.87
0.219,-0.269,-0.802
-0.023,0.103,-0.984
-0.006,-0.096,-0.672
-0.024,-0.096,-0.513
-0.086,-0.085,-0.742
0.005,-0.005,-0.727
-0.095,-0.143,-0.728
-0.008,-0.215,-0.772
-0.275,-0.216,-1.169
-0.117,-0.286,-1.147
-0.037,-0.2,-1.271
-0.135,-0.245,-1.247
-0.113,-0.253,-1.213
-0.191,-0.307,-1.241
0.029,-0.216,-1.242
-0.04,-0.27,-1.096
-0.097,-0.216,-1.142
-0.041,-0.266,-1.069
-0.096,-0.269,-1.113
0.102,-0.122,-1.077
-0.003,-0.101,-1.072
-0.017,-0.118,-0.951
-0.004,-0.099,-1.048
0.042,0.039,-1.038
0.026,0.125,-1.126
0.015,-0.013,-1.008
-0.021,-0.02,-0.935
0.047,0.126,-1.072
0.008,0.014,-1.003
0.023,-0.092,-0.952
0.011,-0.048,-0.971
-0.011,0.029,-1.02
-0.011,0.025,-1.015
0.008,-0.021,-0.986
0.009,-0.053,-0.968
0.0,-0.009,-0.997
-0.006,0.011,-1.009
0.002,-0.012,-0.994
0.004,-0.032,-0.981
0.0,-0.012,-0.994
-0.003,-0.001,-1.0
0.001,-0.014,-0.991
0.002,-0.02,-0.988
0.0,-0.009,-0.995
-0.001,-0.007,-0.996
0.001,-0.015,-0.991
0.001,-0.013,-0.992
0.0,-0.01,-0.996
0.001,-0.013,-0.993
0.0,-0.014,-0.991
0.0,-0.011,-0.994
0.0,-0.012,-0.993
0.001,-0.014,-0.992
0.0,-0.012,-0.993
0.0,-0.012,-0.992
0.0,-0.013,-0.991
0.0,-0.013,-0.992
0.0,-0.012,-0.992
0.001,-0.013,-0.993
0.0,-0.013,-0.993
0.001,-0.013,-0.992
0.059,0.059,-1.024
-0.085,-0.079,-1.051
0.263,-0.029,-1.412
0.086,-0.1,-1.309
0.01,-0.246,-1.203
-0.061,-0.141,-1.412
0.112,-0.214,-1.361
0.075,-0.149,-1.361
0.029,-0.169,-1.152
0.067,-0.043,-1.237
0.135,0.023,-1.139
-0.016,0.016,-1.031
0.035,0.002,-0.796
0.026,0.014,-0.668
0.089,-0.084,-0.464
0.245,-0.226,-0.309
-0.09,-0.221,-0.446
-0.051,-0.118,-0.67
0.177,0.297,-1.238
0.076,0.14,-1.073
0.057,0.15,-1.142
-0.068,0.22,-1.055
-0.071,0.22,-0.98
0.089,0.056,-0.809
0.041,0.061,-0.841
-0.109,0.047,-0.931
-0.066,0.024,-0.885
-0.058,0.044,-0.993
-0.025,0.114,-1.078
0.047,0.071,-1.097
0.043,0.073,-1.137
0.114,-0.049,-0.854
0.177,0.011,-0.772
0.184,0.098,-0.869
0.081,0.096,-0.859
0.027,0.134,-0.891
0.06,0.096,-0.829
-0.058,0.216,-0.994
-0.073,0.233,-1.04
-0.078,0.217,-1.09
-0.174,0.202,-1.194
-0.214,0.11,-1.139
-0.181,0.077,-0.96
-0.259,0.055,-1.067
-0.196,-0.004,-0.877
-0.102,-0.022,-0.792
-0.029,0.026,-0.879
0.014,0.036,-0.885
0.092,0.04,-1.014
0.139,0.052,-1.108
0.161,0.13,-1.101
0.252,0.103,-1.085
0.123,0.007,-0.91
0.088,0.074,-0.95
-0.002,0.1,-0.926
-0.056,0.148,-0.944
-0.151,0.253,-0.949
-0.229,0.293,-0.932
-0.261,0.273,-0.989
-0.236,0.206,-1.08
-0.232,0.211,-1.194
-0.341,0.092,-1.099
-0.349,-0.018,-1.011
-0.317,-0.12,-1.065
-0.228,-0.161,-0.936
-0.153,-0.157,-0.829
-0.064,-0.073,-0.903
0.025,-0.047,-0.96
0.095,-0.028,-1.113
0.138,0.018,-1.282
0.151,0.003,-1.003
0.175,0.025,-0.889
0.163,0.012,-0.853
0.052,0.015,-0.865
-0.03,0.065,-0.894
-0.196,0.126,-0.976
-0.229,0.173,-0.997
-0.273,0.159,-1.127
-0.382,0.14,-1.241
-0.289,0.058,-1.27
-0.294,-0.05,-0.98
-0.259,-0.052,-1.008
-0.239,-0.04,-0.869
-0.188,-0.034,-0.781
-0.187,0.053,-0.866
-0.044,0.069,-0.889
-0.08,0.047,-0.973
-0.029,0.074,-1.155
0.07,0.063,-1.222
0.124,0.046,-1.211
0.064,-0.019,-1.06
-0.032,0.014,-0.848
0.02,-0.013,-0.959
-0.094,0.032,-0.784
-0.191,0.075,-0.799
-0.187,0.129,-0.921
-0.256,0.161,-1.027
-0.264,0.231,-1.112
-0.286,0.2,-1.273
-0.258,0.122,-0.961
-0.327,0.104,-1.004
-0.243,0.086,-1.026
-0.088,0.037,-0.768
-0.057,0.083,-0.82
-0.082,0.097,-0.948
0.032,0.072,-0.962
0.044,0.086,-1.135
0.011,0.055,-1.233
0.014,0.066,-1.015
0.074,0.083,-0.942
0.075,0.084,-0.948
0.001,0.065,-0.833
-0.099,0.146,-0.813
-0.111,0.283,-0.835
-0.071,0.35,-0.873
-0.084,0.309,-1.024
-0.079,0.172,-1.085
-0.185,0.048,-1.385
-0.092,-0.095,-0.882
-0.16,-0.089,-1.04
-0.103,-0.089,-0.937
-0.15,-0.096,-0.892
-0.073,-0.04,-0.864
-0.032,0.02,-0.909
0.044,0.028,-0.899
0.125,0.047,-1.06
0.067,0.071,-1.048
0.158,0.112,-1.159
0.104,0.065,-1.097
0.037,0.031,-1.094
-0.045,0.052,-0.943
-0.094,0.099,-0.863
-0.127,0.176,-0.875
-0.193,0.137,-0.909
-0.123,0.094,-0.907
-0.035,0.111,-0.949
-0.048,0.159,-1.062
-0.122,0.049,-1.039
-0.002,0.011,-0.997
-0.149,-0.084,-0.885
-0.144,-0.065,-0.899
-0.186,-0.027,-0.931
-0.146,-0.031,-0.867
-0.128,0.03,-0.754
-0.032,0.016,-0.739
-0.041,-0.058,-0.77
-0.079,0.034,-0.722
-0.055,-0.103,-0.608
0.089,-0.067,-0.697
-0.098,-0.092,-0.872
-0.083,-0.097,-0.908
-0.034,-0.056,-1.004
-0.039,-0.022,-1.156
-0.039,-0.143,-1.185
-0.073,-0.148,-1.369
-0.04,-0.185,-1.417
-0.049,-0.203,-1.296
-0.059,-0.015,-1.321
0.012,-0.082,-1.164
0.039,0.023,-1.154
0.046,-0.051,-1.084
-0.018,-0.051,-1.132
-0.123,-0.329,-0.733
-0.029,0.213,-1.222
-0.016,0.052,-1.051
0.027,-0.133,-0.933
0.015,-0.044,-0.977
0.004,-0.027,-1.001
-0.01,-0.069,-0.985
-0.012,-0.045,-0.998
-0.014,-0.061,-0.989
-0.01,-0.05,-0.996
-0.012,-0.055,-0.993
-0.012,-0.055,-0.992
-0.012,-0.053,-0.993
-0.013,-0.055,-0.993
-0.012,-0.054,-0.993
-0.012,-0.055,-0.993
-0.012,-0.055,-0.992
-0.012,-0.055,-0.993
-0.012,-0.054,-0.993
-0.012,-0.054,-0.993
-0.012,-0.055,-0.992
-0.012,-0.054,-0.992
-0.013,-0.054,-0.992
0.672,-0.21,-1.451
-0.03,-0.358,-1.16
0.076,-0.452,-1.491
-0.07,-0.437,-1.357
-0.08,-0.23,-1.418
-0.106,-0.298,-1.228
-0.057,-0.228,-1.081
-0.122,-0.108,-1.029
0.059,-0.21,-0.757
0.004,-0.084,-0.72
0.008,-0.093,-0.709
0.093,-0.089,-0.556
0.113,-0.056,-0.606
0.136,0.005,-0.654
0.187,-0.08,-0.681
0.118,0.026,-0.868
0.134,-0.101,-0.927
0.148,0.0,-1.113
-0.007,-0.031,-1.088
-0.093,0.223,-1.34
-0.152,0.269,-1.259
-0.157,0.174,-0.788
-0.189,0.254,-0.765
-0.151,0.258,-0.894
-0.149,0.048,-0.777
-0.113,0.076,-0.983
-0.089,0.026,-0.919
-0.105,0.16,-0.983
-0.164,0.182,-0.919
-0.152,0.167,-0.936
0.051,0.139,-1.044
0.118,0.041,-1.077
0.082,0.123,-1.145
0.208,-0.034,-0.835
0.152,0.033,-0.902
0.113,0.033,-0.865
-0.038,0.073,-0.955
0.069,0.002,-0.915
0.024,-0.018,-0.924
0.001,-0.027,-0.886
0.224,-0.036,-1.056
-0.22,0.282,-1.381
-0.168,-0.137,-0.869
-0.198,0.11,-1.38
-0.345,-0.066,-0.91
-0.179,0.006,-1.047
-0.053,0.13,-0.977
-0.005,0.154,-0.962
0.005,0.128,-0.998
-0.031,0.099,-1.077
-0.01,0.03,-1.086
0.041,-0.127,-1.006
0.022,-0.03,-1.227
0.117,-0.094,-0.997
0.109,-0.107,-1.032
0.131,-0.056,-0.975
0.063,-0.05,-0.854
0.073,-0.006,-0.828
0.12,0.043,-0.855
0.018,0.011,-0.981
0.028,0.046,-1.101
-0.039,0.027,-1.108
-0.058,0.117,-1.132
-0.039,0.069,-0.997
-0.097,0.087,-1.026
-0.029,0.044,-0.931
0.018,0.041,-0.815
0.0,0.067,-0.841
-0.005,0.078,-0.929
0.037,0.038,-0.993
0.014,-0.01,-1.081
0.1,0.005,-1.092
0.122,0.138,-1.118
0.032,0.034,-1.033
0.153,-0.001,-1.032
0.075,0.046,-0.882
0.057,0.074,-0.775
0.052,0.139,-0.835
-0.051,0.177,-0.895
-0.035,0.164,-1.069
-0.133,0.089,-1.129
-0.179,0.177,-1.27
-0.127,0.081,-0.961
-0.213,0.062,-1.129
-0.125,0.01,-0.979
-0.093,0.008,-0.783
-0.091,0.072,-0.795
-0.109,0.074,-0.758
-0.03,0.085,-0.795
-0.018,0.046,-0.925
0.047,0.01,-0.989
-0.031,0.014,-1.038
0.101,0.059,-0.919
0.109,0.02,-0.994
0.029,0.038,-0.955
0.075,0.059,-0.968
-0.026,0.015,-0.813
0.017,0.065,-0.748
-0.019,0.003,-0.784
-0.007,-0.066,-0.832
-0.017,-0.203,-0.737
-0.11,-0.164,-0.915
-0.064,-0.157,-0.826
-0.047,-0.138,-0.943
0.01,-0.108,-1.052
-0.069,-0.267,-0.9
0.06,-0.107,-1.342
-0.058,-0.122,-1.224
-0.042,-0.127,-1.29
-0.042,-0.087,-1.241
-0.009,-0.06,-1.186
-0.05,-0.05,-1.165
-0.037,-0.079,-1.196
-0.115,-0.141,-1.154
-0.011,-0.132,-1.086
0.063,-0.174,-1.01
-0.041,0.0,-1.126
-0.027,-0.006,-1.04
0.013,-0.093,-1.0
0.011,-0.047,-1.022
-0.016,-0.022,-0.925
0.031,0.138,-1.107
0.02,0.042,-1.009
-0.035,-0.13,-0.954
0.0,-0.018,-1.01
-0.002,-0.013,-1.001
-0.016,-0.073,-0.976
-0.004,-0.011,-1.002
-0.013,-0.05,-0.986
-0.008,-0.026,-0.996
-0.01,-0.037,-0.991
-0.008,-0.036,-0.992
-0.01,-0.031,-0.993
-0.956,0.096,-1.543
-0.024,-0.242,-1.68
0.031,-0.125,-1.416
0.041,-0.111,-1.348
-0.009,-0.096,-1.39
0.013,-0.035,-1.476
-0.093,-0.114,-1.385
0.112,-0.046,-1.327
-0.048,-0.209,-1.102
0.1,-0.238,-0.831
0.138,-0.233,-0.893
-0.053,-0.179,-0.519
0.089,-0.056,-0.588
0.03,-0.034,-0.432
0.003,0.033,-0.535
-0.058,0.072,-0.609
0.02,0.12,-0.807
0.061,0.079,-0.934
0.021,0.016,-0.956
-0.008,0.022,-1.012
0.046,0.103,-0.989
-0.047,0.241,-1.065
-0.14,0.208,-1.093
-0.24,0.178,-0.903
-0.18,0.234,-0.893
-0.267,0.256,-0.96
-0.245,0.141,-0.836
-0.182,0.136,-0.956
-0.18,0.142,-1.008
-0.164,0.107,-0.94
-0.077,0.191,-0.947
-0.102,0.175,-0.959
-0.174,0.169,-1.07
-0.111,0.142,-1.084
0.065,0.105,-1.005
0.025,0.112,-1.04
0.158,0.122,-1.024
0.049,0.092,-0.908
-0.038,0.128,-0.818
-0.016,0.195,-0.85
-0.035,0.168,-0.831
-0.018,0.21,-0.887
0.021,0.249,-0.975
-0.073,0.258,-1.043
-0.055,0.231,-1.08
-0.07,0.114,-1.064
-0.12,0.036,-1.175
-0.207,-0.02,-1.224
-0.21,-0.076,-1.06
-0.195,0.043,-0.876
-0.19,0.118,-0.845
-0.141,0.129,-0.891
-0.052,0.053,-0.911
0.0,0.096,-0.982
0.02,0.099,-1.074
0.027,0.111,-1.074
-0.07,0.204,-1.135
0.013,0.141,-0.918
0.084,0.033,-1.135
0.141,0.236,-0.842
0.108,0.234,-0.735
0.066,0.308,-0.845
-0.014,0.263,-0.92
0.037,0.22,-1.133
-0.048,0.183,-1.302
-0.033,0.151,-1.01
-0.04,0.047,-1.012
-0.071,0.017,-1.116
-0.041,-0.001,-0.875
-0.052,0.109,-0.86
-0.08,0.17,-0.92
-0.017,0.11,-0.861
-0.03,0.0,-1.1
-0.026,0.071,-0.983
0.014,0.136,-1.162
0.105,0.164,-1.019
0.024,0.104,-1.1
-0.05,0.065,-0.868
-0.137,0.064,-0.814
-0.115,0.143,-0.87
-0.08,0.12,-0.946
-0.124,0.084,-1.217
-0.164,0.106,-1.004
0.004,0.101,-0.992
-0.049,0.131,-0.98
-0.17,0.092,-0.811
-0.164,0.113,-0.826
-0.179,0.078,-1.009
-0.207,-0.024,-0.964
-0.131,0.034,-1.035
-0.054,0.097,-1.163
-0.035,0.164,-0.997
0.279,0.34,-0.962
0.166,0.247,-0.909
0.112,0.106,-0.897
-0.013,0.07,-1.059
0.217,0.47,-1.222
-0.065,0.074,-1.019
-0.218,0.095,-0.979
0.069,0.342,-0.9
-0.06,0.094,-0.944
0.08,0.058,-1.026
-0.046,0.092,-0.87
-0.161,0.08,-0.958
-0.141,0.041,-0.923
-0.12,0.05,-0.899
-0.205,-0.107,-1.043
0.007,-0.164,-1.177
-0.107,0.043,-1.046
-0.29,0.128,-0.944
-0.228,0.246,-1.187
-0.076,0.219,-1.113
-0.155,0.126,-1.024
-0.116,0.108,-1.07
-0.123,0.036,-0.958
-0.131,-0.002,-1.01
-0.085,0.016,-1.167
0.006,-0.063,-0.961
-0.016,0.013,-1.016
0.121,0.091,-1.04
0.08,0.085,-0.863
0.009,0.107,-0.833
0.05,0.119,-0.789
0.03,0.157,-0.819
0.016,0.174,-1.009
-0.021,0.149,-1.028
0.007,0.178,-1.083
-0.004,0.125,-1.251
-0.039,0.089,-1.039
-0.125,0.071,-1.004
-0.066,0.084,-1.068
-0.032,0.045,-0.867
-0.046,0.049,-0.83
-0.03,0.077,-0.879
0.001,0.081,-0.88
-0.051,0.071,-1.045
-0.01,0.07,-1.117
-0.065,0.028,-1.169
0.033,0.042,-1.053
0.106,-0.032,-0.985
0.051,0.065,-0.938
-0.024,0.084,-0.845
-0.036,0.142,-0.831
0.011,0.179,-0.887
-0.002,0.142,-0.908
-0.036,0.097,-1.037
-0.067,0.021,-1.089
-0.134,0.06,-1.231
-0.085,0.042,-0.971
-0.13,0.008,-1.041
-0.145,-0.011,-0.946
-0.156,-0.015,-0.855
-0.168,0.06,-0.88
-0.227,0.12,-1.008
-0.173,0.084,-0.956
-0.141,0.048,-1.101
-0.097,0.116,-1.044
-0.064,0.068,-1.168
-0.065,0.035,-1.08
-0.088,-0.045,-1.056
-0.027,0.03,-0.807
-0.078,0.126,-0.719
-0.144,0.208,-0.762
-0.187,0.205,-0.843
-0.191,0.201,-0.933
-0.178,0.152,-1.182
-0.156,0.136,-1.139
-0.225,0.1,-1.368
-0.196,0.013,-1.051
-0.206,0.007,-1.075
-0.141,-0.006,-0.892
0.016,0.022,-0.802
0.078,0.029,-0.764
0.108,0.02,-0.774
0.119,0.012,-0.93
0.078,-0.037,-1.186
0.134,-0.04,-1.114
0.142,0.059,-1.291
0.21,-0.028,-1.09
0.184,0.013,-1.04
0.075,0.025,-0.789
-0.104,0.138,-0.889
0.028,0.091,-0.723
-0.121,0.194,-0.961
-0.084,0.187,-1.1
-0.18,0.176,-1.035
-0.286,0.224,-1.347
-0.229,0.106,-1.161
-0.084,0.037,-0.928
0.034,0.115,-0.824
0.069,0.124,-0.774
0.082,0.1,-0.778
0.155,-0.002,-0.893
0.064,-0.109,-1.066
0.192,-0.085,-1.153
0.187,-0.123,-1.144
0.14,0.001,-1.11
0.185,-0.095,-1.003
0.131,-0.014,-1.006
0.105,0.037,-0.858
0.057,0.153,-0.861
0.048,0.238,-0.857
-0.049,0.255,-0.9
-0.006,0.241,-1.048
-0.063,0.113,-1.109
-0.156,0.127,-1.214
-0.096,0.027,-1.005
-0.128,-0.021,-1.005
-0.021,-0.018,-0.85
-0.027,-0.044,-0.683
-0.022,-0.022,-0.657
0.106,-0.039,-0.68
0.013,-0.11,-0.931
0.066,-0.143,-0.971
-0.006,-0.067,-0.883
0.094,0.04,-0.941
0.017,0.056,-0.927
-0.044,-0.029,-0.913
-0.006,-0.064,-0.883
0.062,-0.159,-0.764
0.012,-0.102,-0.985
-0.001,-0.25,-1.035
0.006,-0.212,-1.064
-0.018,-0.163,-1.134
-0.018,-0.17,-1.098
-0.024,-0.097,-1.226
-0.051,-0.099,-1.192
-0.03,-0.013,-1.26
0.075,-0.028,-1.255
0.078,-0.028,-1.128
-0.009,0.005,-1.2
-0.073,-0.062,-1.141
0.018,-0.426,-0.845
-0.01,0.097,-1.024
0.039,0.006,-1.027
-0.001,-0.058,-0.988
-0.012,-0.064,-0.979
-0.006,-0.023,-1.001
-0.007,-0.035,-0.994
-0.009,-0.048,-0.989
-0.004,-0.03,-0.997
-0.008,-0.042,-0.99
-0.006,-0.034,-0.994
-0.009,-0.04,-0.992
-0.007,-0.036,-0.994
-0.008,-0.038,-0.993
-0.417,0.614,-1.368
0.045,-0.346,-1.727
0.12,-0.247,-1.527
0.091,-0.083,-1.438
0.076,-0.144,-1.315
0.266,0.006,-1.425
0.178,-0.085,-1.249
0.275,0.012,-1.062
0.211,0.073,-1.049
0.103,0.022,-0.825
0.326,-0.217,-0.567
0.033,-0.099,-0.636
0.014,-0.022,-0.76
-0.056,0.007,-0.761
0.111,0.224,-0.849
0.046,0.336,-0.928
-0.034,0.178,-0.874
0.065,0.227,-0.86
-0.042,0.125,-0.805
0.134,0.244,-0.73
0.154,0.207,-0.979
0.02,0.131,-0.911
0.226,0.049,-1.042
0.167,0.006,-0.985
0.316,0.041,-0.964
0.235,0.003,-0.967
0.26,-0.133,-0.915
0.235,-0.121,-0.996
0.204,-0.076,-0.961
0.213,0.002,-1.043
0.179,0.005,-1.0
0.079,-0.054,-0.995
0.043,-0.025,-0.987
0.019,0.048,-0.986
-0.02,0.103,-1.066
-0.033,0.08,-0.963
-0.045,0.08,-0.989
-0.061,-0.06,-0.884
-0.011,0.001,-0.934
0.039,-0.03,-0.944
0.075,-0.042,-0.927
0.023,-0.117,-0.941
-0.04,-0.213,-0.919
-0.037,-0.204,-0.969
-0.033,-0.219,-0.94
-0.107,-0.189,-0.949
0.008,-0.17,-0.924
-0.072,-0.32,-0.986
-0.001,-0.254,-1.056
-0.037,-0.212,-1.089
-0.032,-0.124,-1.141
-0.02,-0.069,-1.126
-0.14,-0.069,-1.174
-0.177,0.0,-1.215
-0.306,0.074,-1.229
-0.248,0.157,-1.238
-0.254,0.133,-1.174
-0.239,0.143,-1.175
-0.103,0.062,-1.058
-0.094,-0.01,-1.078
-0.123,0.003,-1.044
-0.121,0.042,-0.989
-0.074,0.104,-0.96
-0.067,0.085,-0.982
-0.001,0.031,-0.916
-0.016,-0.003,-1.025
0.042,0.089,-1.088
0.066,0.081,-1.106
0.141,0.155,-1.063
0.081,-0.013,-0.913
0.091,0.004,-0.928
-0.03,0.04,-0.965
-0.069,0.069,-0.914
-0.041,0.118,-0.939
-0.088,0.11,-0.999
-0.057,0.01,-1.035
-0.045,0.093,-1.078
-0.038,0.128,-1.052
-0.053,0.118,-0.883
-0.079,0.17,-0.845
-0.129,0.137,-0.907
0.05,0.111,-0.868
0.073,-0.092,-0.804
0.035,0.008,-0.764
0.07,-0.007,-0.951
0.153,-0.031,-1.136
0.122,-0.075,-1.08
-0.022,-0.16,-1.057
-0.015,0.074,-1.001
0.116,0.071,-1.054
-0.061,-0.132,-0.96
-0.042,-0.014,-1.001
0.041,0.004,-0.884
-0.015,-0.084,-0.974
-0.005,-0.129,-0.917
0.321,0.102,-1.335
-0.165,-0.028,-1.43
-0.019,-0.094,-1.004
0.012,0.145,-1.056
-0.049,0.035,-1.014
-0.076,-0.169,-0.951
-0.024,-0.116,-0.95
0.04,0.079,-1.065
0.016,0.064,-1.025
-0.012,-0.058,-0.987
-0.022,-0.087,-0.972
-0.003,-0.009,-0.997
0.005,0.021,-1.009
0.0,-0.004,-1.0
-0.017,-0.047,-0.984
-0.244,-0.369,-1.199
0.112,-0.137,-1.213
-0.013,-0.319,-1.199
-0.141,-0.12,-1.111
-0.175,-0.033,-1.022
-0.318,0.119,-0.956
-0.235,0.161,-0.851
-0.199,0.114,-0.772
-0.202,0.081,-0.815
-0.036,0.128,-0.833
0.016,0.133,-0.81
-0.003,0.155,-0.815
0.02,0.174,-0.891
-0.021,0.162,-0.837
-0.052,0.132,-0.965
0.0,0.092,-0.922
0.082,0.037,-0.938
0.086,0.055,-0.839
0.124,-0.005,-0.813
0.078,0.073,-0.997
0.047,0.02,-1.07
0.0,0.031,-1.021
-0.04,-0.03,-1.152
-0.139,-0.031,-1.249
-0.196,-0.059,-1.253
-0.184,-0.091,-1.215
-0.283,-0.085,-1.116
-0.252,-0.096,-1.102
-0.158,-0.075,-0.916
-0.149,-0.034,-0.845
-0.164,0.005,-0.882
-0.119,0.095,-0.899
-0.137,0.062,-1.082
-0.158,0.032,-1.139
0.037,0.043,-1.22
-0.12,-0.104,-1.01
-0.048,-0.087,-0.973
-0.023,-0.006,-0.919
-0.071,-0.006,-0.882
-0.102,0.065,-0.837
-0.096,0.126,-0.945
-0.04,0.103,-0.95
-0.026,0.032,-1.031
-0.014,0.059,-1.107
-0.005,0.033,-1.077
-0.113,0.044,-1.135
-0.015,0.0,-0.906
-0.18,-0.014,-1.001
-0.108,-0.018,-1.0
-0.002,-0.07,-0.861
0.01,-0.001,-0.834
-0.034,0.064,-0.904
-0.031,-0.027,-0.941
-0.053,-0.098,-1.071
-0.013,-0.095,-1.206
-0.038,-0.065,-1.088
-0.028,-0.051,-1.017
0.063,0.0,-1.055
-0.055,-0.049,-0.875
-0.112,-0.042,-0.87
-0.144,0.03,-0.835
-0.098,-0.069,-0.937
-0.074,-0.12,-1.063
-0.061,-0.072,-0.956
-0.155,-0.175,-1.081
-0.01,-0.14,-1.067
-0.065,-0.222,-0.923
0.02,-0.163,-0.993
0.097,-0.152,-1.028
0.118,-0.098,-1.039
0.244,-0.031,-1.074
0.122,-0.041,-1.29
0.098,-0.069,-1.178
0.091,-0.052,-1.014
0.003,-0.012,-0.932
0.005,0.043,-0.97
-0.012,-0.007,-0.975
-0.09,0.047,-0.963
-0.061,0.075,-0.999
-0.061,0.11,-0.963
-0.058,0.129,-0.92
-0.024,0.211,-0.922
-0.037,0.199,-0.938
-0.025,0.143,-1.033
-0.051,0.18,-1.018
-0.038,0.097,-0.936
-0.11,0.074,-0.966
-0.101,0.097,-0.922
-0.172,0.014,-0.9
-0.124,0.041,-0.954
-0.083,0.0,-1.018
-0.068,-0.061,-1.082
0.013,-0.075,-1.185
0.171,-0.02,-1.242
0.11,-0.13,-1.071
0.147,-0.182,-1.041
0.124,-0.088,-1.028
0.099,-0.053,-0.857
0.061,0.044,-0.82
0.064,0.068,-0.826
0.008,0.022,-0.833
0.016,0.016,-0.953
0.007,0.02,-1.122
-0.011,-0.045,-1.096
-0.041,-0.05,-1.199
-0.126,-0.168,-1.102
-0.116,-0.168,-1.054
-0.057,-0.176,-0.922
0.014,-0.156,-0.832
0.098,-0.077,-0.865
0.021,-0.14,-1.058
0.058,-0.188,-1.039
-0.119,-0.112,-1.013
-0.127,0.021,-0.96
-0.1,0.078,-0.957
-0.133,0.019,-0.909
-0.118,0.069,-0.955
-0.123,0.147,-0.921
-0.118,0.107,-0.876
-0.136,0.081,-1.027
-0.049,-0.108,-0.969
0.082,-0.123,-1.08
0.012,-0.181,-1.169
0.282,-0.202,-1.097
0.055,-0.11,-1.078
0.133,-0.06,-0.938
0.125,-0.034,-0.835
0.043,0.054,-0.886
0.007,-0.033,-0.895
-0.107,0.033,-1.149
-0.02,0.059,-1.122
0.012,0.012,-1.135
-0.068,0.038,-1.236
-0.077,-0.084,-0.955
-0.166,-0.004,-1.046
-0.186,0.009,-1.024
-0.208,-0.008,-0.855
-0.197,0.08,-0.892
-0.255,0.004,-0.932
-0.229,-0.104,-1.064
-0.077,-0.087,-1.214
-0.17,-0.082,-1.026
-0.129,-0.138,-0.936
-0.061,0.026,-1.07
-0.088,-0.063,-0.871
-0.148,-0.013,-0.848
-0.141,0.091,-0.913
0.096,0.039,-1.046
-0.011,0.039,-0.943
0.088,-0.132,-0.981
0.154,0.011,-1.164
0.037,-0.05,-1.187
-0.058,-0.153,-1.033
-0.058,-0.115,-1.125
-0.106,-0.131,-0.828
-0.088,0.029,-0.758
-0.084,0.053,-0.758
-0.185,0.031,-0.932
-0.056,0.002,-1.016
0.011,-0.023,-1.137
-0.139,-0.175,-1.35
-0.21,-0.212,-1.198
-0.125,-0.136,-1.046
-0.08,-0.018,-0.932
-0.089,0.057,-0.812
-0.07,0.157,-0.82
-0.148,0.144,-0.951
-0.207,0.164,-0.895
-0.321,0.062,-1.029
-0.367,0.117,-1.369
-0.203,-0.042,-1.037
-0.076,-0.009,-1.024
-0.085,-0.005,-0.911
-0.069,0.032,-0.762
-0.029,-0.018,-0.809
-0.146,0.029,-0.739
0.113,-0.057,-1.198
0.033,-0.11,-0.915
0.167,-0.033,-1.22
0.232,0.158,-1.222
0.166,-0.05,-0.953
0.149,0.105,-1.016
0.157,0.055,-0.894
0.048,0.074,-0.768
0.055,0.176,-0.904
-0.111,0.211,-0.959
-0.244,0.144,-1.23
-0.084,0.143,-1.109
-0.189,-0.009,-1.171
-0.117,0.015,-1.096
-0.08,0.003,-0.835
-0.147,0.04,-1.051
-0.129,0.009,-0.727
0.011,-0.005,-0.704
-0.006,-0.044,-1.02
0.049,-0.037,-1.088
0.089,-0.129,-1.055
0.168,-0.033,-1.094
0.108,0.031,-1.134
0.205,0.091,-1.018
0.028,0.086,-0.768
0.13,0.042,-0.904
-0.056,0.137,-0.749
-0.088,0.096,-0.813
-0.153,0.021,-1.0
-0.127,-0.068,-0.947
-0.119,-0.157,-1.029
-0.128,0.006,-1.08
-0.082,-0.064,-0.921
0.036,0.007,-0.824
0.07,0.014,-0.656
0.024,-0.123,-0.648
0.058,-0.15,-0.604
-0.008,-0.061,-0.587
0.06,-0.219,-0.629
-0.149,-0.216,-1.092
0.098,-0.169,-0.799
-0.004,-0.269,-1.01
-0.02,-0.1,-1.209
-0.156,-0.267,-1.335
-0.173,-0.287,-1.356
-0.059,-0.23,-1.349
-0.137,-0.268,-1.344
-0.234,-0.232,-1.327
-0.535,-0.461,-1.442
0.008,0.117,-1.154
-0.036,-0.076,-1.0
-0.04,-0.047,-0.992
-0.02,-0.054,-0.988
-0.018,-0.043,-0.997
-0.018,-0.048,-0.989
-0.018,-0.048,-0.993
-0.018,-0.045,-0.995
-0.016,-0.046,-0.992
-0.019,-0.045,-0.993
-0.018,-0.046,-0.993
-0.017,-0.046,-0.993
-0.018,-0.045,-0.99
-0.019,-0.045,-0.992
-0.017,-0.046,-0.993
-0.018,-0.046,-0.994
-0.018,-0.045,-0.994
-0.019,-0.045,-0.991
-0.018,-0.045,-0.992
-0.018,-0.045,-0.993
-0.017,-0.045,-0.993
-0.046,-0.611,-1.291
0.253,-0.29,-1.451
0.078,-0.246,-1.461
0.04,-0.383,-1.43
0.183,-0.383,-1.356
0.049,-0.281,-1.403
0.102,-0.307,-1.264
0.127,-0.218,-0.961
0.088,-0.137,-0.913
0.062,-0.093,-0.646
0.087,0.049,-0.786
0.033,0.074,-0.518
0.016,0.071,-0.517
-0.062,-0.059,-0.578
0.133,-0.477,-0.449
-0.133,-0.25,-0.926
-0.083,-0.099,-0.913
-0.058,0.03,-1.078
0.014,-0.063,-0.903
0.012,-0.106,-0.864
-0.065,-0.254,-0.852
-0.02,-0.152,-0.851
0.014,-0.218,-1.039
-0.065,-0.206,-0.988
0.077,-0.178,-1.162
0.02,-0.181,-0.967
0.011,-0.113,-0.992
-0.075,-0.039,-0.961
-0.048,-0.068,-0.865
-0.164,-0.005,-0.87
0.081,0.111,-0.95
0.004,0.078,-0.948
-0.244,0.242,-1.029
-0.077,0.136,-0.958
-0.338,0.216,-1.098
-0.373,0.262,-1.088
-0.285,0.125,-0.945
-0.254,0.16,-0.991
-0.233,0.169,-0.933
-0.208,0.132,-0.876
-0.179,0.168,-0.92
-0.106,0.143,-0.943
-0.037,0.125,-0.955
0.031,0.196,-1.169
0.127,0.114,-1.09
0.187,0.074,-1.162
0.266,0.01,-0.977
0.247,0.0,-0.871
0.092,0.01,-0.845
-0.062,0.07,-0.856
0.035,0.017,-0.828
-0.115,0.125,-0.931
-0.277,0.213,-0.91
-0.282,0.34,-1.116
-0.366,0.346,-1.148
-0.444,0.198,-1.192
-0.432,0.051,-0.999
-0.3,-0.048,-0.962
-0.18,-0.171,-0.77
-0.063,-0.065,-0.799
-0.018,0.016,-0.902
0.083,-0.01,-0.92
0.121,-0.01,-1.128
0.198,-0.024,-1.083
0.246,0.035,-1.181
0.279,-0.019,-1.046
0.229,-0.029,-0.969
0.062,0.0,-0.851
-0.025,0.125,-0.857
0.017,0.074,-0.838
-0.204,0.096,-0.945
-0.256,0.172,-1.018
-0.409,0.314,-1.141
-0.443,0.334,-1.23
-0.378,0.118,-1.01
-0.299,0.03,-0.935
-0.203,-0.048,-0.866
-0.082,-0.019,-0.805
0.116,-0.016,-0.924
0.003,-0.005,-0.877
0.103,0.01,-1.032
0.205,-0.046,-1.09
0.155,0.049,-1.134
0.099,0.035,-1.075
0.128,0.068,-1.016
0.118,0.018,-0.94
0.029,-0.011,-0.838
-0.004,0.053,-0.807
-0.024,0.155,-0.922
0.039,0.169,-0.977
0.085,0.201,-1.163
0.032,0.147,-1.18
-0.179,0.095,-1.272
-0.142,0.0,-0.996
-0.23,0.025,-1.044
-0.172,-0.046,-0.943
-0.079,-0.051,-0.77
-0.03,0.029,-0.774
0.083,0.063,-0.78
0.126,0.137,-0.923
0.138,0.109,-1.011
0.036,0.133,-0.954
0.098,0.116,-0.957
0.048,0.048,-0.917
0.075,0.056,-0.856
0.083,0.125,-0.805
0.072,0.098,-0.774
-0.006,0.118,-0.749
0.035,0.103,-0.774
-0.101,0.077,-0.884
-0.047,0.001,-0.881
-0.11,-0.071,-0.899
-0.1,0.026,-1.086
-0.171,-0.151,-1.094
-0.068,-0.174,-1.247
-0.074,-0.133,-1.188
-0.071,-0.115,-1.332
-0.046,-0.283,-1.294
0.009,0.921,-1.76
0.461,-0.293,-0.595
0.11,0.138,-1.019
0.014,0.122,-0.92
-0.029,0.139,-0.907
-0.015,-0.045,-0.99
0.059,-0.33,-0.907
0.003,0.143,-0.989
-0.06,-0.103,-1.111
0.027,-0.095,-1.065
-0.016,-0.045,-1.0
0.012,-0.112,-0.987
-0.026,-0.094,-0.977
0.075,-0.042,-1.016
0.006,-0.084,-0.969
0.037,-0.054,-1.008
0.03,-0.072,-0.985
0.016,-0.07,-0.987
0.031,-0.069,-0.995
0.025,-0.068,-0.995
0.02,-0.073,-0.987
0.028,-0.067,-0.995
0.027,-0.069,-0.991
0.024,-0.07,-0.991
0.026,-0.068,-0.994
0.027,-0.069,-0.991
0.024,-0.07,-0.991
0.027,-0.069,-0.992
0.024,-0.069,-0.992
0.025,-0.069,-0.99
0.026,-0.068,-0.993
-0.273,-0.213,-1.451
-0.093,-0.55,-1.291
0.066,-0.435,-1.372
0.034,-0.299,-1.24
-0.032,-0.099,-1.216
-0.018,-0.131,-1.029
0.027,-0.095,-0.816
0.068,0.008,-0.864
0.097,-0.004,-0.798
0.2,-0.055,-0.74
0.213,-0.052,-0.862
0.272,-0.155,-0.852
0.228,-0.14,-0.932
0.195,-0.041,-1.114
0.165,-0.119,-0.976
0.103,-0.126,-1.1
0.007,-0.145,-1.004
-0.119,-0.008,-1.091
-0.265,-0.009,-1.135
-0.256,-0.02,-1.059
-0.258,-0.019,-0.911
-0.26,0.025,-0.786
-0.219,0.048,-0.791
-0.158,0.066,-0.861
-0.023,0.23,-0.929
0.038,0.185,-1.107
0.17,0.179,-1.096
0.262,0.203,-1.194
0.207,0.081,-1.273
0.216,-0.085,-1.027
0.017,-0.116,-1.04
-0.063,-0.058,-0.913
-0.078,0.0,-0.69
-0.239,0.193,-0.789
-0.475,0.454,-0.807
-0.196,0.159,-0.679
-0.351,0.474,-1.093
-0.371,0.532,-1.179
-0.332,0.048,-0.819
-0.385,0.167,-1.215
-0.225,-0.038,-0.976
-0.329,0.027,-0.949
-0.071,-0.09,-0.827
-0.004,-0.065,-0.843
0.009,-0.122,-0.817
0.397,0.198,-0.904
0.314,0.26,-1.103
0.293,0.16,-1.226
0.268,0.179,-1.366
0.323,0.066,-1.172
0.25,-0.117,-0.815
0.075,-0.046,-0.909
0.002,-0.173,-0.785
0.107,-0.16,-0.937
-0.116,-0.062,-0.823
-0.168,0.058,-0.957
-0.295,0.116,-1.172
-0.471,0.334,-1.257
-0.195,0.579,-1.453
-0.324,0.344,-1.13
-0.404,0.031,-0.889
-0.324,-0.087,-0.957
-0.197,-0.175,-0.805
-0.071,-0.175,-0.707
0.06,-0.08,-0.759
0.097,0.001,-0.781
0.121,0.173,-1.043
0.14,0.375,-1.221
0.222,0.438,-1.24
0.19,0.069,-1.063
0.155,0.094,-0.862
0.19,0.042,-0.925
0.058,0.087,-0.904
-0.023,0.088,-0.829
-0.125,0.181,-0.858
-0.23,0.239,-0.884
-0.276,0.335,-1.1
-0.229,0.354,-1.172
-0.28,0.398,-1.343
-0.29,0.254,-0.988
-0.277,0.208,-0.798
-0.322,0.257,-0.978
-0.317,0.125,-1.013
-0.249,-0.069,-0.799
-0.118,-0.082,-0.78
0.051,-0.015,-0.76
0.135,0.039,-0.9
0.192,0.184,-1.386
0.149,0.015,-1.282
0.079,-0.139,-0.999
0.087,-0.157,-0.833
0.135,-0.015,-0.966
-0.042,0.121,-0.8
0.109,0.086,-0.831
-0.184,0.273,-0.904
-0.283,0.388,-1.007
-0.414,0.358,-1.037
-0.558,0.333,-1.033
-0.581,0.259,-1.252
-0.541,0.036,-0.8
-0.587,-0.09,-0.829
-0.492,-0.064,-0.919
-0.382,-0.106,-0.886
-0.273,-0.124,-0.942
-0.076,-0.149,-0.87
0.132,-0.08,-0.815
0.132,-0.12,-0.96
0.246,0.007,-1.072
0.14,-0.172,-1.264
0.093,0.013,-0.957
0.157,0.092,-1.001
0.101,0.163,-0.982
-0.018,0.172,-0.808
-0.135,0.232,-0.717
-0.183,0.381,-0.794
-0.21,0.495,-0.849
-0.279,0.461,-1.032
-0.282,0.467,-1.059
-0.305,0.097,-1.132
-0.216,0.252,-1.031
-0.336,-0.047,-1.059
-0.19,-0.04,-0.857
-0.08,-0.015,-0.777
0.031,0.02,-0.814
0.144,0.051,-0.849
0.099,0.018,-1.074
0.062,0.01,-1.155
0.01,0.22,-1.281
0.069,0.066,-1.056
0.061,0.065,-0.948
0.019,0.083,-0.925
0.021,0.075,-0.878
-0.073,0.062,-0.839
-0.213,0.144,-0.802
-0.294,0.258,-0.82
-0.368,0.289,-1.012
-0.357,0.222,-1.079
-0.369,0.165,-1.276
-0.297,-0.024,-0.926
-0.283,-0.064,-0.996
-0.256,-0.123,-1.073
-0.249,-0.163,-1.016
-0.182,-0.111,-0.933
-0.123,-0.023,-0.91
-0.039,0.09,-0.922
0.102,0.108,-0.928
0.126,0.096,-0.958
0.117,0.012,-1.11
0.226,-0.089,-1.146
0.29,-0.186,-1.032
0.244,-0.181,-0.992
0.203,-0.06,-0.835
0.035,0.02,-0.818
-0.065,0.042,-0.846
-0.363,-0.054,-1.015
-0.428,0.036,-1.062
-0.388,0.129,-1.042
-0.282,0.22,-1.193
-0.112,0.264,-1.011
-0.053,0.171,-0.875
-0.156,0.05,-0.791
-0.246,0.043,-0.933
-0.228,0.015,-0.988
-0.199,-0.036,-0.964
-0.191,0.021,-0.966
-0.166,0.077,-1.013
-0.106,0.018,-1.07
-0.065,-0.039,-1.072
-0.045,-0.007,-1.252
-0.092,0.015,-1.194
-0.103,-0.042,-0.889
-0.082,0.112,-1.026
-0.01,0.06,-0.894
-0.082,0.117,-0.806
-0.114,0.285,-0.809
-0.135,0.342,-0.857
-0.109,0.371,-0.867
-0.072,0.285,-0.984
-0.131,0.229,-1.079
-0.237,0.041,-1.403
-0.236,-0.14,-1.183
-0.181,-0.232,-1.106
-0.17,-0.255,-0.951
-0.084,-0.237,-0.861
-0.043,-0.193,-0.863
0.024,-0.139,-0.981
0.34,-0.19,-0.781
0.347,-0.08,-0.981
0.455,0.065,-1.059
0.528,0.107,-0.979
0.334,-0.101,-0.741
0.209,0.029,-0.89
0.093,0.082,-0.906
0.003,0.149,-0.894
-0.084,0.207,-0.881
-0.144,0.218,-0.885
-0.171,0.245,-0.95
-0.202,0.211,-1.206
-0.136,0.175,-1.129
-0.132,0.142,-1.181
-0.099,-0.032,-0.896
-0.058,-0.019,-0.801
-0.099,-0.137,-0.891
-0.029,-0.045,-0.972
0.105,-0.049,-0.982
-0.003,-0.006,-0.954
0.086,-0.045,-0.95
0.012,-0.205,-1.111
-0.025,-0.257,-1.294
-0.025,-0.17,-1.206
-0.024,-0.18,-0.868
-0.092,-0.021,-0.84
0.015,0.066,-0.984
-0.123,-0.052,-0.847
-0.047,0.048,-0.825
-0.198,0.066,-0.804
-0.171,0.041,-0.887
-0.13,-0.005,-1.199
-0.172,0.023,-1.231
-0.248,-0.064,-0.971
-0.17,-0.15,-1.065
-0.207,0.031,-1.137
-0.086,0.07,-0.981
-0.027,-0.031,-0.924
-0.092,0.009,-1.032
-0.053,-0.048,-0.964
-0.206,-0.184,-1.027
-0.123,-0.192,-0.976
-0.001,0.077,-1.02
-0.057,0.122,-0.919
-0.011,0.071,-0.963
-0.038,0.114,-0.941
0.021,0.121,-0.889
0.051,0.083,-0.822
0.004,-0.01,-0.942
-0.076,-0.096,-1.089
0.023,0.107,-0.98
-0.089,-0.101,-0.951
0.0,-0.011,-0.97
-0.05,-0.058,-0.926
-0.036,-0.025,-0.905
0.055,-0.097,-0.841
-0.006,-0.103,-1.022
0.273,-0.222,-0.623
0.069,-0.351,-1.122
0.363,0.249,-0.946
-0.123,0.302,-1.097
0.071,0.032,-1.016
-0.061,-0.185,-0.957
-0.03,-0.18,-0.895
-0.014,-0.029,-1.017
-0.012,0.036,-1.021
-0.013,-0.026,-0.997
-0.025,-0.074,-0.98
-0.019,-0.039,-0.993
-0.009,-0.02,-0.999
-0.015,-0.045,-0.99
-0.018,-0.043,-0.993
-0.015,-0.031,-0.995
-0.015,-0.038,-0.991
-0.016,-0.039,-0.991
-0.015,-0.036,-0.991
-0.017,-0.037,-0.993
-0.016,-0.038,-0.991
-0.015,-0.037,-0.993
-0.017,-0.039,-0.992
-0.016,-0.036,-0.992
-0.015,-0.037,-0.992
-0.016,-0.038,-0.993
0.128,0.004,-1.035
-0.286,0.048,-1.123
0.186,-0.136,-1.064
0.319,-0.454,-1.19
0.435,-0.114,-1.424
0.347,-0.151,-1.331
0.241,-0.2,-1.273
-0.008,0.001,-1.21
-0.225,0.167,-0.986
-0.29,0.051,-0.763
-0.201,-0.199,-0.649
-0.317,-0.252,-0.661
-0.539,-0.498,-0.556
-0.357,-0.372,-0.723
-0.109,-0.308,-0.898
-0.245,-0.169,-1.184
-0.228,-0.001,-1.212
0.013,-0.034,-1.128
-0.04,0.022,-0.999
-0.224,0.028,-0.97
-0.222,0.027,-0.759
-0.23,0.013,-0.691
-0.003,-0.139,-0.759
0.129,-0.191,-0.891
-0.28,-0.205,-1.04
-0.203,-0.31,-0.996
-0.21,-0.097,-0.919
-0.259,-0.026,-0.835
-0.313,0.084,-0.953
-0.385,0.03,-1.026
-0.384,-0.139,-1.221
-0.308,-0.109,-1.011
-0.448,-0.16,-1.137
-0.594,-0.236,-1.093
-0.546,-0.263,-0.903
-0.571,-0.334,-0.901
-0.456,-0.4,-0.969
-0.256,-0.517,-0.926
-0.1,-0.365,-0.938
0.181,-0.27,-0.772
0.268,-0.076,-0.701
0.433,-0.132,-0.654
0.473,-0.441,-0.742
0.159,-0.803,-0.844
0.064,-0.88,-0.993
0.05,-0.734,-0.613
-0.09,-0.63,-0.513
-0.522,-0.562,-0.53
-0.712,-0.446,-0.66
-0.692,-0.359,-0.663
-0.875,-0.329,-0.632
-0.971,-0.434,-0.796
-0.867,-0.547,-0.843
-0.609,-0.694,-0.588
-0.477,-0.683,-0.542
-0.436,-0.72,-0.589
-0.336,-0.752,-0.537
-0.328,-0.631,-0.617
-0.313,-0.658,-0.673
-0.346,-0.687,-0.572
-0.497,-0.765,-0.486
-0.612,-0.897,-0.478
-0.725,-1.042,-0.454
-0.554,-1.129,-0.347
-0.409,-1.02,-0.243
-0.491,-0.864,-0.447
-0.458,-0.871,-0.398
-0.535,-0.737,-0.416
-0.627,-0.623,-0.582
-0.637,-0.489,-0.438
-0.696,-0.458,-0.421
-0.835,-0.486,-0.358
-0.515,-0.726,-0.446
-0.882,-0.589,-0.391
-0.909,-0.934,-0.176
-0.825,-1.2,-0.055
-0.554,-1.225,0.085
-0.368,-1.005,-0.053
-0.394,-1.056,-0.172
-0.225,-1.02,-0.272
-0.025,-0.994,-0.273
0.16,-0.973,-0.156
0.311,-1.052,-0.17
0.218,-1.145,-0.381
0.334,-1.049,-0.342
0.225,-1.047,-0.357
0.199,-0.949,-0.224
0.035,-0.947,-0.219
0.207,-0.815,-0.172
0.128,-0.833,-0.198
0.136,-0.939,-0.213
0.086,-0.975,-0.293
0.009,-1.07,-0.341
-0.085,-0.981,-0.386
-0.381,-1.298,-0.288
-0.416,-1.256,-0.174
-0.431,-1.163,-0.131
-0.384,-1.113,-0.116
-0.222,-0.944,-0.059
-0.101,-0.854,-0.15
0.031,-0.836,-0.147
0.183,-0.822,-0.153
0.221,-0.937,-0.165
0.203,-1.053,-0.103
-0.078,-1.104,-0.181
-0.158,-1.081,-0.18
-0.179,-0.921,-0.091
-0.271,-0.853,-0.159
-0.347,-0.847,-0.129
-0.393,-0.826,-0.118
-0.39,-0.736,-0.338
-0.665,-0.738,-0.439
-0.727,-0.853,-0.484
-0.748,-0.886,-0.537
-0.843,-1.123,-0.36
-0.637,-1.149,-0.135
-0.622,-1.012,-0.121
-0.405,-0.924,-0.165
-0.267,-0.906,-0.018
-0.012,-0.871,0.041
0.058,-0.87,-0.108
0.248,-0.981,-0.068
0.32,-0.995,-0.177
0.315,-1.024,-0.163
0.146,-1.085,-0.364
0.178,-1.125,-0.168
0.119,-0.99,-0.143
-0.08,-0.947,-0.128
-0.118,-0.982,-0.121
-0.186,-0.984,-0.088
-0.291,-0.902,-0.208
-0.387,-0.872,-0.327
-0.452,-0.926,-0.412
-0.648,-1.078,-0.481
-0.512,-1.313,-0.256
-0.478,-1.082,-0.246
-0.506,-0.98,-0.209
-0.355,-0.898,-0.169
-0.146,-0.818,-0.189
-0.113,-0.808,-0.158
0.237,-0.831,-0.137
0.336,-0.8,-0.374
0.464,-0.725,-0.447
0.462,-1.051,-0.196
0.193,-1.282,-0.213
0.162,-1.143,-0.204
0.067,-1.023,-0.175
-0.046,-1.045,-0.135
-0.179,-0.928,-0.241
-0.259,-0.892,-0.289
-0.389,-0.904,-0.358
-0.481,-0.848,-0.462
-0.47,-0.856,-0.508
-0.693,-0.934,-0.613
-0.606,-1.128,-0.357
-0.502,-0.951,-0.288
-0.402,-0.776,-0.352
-0.35,-0.744,-0.27
-0.207,-0.834,-0.243
-0.048,-0.844,-0.312
0.094,-0.841,-0.401
0.228,-0.787,-0.472
0.329,-0.876,-0.595
0.308,-0.976,-0.463
0.09,-1.199,-0.292
0.144,-1.051,-0.322
0.059,-0.966,-0.308
-0.066,-0.936,-0.187
-0.243,-0.813,-0.245
-0.467,-0.76,-0.26
-0.528,-0.753,-0.339
-0.842,-0.787,-0.419
-0.729,-0.806,-0.455
-0.772,-0.881,-0.509
-0.789,-0.985,-0.362
-0.704,-0.92,-0.262
-0.451,-0.825,-0.14
-0.691,-0.847,-0.23
-0.202,-0.824,-0.242
-0.305,-0.812,-0.187
-0.054,-0.911,-0.266
0.06,-0.917,-0.335
0.231,-0.882,-0.441
0.177,-0.863,-0.524
-0.302,-0.983,-1.12
0.337,-0.851,-0.531
0.188,-0.808,-0.414
0.063,-0.787,-0.386
-0.121,-0.746,-0.329
-0.329,-0.754,-0.343
-0.538,-0.835,-0.351
-0.676,-0.903,-0.404
-0.77,-0.991,-0.353
-0.757,-0.901,-0.463
-0.802,-0.972,-0.412
-0.642,-0.895,-0.314
-0.576,-0.925,-0.294
-0.44,-1.029,-0.173
-0.19,-0.919,-0.144
-0.049,-0.74,-0.236
0.144,-0.688,-0.257
0.271,-0.91,-0.214
0.409,-1.045,-0.231
0.339,-1.074,-0.249
0.292,-1.281,-0.076
0.192,-1.084,-0.185
0.11,-0.963,-0.177
0.048,-0.864,-0.088
-0.215,-0.78,-0.267
-0.225,-0.857,-0.279
-0.386,-0.806,-0.241
-0.49,-0.863,-0.285
-0.529,-0.957,-0.32
-0.454,-1.027,-0.258
-0.424,-1.04,-0.263
-0.312,-1.054,-0.145
-0.233,-0.981,-0.083
-0.217,-0.964,-0.071
-0.134,-0.981,-0.056
-0.049,-1.097,-0.007
0.095,-0.975,0.034
0.162,-0.846,0.058
0.106,-1.02,0.156
0.097,-1.054,0.209
-0.004,-0.983,0.044
0.003,-1.052,0.202
-0.111,-1.254,0.147
-0.204,-1.337,-0.068
-0.09,-1.171,0.111
0.001,-0.906,-0.006
0.03,-0.789,-0.197
0.068,-0.74,-0.309
-0.085,-0.766,-0.421
-0.052,-0.876,-0.315
-0.037,-0.875,-0.134
-0.077,-1.048,0.022
-0.135,-1.056,-0.005
-0.428,-1.671,-0.683
0.209,-1.06,0.206
-0.085,-1.064,0.195
0.012,-0.988,0.15
-0.14,-1.07,0.124
-0.01,-0.966,-0.046
-0.061,-1.003,0.055
0.009,-1.038,0.21
0.024,-1.019,0.256
-0.035,-1.039,0.187
-0.021,-1.018,0.03
-0.1,-0.989,0.01
-0.039,-0.989,0.022
-0.026,-1.028,0.141
-0.003,-1.026,0.202
-0.026,-1.026,0.145
-0.04,-1.008,0.054
-0.065,-1.004,0.038
-0.039,-1.008,0.07
-0.051,-1.103,0.161
-0.221,-1.253,0.256
-0.034,-1.043,0.088
-0.135,-1.175,0.085
-0.04,-1.231,0.175
-0.035,-1.093,0.059
-0.198,-1.103,0.076
0.026,-1.006,-0.013
-0.133,-0.915,0.071
-0.107,-0.825,0.157
-0.131,-0.846,0.231
-0.114,-0.809,0.346
-0.08,-0.643,0.437
-0.124,-0.451,0.653
-0.121,-0.185,0.802
-0.006,-0.178,1.017
-0.023,0.097,1.051
-0.149,0.3,1.074
0.0,0.014,1.182
-0.163,-0.184,1.523
-0.228,-0.092,1.448
-0.349,0.549,1.138
-0.323,0.443,0.837
-0.315,0.403,0.925
-0.284,0.406,0.943
-0.213,0.394,0.929
-0.091,0.369,0.92
0.031,0.321,0.957
0.176,0.325,1.028
0.307,0.245,0.977
0.352,0.25,0.808
0.353,0.167,0.828
0.214,-0.011,0.836
0.097,0.019,0.73
-0.088,0.026,0.876
-0.263,-0.066,1.007
-0.332,0.02,1.002
-0.405,0.06,1.069
-0.423,0.144,1.175
-0.47,0.228,1.157
-0.28,0.317,1.315
-0.158,0.385,1.218
-0.09,0.489,1.054
-0.019,0.411,0.866
0.04,0.371,0.753
0.224,0.257,0.754
0.255,0.116,0.851
0.401,0.149,0.833
0.369,0.069,0.957
0.448,0.192,1.024
0.424,0.052,1.258
0.298,-0.031,0.976
0.211,0.161,0.836
0.046,0.191,0.985
-0.14,0.223,1.008
-0.277,0.077,1.064
-0.457,0.066,1.04
-0.692,0.019,1.115
-0.796,0.04,1.293
-0.783,0.029,1.333
-0.761,0.161,1.168
-0.654,0.102,0.904
-0.518,0.22,0.721
-0.366,0.2,0.698
-0.165,0.11,0.697
-0.06,0.051,0.714
-0.088,-0.005,0.766
-0.16,-0.024,0.854
-0.374,-0.026,1.034
-0.277,0.029,0.902
-0.245,-0.04,1.037
-0.276,-0.016,1.023
-0.39,-0.029,1.027
-0.4,-0.223,0.751
-0.44,-0.127,0.949
-0.528,-0.193,0.581
-0.693,-0.218,0.632
-0.809,-0.178,0.819
-0.924,0.042,1.168
-0.789,-0.112,0.955
-0.737,-0.085,1.089
-0.591,0.136,0.801
-0.295,0.137,0.758
-0.307,0.138,0.727
-0.337,0.071,0.865
-0.266,-0.005,0.932
-0.237,0.027,0.946
-0.293,0.065,1.034
-0.364,-0.004,1.014
-0.375,-0.04,1.046
-0.208,-0.156,0.983
-0.246,-0.029,0.882
-0.334,-0.042,0.86
-0.418,-0.045,0.674
-0.486,-0.172,0.668
-0.64,-0.191,0.684
-0.754,-0.246,0.866
-0.825,-0.136,0.976
-0.813,-0.079,0.963
-0.919,0.038,1.075
-0.755,0.007,0.941
-0.687,0.29,0.676
-0.488,0.241,0.803
-0.407,0.248,0.751
-0.401,0.28,0.76
-0.127,0.241,0.683
0.021,0.157,0.809
0.119,0.094,0.943
0.269,0.159,0.92
0.251,0.171,1.144
0.238,0.115,1.186
0.139,0.187,1.078
-0.023,0.079,1.055
-0.241,0.06,1.049
-0.42,-0.011,1.092
-0.546,-0.045,1.121
-0.61,0.094,1.097
-0.526,0.208,1.256
-0.453,0.282,1.274
-0.303,0.287,1.13
-0.203,0.324,0.995
-0.093,0.33,0.874
-0.03,0.24,0.754
0.097,0.147,0.823
0.278,0.092,0.791
0.452,-0.038,0.797
0.541,0.097,0.848
0.472,0.35,0.914
0.373,0.282,1.27
0.307,0.13,1.274
0.129,0.283,0.899
0.012,0.296,0.817
-0.208,0.155,0.926
-0.337,0.045,0.909
-0.434,-0.023,0.922
-0.571,-0.059,1.018
-0.576,0.099,1.098
-0.543,0.09,1.202
-0.496,0.342,1.178
-0.378,0.239,1.291
-0.294,0.318,1.045
-0.187,0.447,0.879
-0.034,0.388,0.955
0.027,0.318,0.939
0.115,0.241,0.938
0.145,0.225,0.953
0.201,0.239,0.878
0.193,0.31,0.894
0.152,0.308,0.929
0.143,0.04,1.119
0.15,0.134,1.041
0.067,0.142,1.136
0.134,0.199,1.126
-0.122,0.129,0.909
-0.046,0.157,0.987
-0.204,0.052,0.975
-0.238,0.112,1.052
-0.284,0.174,1.133
-0.312,0.263,1.056
-0.348,0.482,0.858
-0.286,0.527,0.842
-0.169,0.326,1.022
-0.263,0.164,0.982
-0.359,0.169,0.93
-0.301,0.219,0.931
-0.292,0.196,0.944
-0.287,0.146,1.127
-0.264,0.251,1.106
-0.3,0.175,1.004
-0.13,0.329,1.015
-0.107,0.134,0.985
0.05,0.04,0.971
-0.023,0.185,0.785
-0.257,0.17,0.796
-0.27,-0.023,0.94
-0.475,-0.114,0.905
-0.474,-0.076,1.083
-0.521,-0.105,1.038
-0.437,-0.017,1.188
-0.463,0.063,1.069
-0.444,0.086,1.041
-0.542,0.095,0.953
-0.406,0.197,0.907
-0.455,0.19,0.837
-0.414,-0.068,0.822
-0.34,-0.242,0.943
-0.385,-0.215,0.944
-0.375,-0.164,0.91
-0.428,-0.127,0.955
-0.592,-0.026,0.836
-0.594,-0.205,0.793
-0.488,-0.19,0.846
-0.602,-0.116,0.704
-0.67,0.007,0.703
-0.74,-0.043,0.556
-0.797,-0.087,0.476
-0.925,-0.13,0.484
-1.023,-0.083,0.554
-1.018,-0.136,0.613
-0.997,0.102,0.586
-1.206,0.066,0.628
-1.022,-0.041,0.665
-0.922,-0.09,0.956
-0.954,-0.22,1.023
-0.96,-0.331,0.999
-0.824,-0.236,0.901
-0.894,-0.205,0.858
-0.966,-0.133,0.649
-1.075,-0.102,0.606
-1.079,-0.089,0.395
-0.881,0.049,0.138
-0.644,0.103,0.063
-0.661,0.002,-0.012
-0.685,-0.107,-0.197
-0.184,-0.224,-0.373
0.173,-0.47,-0.631
-0.061,-0.199,-0.604
-0.382,-0.448,-1.274
-0.13,-0.274,-0.977
0.183,-0.252,-1.21
-0.051,-0.026,-1.123
0.089,-0.199,-1.044
-0.083,-0.105,-1.232
-0.009,-0.245,-0.919
-0.034,-0.132,-1.051
-0.064,-0.04,-1.033
-0.014,0.118,-1.054
0.265,0.288,-1.317
-0.299,0.06,-0.859
-0.017,-0.454,-0.968
-0.029,-0.124,-0.948
-0.18,0.105,-1.211
0.01,-0.052,-1.008
-0.003,0.029,-1.004
-0.05,-0.053,-1.001
-0.022,-0.021,-0.998
-0.014,-0.027,-0.992
-0.013,-0.028,-0.993
-0.015,-0.029,-0.993
-0.011,-0.028,-0.993
-0.013,-0.027,-0.992
-0.01,-0.028,-0.992
-0.014,-0.027,-0.992
-0.01,-0.028,-0.993
-0.013,-0.029,-0.991
-0.013,-0.028,-0.992
-0.012,-0.027,-0.993
-0.013,-0.029,-0.993
-0.012,-0.028,-0.989
-0.012,-0.029,-0.991
-0.01,-0.027,-0.992
-0.012,-0.029,-0.992
-0.011,-0.028,-0.992
-0.014,-0.028,-0.993
-0.013,-0.029,-0.992
-0.014,-0.027,-0.993
-0.012,-0.027,-0.992
-0.014,-0.027,-0.992
-0.014,-0.028,-0.992
-0.012,-0.027,-0.992
-0.013,-0.028,-0.993
-0.013,-0.03,-0.991
-0.012,-0.027,-0.992
-0.011,-0.03,-0.993
-0.015,-0.029,-0.991
0.009,-0.006,-1.06
-0.007,-0.033,-1.0
-0.034,-0.034,-0.98
-0.01,-0.021,-0.982
-0.01,-0.041,-0.966
-0.017,-0.029,-0.987
-0.01,-0.024,-0.993
-0.016,-0.029,-0.995
-0.008,-0.026,-0.997
-0.012,-0.027,-0.994
-0.012,-0.028,-0.992
-0.012,-0.029,-0.991
-0.011,-0.028,-0.992
-0.012,-0.029,-0.99
-0.014,-0.029,-0.991
-0.012,-0.028,-0.991
-0.012,-0.028,-0.993
-0.013,-0.029,-0.993
-0.012,-0.028,-0.993
-0.013,-0.028,-0.993
-0.012,-0.029,-0.993
-0.012,-0.028,-0.993
-0.012,-0.028,-0.993
-0.011,-0.028,-0.992
-0.012,-0.028,-0.993
-0.011,-0.028,-0.992
-0.013,-0.029,-0.992
-0.012,-0.028,-0.994
-0.012,-0.028,-0.993
-0.012,-0.028,-0.993
-0.012,-0.028,-0.993
-0.012,-0.028,-0.993
