#Format version: 1.0
time[ms],accX[mg],accY[mg],accZ[mg],gyroX[mdps],gyroY[mdps],gyroZ[mdps],magnX[mG],magnY[mG],magnZ[mG],press[hPa],temp[°C],hum[0,-4,529,-842,-70,140,-1050,,,,,,,0x03,
10,-4,531,-841,2170,280,-910,,,,,,,0x03,
19,-3,530,-840,5040,210,-770,,,,,,,0x03,
29,-4,529,-840,7700,70,-490,,,,,,,0x03,
39,-3,527,-842,9590,-70,-280,,,,,,,0x03,
48,-2,524,-847,10290,-210,-350,,,,,,,0x03,
58,-3,520,-855,9870,-70,-420,,,,,,,0x03,
67,-3,518,-859,8470,210,-630,,,,,,,0x03,
77,-4,518,-856,6790,420,-770,,,,,,,0x03,
87,-4,520,-851,6090,490,-770,,,,,,,0x03,
96,-2,520,-850,6860,490,-700,,,,,,,0x03,
106,0,519,-850,7630,210,-490,,,,,,,0x03,
116,-1,518,-852,7910,-70,-420,,,,,,,0x03,
125,-2,516,-859,7350,-280,-560,,,,,,,0x03,
135,-2,512,-862,6090,-210,-630,,,,,,,0x03,
145,-3,510,-861,4690,-210,-700,,,,,,,0x03,
154,-7,508,-860,3640,-140,-630,,,,,,,0x03,
164,-7,509,-859,2800,140,-350,,,,,,,0x03,
173,-5,512,-857,2660,420,-70,,,,,,,0x03,
183,-2,513,-857,3780,560,70,,,,,,,0x03,
193,-1,513,-857,5320,350,70,,,,,,,0x03,
202,-1,512,-857,6650,-70,70,,,,,,,0x03,
212,-2,507,-858,6650,-350,140,,,,,,,0x03,
222,-3,505,-863,5320,-350,280,,,,,,,0x03,
231,-2,506,-863,4200,70,280,,,,,,,0x03,
241,-2,507,-861,4620,140,280,,,,,,,0x03,
251,-2,507,-856,6020,0,350,,,,,,,0x03,
260,0,505,-862,7070,-210,490,,,,,,,0x03,
270,0,501,-867,6230,-420,490,,,,,,,0x03,
279,0,501,-868,3850,-560,350,,,,,,,0x03,
289,0,499,-870,1260,-490,210,,,,,,,0x03,
299,0,500,-867,-1260,-490,0,,,,,,,0x03,
308,-1,502,-864,-2940,-420,-70,,,,,,,0x03,
318,-1,503,-863,-3570,-350,0,,,,,,,0x03,
328,0,504,-862,-3640,-350,70,,,,,,,0x03,
337,0,505,-862,-3150,-350,70,,,,,,,0x03,
347,0,505,-862,-2940,-420,-70,,,,,,,0x03,
357,0,505,-861,-2870,-420,-210,,,,,,,0x03,
366,0,506,-860,-2590,-280,-210,,,,,,,0x03,
376,0,506,-859,-2170,-280,-210,,,,,,,0x03,
385,0,507,-861,-1470,-350,-70,,,,,,,0x03,
395,0,505,-863,-1610,-490,-70,,,,,,,0x03,
405,-1,504,-863,-3150,-630,-210,,,,,,,0x03,
414,0,505,-863,-5180,-420,-280,,,,,,,0x03,
424,0,508,-858,-6230,-140,-420,,,,,,,0x03,
434,0,511,-857,-5670,0,-420,,,,,,,0x03,
443,0,512,-852,-4060,-210,-420,,,,,,,0x03,
453,0,511,-854,-1820,-560,-350,,,,,,,0x03,
463,-1,508,-858,-560,-770,-280,,,,,,,0x03,
472,0,509,-859,-840,-700,-140,,,,,,,0x03,
482,0,511,-859,-1330,-630,-140,,,,,,,0x03,
491,0,510,-856,-1050,-490,-140,,,,,,,0x03,
501,0,512,-854,350,-490,-70,,,,,,,0x03,
511,-1,512,-856,2240,-630,0,,,,,,,0x03,
520,0,510,-859,3430,-770,70,,,,,,,0x03,
530,0,508,-861,2870,-840,0,,,,,,,0x03,
540,0,508,-862,1120,-840,-70,,,,,,,0x03,
549,0,508,-860,-420,-840,-280,,,,,,,0x03,
559,0,510,-858,-910,-770,-210,,,,,,,0x03,
569,-1,510,-855,70,-700,-70,,,,,,,0x03,
578,-1,510,-857,1540,-770,-70,,,,,,,0x03,
588,0,508,-857,2590,-910,0,,,,,,,0x03,
597,0,508,-858,3150,-910,0,,,,,,,0x03,
607,-1,507,-860,3430,-840,0,,,,,,,0x03,
617,-1,507,-861,3430,-840,0,,,,,,,0x03,
626,0,506,-861,3010,-770,70,,,,,,,0x03,
636,0,505,-860,2450,-770,0,,,,,,,0x03,
646,0,505,-861,2170,-910,-70,,,,,,,0x03,
655,0,505,-861,1680,-910,-140,,,,,,,0x03,
665,0,504,-862,1120,-840,-210,,,,,,,0x03,
675,0,505,-863,420,-770,-280,,,,,,,0x03,
684,-1,505,-861,-280,-770,-280,,,,,,,0x03,
694,1,505,-861,-420,-840,-210,,,,,,,0x03,
704,0,505,-861,-210,-840,-210,,,,,,,0x03,
713,0,505,-861,-210,-980,-280,,,,,,,0x03,
723,0,505,-863,-630,-980,-280,,,,,,,0x03,
732,-1,505,-862,-1330,-910,-350,,,,,,,0x03,
742,-1,506,-860,-1610,-770,-280,,,,,,,0x03,
752,0,506,-859,-980,-700,-140,,,,,,,0x03,
761,0,506,-860,-350,-770,-140,,,,,,,0x03,
771,0,505,-862,-490,-770,-140,,,,,,,0x03,
781,0,505,-861,-1330,-910,-280,,,,,,,0x03,
790,-1,506,-861,-2030,-910,-350,,,,,,,0x03,
800,-2,507,-860,-2170,-840,-280,,,,,,,0x03,
810,-1,508,-858,-1680,-700,-210,,,,,,,0x03,
819,-1,508,-857,-350,-770,-140,,,,,,,0x03,
829,-1,508,-857,1400,-840,-70,,,,,,,0x03,
838,0,507,-859,2730,-910,70,,,,,,,0x03,
848,0,505,-861,3010,-980,0,,,,,,,0x03,
858,0,505,-865,2100,-980,-70,,,,,,,0x03,
867,-1,504,-863,560,-980,-280,,,,,,,0x03,
877,-1,504,-861,-490,-910,-280,,,,,,,0x03,
887,-1,504,-860,-630,-840,-210,,,,,,,0x03,
896,-2,505,-859,-420,-840,-70,,,,,,,0x03,
906,-1,506,-859,210,-840,0,,,,,,,0x03,
916,-2,506,-858,910,-910,0,,,,,,,0x03,
925,-1,506,-860,1750,-910,0,,,,,,,0x03,
935,-1,505,-862,2100,-980,-70,,,,,,,0x03,
944,0,504,-864,1330,-1050,-140,,,,,,,0x03,
954,-1,502,-864,70,-980,-140,,,,,,,0x03,
964,-1,504,-861,-980,-910,-140,,,,,,,0x03,
973,-1,505,-861,-1260,-700,-140,,,,,,,0x03,
983,-1,504,-861,-1330,-630,-140,,,,,,,0x03,
993,0,506,-862,-1190,-700,-140,,,,,,,0x03,
1002,-2,504,-862,-1400,-840,-210,,,,,,,0x03,
1012,-2,504,-862,-2170,-770,-210,,,,,,,0x03,
1022,-1,505,-861,-2870,-630,-210,,,,,,,0x03,
1031,0,508,-859,-2800,-490,-210,,,,,,,0x03,
1041,-1,508,-858,-1820,-490,-140,,,,,,,0x03,
1050,0,508,-858,-140,-630,-140,,,,,,,0x03,
1060,-1,506,-861,770,-770,-70,,,,,,,0x03,
1070,-1,504,-863,-70,-910,-140,,,,,,,0x03,
1079,-1,505,-863,-2030,-840,-140,,,,,,,0x03,
1089,-2,507,-862,-3710,-630,-210,,,,,,,0x03,
1099,-2,509,-858,-4130,-490,-280,,,,,,,0x03,
1108,-1,510,-857,-2940,-560,-210,,,,,,,0x03,
1118,-1,510,-857,-1260,-700,-210,,,,,,,0x03,
1128,-2,509,-859,-280,-770,-210,,,,,,,0x03,
1137,-2,508,-858,-280,-770,-140,,,,,,,0x03,
1147,-2,508,-860,-210,-630,-210,,,,,,,0x03,
1156,-1,509,-858,0,-560,-70,,,,,,,0x03,
1166,-1,510,-859,560,-560,0,,,,,,,0x03,
1176,0,509,-859,980,-770,-70,,,,,,,0x03,
1185,-1,507,-861,840,-770,-140,,,,,,,0x03,
1195,-1,507,-861,0,-770,-140,,,,,,,0x03,
1205,-1,509,-860,-980,-770,-210,,,,,,,0x03,
1214,0,508,-859,-1260,-700,-210,,,,,,,0x03,
1224,-2,509,-858,-980,-700,-280,,,,,,,0x03,
1234,-1,510,-857,-70,-700,-210,,,,,,,0x03,
1243,-2,510,-858,980,-700,-140,,,,,,,0x03,
1253,-1,509,-858,1610,-770,-70,,,,,,,0x03,
1262,-1,508,-857,2100,-840,0,,,,,,,0x03,
1272,-2,506,-859,2310,-770,0,,,,,,,0x03,
1282,-2,506,-860,2240,-770,0,,,,,,,0x03,
1291,-1,507,-860,2450,-700,70,,,,,,,0x03,
1301,-1,506,-860,2520,-700,70,,,,,,,0x03,
1311,-2,505,-862,2520,-770,0,,,,,,,0x03,
1320,-2,504,-863,1680,-910,-70,,,,,,,0x03,
1330,-1,504,-864,140,-840,-70,,,,,,,0x03,
1340,-2,503,-863,-1540,-770,-70,,,,,,,0x03,
1349,-3,505,-861,-3220,-700,0,,,,,,,0x03,
1359,-2,507,-861,-3780,-630,0,,,,,,,0x03,
1368,-1,508,-859,-3640,-630,-70,,,,,,,0x03,
1378,-1,509,-857,-2660,-700,-140,,,,,,,0x03,
1388,-2,509,-858,-980,-700,-140,,,,,,,0x03,
1397,-1,509,-859,140,-770,-140,,,,,,,0x03,
1407,-1,508,-859,420,-700,-210,,,,,,,0x03,
1417,-2,507,-859,560,-700,-140,,,,,,,0x03,
1426,-1,508,-859,770,-700,-70,,,,,,,0x03,
1436,-1,508,-861,420,-770,-70,,,,,,,0x03,
1446,0,507,-861,-210,-840,-70,,,,,,,0x03,
1455,0,506,-861,-1050,-770,-140,,,,,,,0x03,
1465,-1,508,-860,-1680,-770,-210,,,,,,,0x03,
1474,-1,509,-859,-1540,-700,-210,,,,,,,0x03,
1484,-1,508,-860,-1260,-700,-280,,,,,,,0x03,
1494,-1,508,-860,-1610,-770,-420,,,,,,,0x03,
1503,-2,508,-858,-2030,-840,-350,,,,,,,0x03,
1513,-1,509,-858,-2100,-770,-280,,,,,,,0x03,
1523,-3,510,-859,-1610,-700,-210,,,,,,,0x03,
1532,-1,511,-856,-1190,-700,-210,,,,,,,0x03,
1542,-1,510,-857,-70,-700,-210,,,,,,,0x03,
1552,-2,510,-857,980,-700,-280,,,,,,,0x03,
1561,-2,509,-858,1680,-840,-210,,,,,,,0x03,
1571,-2,508,-860,1680,-840,-140,,,,,,,0x03,
1580,-2,508,-859,910,-840,-140,,,,,,,0x03,
1590,-2,508,-859,420,-910,-140,,,,,,,0x03,
1600,-1,509,-859,350,-980,-70,,,,,,,0x03,
1609,-3,508,-858,840,-980,-70,,,,,,,0x03,
1619,-2,509,-858,1610,-1050,-70,,,,,,,0x03,
1629,-2,508,-858,2660,-1120,0,,,,,,,0x03,
1638,-2,507,-859,3570,-1190,0,,,,,,,0x03,
1648,-2,506,-860,3640,-1190,0,,,,,,,0x03,
1658,-2,504,-861,3150,-1190,70,,,,,,,0x03,
1667,0,504,-864,2100,-1260,140,,,,,,,0x03,
1677,-2,503,-865,210,-1260,70,,,,,,,0x03,
1686,-2,503,-865,-2030,-1260,-140,,,,,,,0x03,
1696,-2,505,-863,-4200,-1120,-280,,,,,,,0x03,
1706,-3,506,-860,-5600,-1120,-350,,,,,,,0x03,
1715,-2,508,-861,-6440,-1120,-420,,,,,,,0x03,
1725,-3,509,-858,-7210,-980,-420,,,,,,,0x03,
1735,-4,511,-855,-6860,-910,-420,,,,,,,0x03,
1744,-4,512,-855,-5320,-840,-420,,,,,,,0x03,
1754,-4,514,-855,-3430,-700,-280,,,,,,,0x03,
1764,-2,513,-855,-1750,-770,-280,,,,,,,0x03,
1773,-3,512,-855,-490,-910,-280,,,,,,,0x03,
1783,-3,511,-857,350,-980,-280,,,,,,,0x03,
1792,-3,511,-859,70,-980,-280,,,,,,,0x03,
1802,-3,511,-859,-1120,-980,-350,,,,,,,0x03,
1812,-3,511,-857,-2240,-910,-350,,,,,,,0x03,
1821,-4,512,-855,-2310,-770,-280,,,,,,,0x03,
1831,-4,514,-854,-1190,-700,-210,,,,,,,0x03,
1841,-3,514,-855,280,-770,-70,,,,,,,0x03,
1850,-3,512,-856,1050,-910,-140,,,,,,,0x03,
1860,-3,510,-859,770,-980,-210,,,,,,,0x03,
1870,-3,510,-858,-280,-910,-280,,,,,,,0x03,
1879,-4,512,-857,-1260,-910,-280,,,,,,,0x03,
1889,-3,513,-855,-1540,-840,-210,,,,,,,0x03,
1898,-3,515,-854,-560,-840,-140,,,,,,,0x03,
1908,-4,514,-852,1330,-840,0,,,,,,,0x03,
1918,-4,513,-854,3640,-770,70,,,,,,,0x03,
1927,-3,513,-855,5670,-840,140,,,,,,,0x03,
1937,-3,511,-858,7000,-910,70,,,,,,,0x03,
1947,-3,509,-859,7280,-1050,70,,,,,,,0x03,
1956,-3,506,-863,6300,-1120,140,,,,,,,0x03,
1966,-4,505,-863,4410,-1050,70,,,,,,,0x03,
1976,-3,504,-864,2310,-910,0,,,,,,,0x03,
1985,-3,505,-863,140,-770,-70,,,,,,,0x03,
1995,-4,505,-860,-1260,-630,-70,,,,,,,0x03,
2005,-3,507,-860,-1820,-630,-70,,,,,,,0x03,
2014,-3,510,-860,-2030,-700,-140,,,,,,,0x03,
2024,-3,508,-858,-1750,-700,-210,,,,,,,0x03,
2033,-3,508,-860,-1120,-700,-210,,,,,,,0x03,
2043,-4,508,-860,-980,-630,-210,,,,,,,0x03,
2053,-3,508,-859,-840,-560,-140,,,,,,,0x03,
2062,-3,509,-857,-910,-630,-140,,,,,,,0x03,
2072,-2,508,-858,-560,-630,-280,,,,,,,0x03,
2082,-2,509,-859,-560,-630,-280,,,,,,,0x03,
2091,-3,508,-859,-490,-630,-210,,,,,,,0x03,
2101,-3,509,-857,-420,-630,-280,,,,,,,0x03,
2111,-4,508,-860,70,-630,-280,,,,,,,0x03,
2120,-4,509,-860,-140,-560,-280,,,,,,,0x03,
2130,-4,509,-858,-280,-560,-280,,,,,,,0x03,
2139,-3,509,-856,280,-490,-210,,,,,,,0x03,
2149,-3,509,-856,1400,-560,-140,,,,,,,0x03,
2159,-3,509,-859,2030,-700,-70,,,,,,,0x03,
2168,-2,507,-862,1540,-840,0,,,,,,,0x03,
2178,-3,506,-864,420,-840,-70,,,,,,,0x03,
2188,-3,507,-863,-350,-630,-210,,,,,,,0x03,
2197,-4,507,-858,-630,-560,-210,,,,,,,0x03,
2207,-5,509,-857,140,-630,-140,,,,,,,0x03,
2217,-4,509,-858,1190,-700,0,,,,,,,0x03,
2226,-4,508,-859,1750,-770,-70,,,,,,,0x03,
2236,-4,506,-860,1750,-770,0,,,,,,,0x03,
2245,-4,506,-859,1680,-770,-70,,,,,,,0x03,
2255,-3,507,-860,1680,-770,0,,,,,,,0x03,
2265,-4,506,-862,1680,-770,0,,,,,,,0x03,
2274,-4,506,-862,1540,-770,0,,,,,,,0x03,
2284,-2,506,-863,980,-770,0,,,,,,,0x03,
2294,-4,505,-864,280,-770,-70,,,,,,,0x03,
2303,-4,504,-862,-560,-700,-140,,,,,,,0x03,
2313,-3,505,-862,-1050,-630,-210,,,,,,,0x03,
2323,-3,507,-860,-1120,-560,-140,,,,,,,0x03,
2332,-3,506,-860,-840,-630,-210,,,,,,,0x03,
2342,-3,506,-859,-490,-630,-140,,,,,,,0x03,
2351,-3,505,-859,70,-630,-140,,,,,,,0x03,
2361,-3,505,-862,210,-630,-140,,,,,,,0x03,
2371,-4,506,-862,-210,-630,-140,,,,,,,0x03,
2380,-3,505,-861,-560,-630,-140,,,,,,,0x03,
2390,-4,505,-861,-910,-630,-140,,,,,,,0x03,
2400,-3,506,-860,-1120,-630,-140,,,,,,,0x03,
2409,-3,506,-860,-980,-560,-140,,,,,,,0x03,
2419,-4,507,-859,-630,-630,-210,,,,,,,0x03,
2429,-4,507,-860,-70,-700,-140,,,,,,,0x03,
2438,-4,506,-860,280,-630,-70,,,,,,,0x03,
2448,-3,506,-859,490,-630,-70,,,,,,,0x03,
2457,-3,506,-860,350,-700,-70,,,,,,,0x03,
2467,-3,507,-860,350,-700,-140,,,,,,,0x03,
2477,-3,505,-861,420,-630,-70,,,,,,,0x03,
2486,-3,506,-861,140,-700,-140,,,,,,,0x03,
2496,-3,506,-860,-210,-700,-140,,,,,,,0x03,
2506,-5,506,-860,-420,-700,-210,,,,,,,0x03,
2515,-4,506,-860,-350,-700,-140,,,,,,,0x03,
2525,-4,507,-859,-70,-700,-70,,,,,,,0x03,
2535,-3,507,-860,140,-700,-140,,,,,,,0x03,
2544,-3,506,-860,560,-700,-140,,,,,,,0x03,
2554,-4,506,-861,1120,-700,-70,,,,,,,0x03,
2563,-3,505,-861,1470,-700,-70,,,,,,,0x03,
2573,-3,506,-861,1470,-700,0,,,,,,,0x03,
2583,-3,505,-863,1050,-700,-70,,,,,,,0x03,
2592,-2,505,-860,560,-700,-140,,,,,,,0x03,
2602,-4,505,-861,560,-700,-140,,,,,,,0x03,
2612,-3,505,-860,770,-700,-140,,,,,,,0x03,
2621,-4,504,-860,1190,-700,-70,,,,,,,0x03,
2631,-4,504,-860,1750,-770,0,,,,,,,0x03,
2641,-4,504,-862,2380,-700,0,,,,,,,0x03,
2650,-4,504,-863,2520,-770,0,,,,,,,0x03,
2660,-2,504,-863,2240,-770,0,,,,,,,0x03,
2669,-3,502,-864,1470,-770,-70,,,,,,,0x03,
2679,-3,503,-864,350,-700,-70,,,,,,,0x03,
2689,-4,502,-863,-280,-700,-140,,,,,,,0x03,
2698,-3,502,-863,-420,-700,-210,,,,,,,0x03,
2708,-2,503,-862,-420,-630,-210,,,,,,,0x03,
2718,-4,503,-862,-210,-700,-140,,,,,,,0x03,
2727,-4,504,-861,-210,-700,-140,,,,,,,0x03,
2737,-3,504,-861,-70,-700,-140,,,,,,,0x03,
2747,-4,503,-862,210,-700,-210,,,,,,,0x03,
2756,-5,503,-862,280,-700,-210,,,,,,,0x03,
2766,-4,502,-863,140,-700,-140,,,,,,,0x03,
2775,-4,503,-863,-210,-700,-140,,,,,,,0x03,
2785,-4,502,-863,-350,-630,-140,,,,,,,0x03,
2795,-3,503,-863,-700,-630,-140,,,,,,,0x03,
2804,-3,503,-862,-980,-560,-140,,,,,,,0x03,
2814,-3,504,-861,-630,-630,-140,,,,,,,0x03,
2824,-4,504,-863,-70,-630,-140,,,,,,,0x03,
2833,-3,504,-862,0,-630,-70,,,,,,,0x03,
2843,-4,503,-863,-70,-700,-70,,,,,,,0x03,
2853,-3,503,-863,-280,-700,-140,,,,,,,0x03,
2862,-3,503,-862,-210,-630,-140,,,,,,,0x03,
2872,-3,504,-862,70,-630,-70,,,,,,,0x03,
2881,-3,503,-862,280,-630,-70,,,,,,,0x03,
2891,-4,503,-863,280,-630,-70,,,,,,,0x03,
2901,-3,502,-863,-70,-700,-70,,,,,,,0x03,
2910,-2,503,-864,-700,-700,-210,,,,,,,0x03,
2920,-4,504,-864,-1330,-630,-140,,,,,,,0x03,
2930,-3,503,-862,-1680,-560,-140,,,,,,,0x03,
2939,-3,503,-862,-1680,-630,-140,,,,,,,0x03,
2949,-3,504,-861,-1470,-630,-210,,,,,,,0x03,
2959,-5,505,-860,-1120,-630,-140,,,,,,,0x03,
2968,-3,505,-861,-350,-560,-140,,,,,,,0x03,
2978,-3,505,-861,140,-630,-70,,,,,,,0x03,
2987,-3,504,-862,560,-630,-70,,,,,,,0x03,
2997,-2,503,-862,630,-630,-140,,,,,,,0x03,
3007,-3,503,-863,210,-700,-140,,,,,,,0x03,
3016,-4,503,-863,-700,-700,-140,,,,,,,0x03,
3026,-3,503,-862,-1470,-630,-140,,,,,,,0x03,
3036,-4,504,-861,-1540,-560,-140,,,,,,,0x03,
3045,-4,507,-860,-840,-560,-70,,,,,,,0x03,
3055,-3,505,-860,350,-560,-70,,,,,,,0x03,
3065,-3,503,-861,1120,-630,-140,,,,,,,0x03,
3074,-3,503,-862,1190,-700,-70,,,,,,,0x03,
3084,-3,503,-863,700,-630,-210,,,,,,,0x03,
3093,-3,502,-863,-70,-630,-210,,,,,,,0x03,
3103,-3,503,-861,-840,-630,-140,,,,,,,0x03,
3113,-3,504,-861,-1190,-700,-70,,,,,,,0x03,
3122,-3,505,-862,-840,-700,-140,,,,,,,0x03,
3132,-3,504,-861,-350,-700,-140,,,,,,,0x03,
3142,-3,505,-861,0,-630,-70,,,,,,,0x03,
3151,-3,506,-861,490,-630,-140,,,,,,,0x03,
3161,-3,504,-862,1050,-630,-70,,,,,,,0x03,
3171,-3,504,-862,1190,-630,-70,,,,,,,0x03,
3180,-2,503,-863,980,-700,-70,,,,,,,0x03,
3190,-3,504,-864,350,-700,-140,,,,,,,0x03,
3199,-3,503,-863,-350,-700,-140,,,,,,,0x03,
3209,-3,504,-862,-840,-700,-140,,,,,,,0x03,
3219,-3,504,-862,-980,-630,-70,,,,,,,0x03,
3228,-2,505,-860,-770,-630,-140,,,,,,,0x03,
3238,-4,504,-861,-280,-630,-140,,,,,,,0x03,
3248,-2,504,-861,70,-700,-140,,,,,,,0x03,
3257,-2,503,-862,210,-630,-140,,,,,,,0x03,
3267,-3,503,-862,140,-700,-140,,,,,,,0x03,
3277,-3,503,-862,-210,-700,-140,,,,,,,0x03,
3286,-4,505,-861,-280,-700,-70,,,,,,,0x03,
3296,-4,503,-861,-70,-700,-70,,,,,,,0x03,
3306,-4,504,-861,0,-630,0,,,,,,,0x03,
3315,-4,505,-860,210,-630,0,,,,,,,0x03,
3325,-3,505,-861,1050,-700,-70,,,,,,,0x03,
3334,-2,503,-861,1610,-700,-70,,,,,,,0x03,
3344,-2,503,-862,1680,-630,-140,,,,,,,0x03,
3354,-3,503,-862,1610,-630,-140,,,,,,,0x03,
3363,-3,502,-862,1470,-700,-140,,,,,,,0x03,
3373,-3,504,-862,1330,-700,-70,,,,,,,0x03,
3383,-2,502,-863,1190,-700,-70,,,,,,,0x03,
3392,-3,501,-863,840,-700,-70,,,,,,,0x03,
3402,-3,502,-863,350,-630,-70,,,,,,,0x03,
3412,-4,503,-861,490,-630,-70,,,,,,,0x03,
3421,-4,502,-863,1050,-630,-70,,,,,,,0x03,
3431,-3,501,-865,980,-700,-70,,,,,,,0x03,
3440,-3,501,-864,770,-700,-140,,,,,,,0x03,
3450,-2,500,-864,280,-700,-210,,,,,,,0x03,
3460,-4,501,-864,-210,-630,-210,,,,,,,0x03,
3469,-3,503,-863,-210,-630,-70,,,,,,,0x03,
3479,-4,501,-864,-70,-700,-140,,,,,,,0x03,
3489,-4,501,-863,-210,-700,-70,,,,,,,0x03,
3498,-3,502,-862,-140,-700,-140,,,,,,,0x03,
3508,-4,502,-864,70,-700,-70,,,,,,,0x03,
3518,-4,501,-863,70,-700,-70,,,,,,,0x03,
3527,-5,502,-861,280,-700,-70,,,,,,,0x03,
3537,-5,502,-858,910,-700,0,,,,,,,0x03,
3546,-6,502,-856,1890,-770,280,,,,,,,0x03,
3556,-4,503,-858,2380,-910,560,,,,,,,0x03,
3566,-2,503,-865,1890,-1120,770,,,,,,,0x03,
3575,-1,498,-871,770,-1120,700,,,,,,,0x03,
3585,-2,498,-871,420,-910,280,,,,,,,0x03,
3595,-3,499,-867,-560,-840,140,,,,,,,0x03,
3604,-2,498,-867,-1400,-700,0,,,,,,,0x03,
3614,-1,500,-867,-2170,-630,-70,,,,,,,0x03,
3624,-3,501,-866,-2800,-630,-210,,,,,,,0x03,
3633,-2,500,-866,-3150,-700,-210,,,,,,,0x03,
3643,-2,500,-867,-4130,-700,-210,,,,,,,0x03,
3652,-2,501,-865,-5670,-700,-280,,,,,,,0x03,
3662,-3,503,-861,-6930,-700,-350,,,,,,,0x03,
3672,-2,504,-861,-7490,-700,-420,,,,,,,0x03,
3681,-4,507,-860,-7560,-700,-420,,,,,,,0x03,
3691,-3,507,-860,-6930,-700,-420,,,,,,,0x03,
3701,-4,509,-858,-6090,-700,-420,,,,,,,0x03,
3710,-3,510,-857,-4970,-770,-350,,,,,,,0x03,
3720,-3,509,-859,-4060,-770,-350,,,,,,,0x03,
3730,-3,509,-860,-4200,-770,-420,,,,,,,0x03,
3739,-3,509,-858,-4900,-840,-560,,,,,,,0x03,
3749,-4,511,-856,-4970,-700,-490,,,,,,,0x03,
3758,-4,512,-856,-4340,-700,-350,,,,,,,0x03,
3768,-4,513,-855,-3710,-630,-210,,,,,,,0x03,
3778,-4,513,-855,-2800,-630,-280,,,,,,,0x03,
3787,-5,514,-853,-1750,-630,-280,,,,,,,0x03,
3797,-5,513,-854,-490,-560,-210,,,,,,,0x03,
3807,-4,513,-855,490,-560,-70,,,,,,,0x03,
3816,-4,513,-855,1330,-560,0,,,,,,,0x03,
3826,-3,512,-856,2030,-560,0,,,,,,,0x03,
3836,-3,511,-856,2240,-560,70,,,,,,,0x03,
3845,-3,511,-858,1820,-560,0,,,,,,,0x03,
3855,-3,511,-859,1190,-630,-70,,,,,,,0x03,
3864,-3,511,-858,770,-630,-140,,,,,,,0x03,
3874,-3,510,-857,420,-630,-140,,,,,,,0x03,
3884,-4,512,-856,490,-630,-70,,,,,,,0x03,
3893,-4,512,-857,1120,-560,0,,,,,,,0x03,
3903,-3,512,-856,1890,-630,0,,,,,,,0x03,
3913,-2,511,-857,2450,-630,70,,,,,,,0x03,
3922,-3,509,-860,2380,-630,0,,,,,,,0x03,
3932,-3,509,-860,1540,-630,-140,,,,,,,0x03,
3942,-3,509,-860,490,-700,-210,,,,,,,0x03,
3951,-3,510,-858,-210,-630,-140,,,,,,,0x03,
3961,-3,510,-858,-420,-700,-210,,,,,,,0x03,
3970,-3,510,-858,-420,-630,-210,,,,,,,0x03,
3980,-4,509,-857,140,-700,-210,,,,,,,0x03,
3990,-3,510,-857,1050,-700,-140,,,,,,,0x03,
3999,-3,510,-856,1680,-700,-70,,,,,,,0x03,
4009,-4,508,-859,2310,-700,-70,,,,,,,0x03,
4019,-4,508,-859,2380,-700,-140,,,,,,,0x03,
4028,-3,508,-861,2030,-700,-70,,,,,,,0x03,
4038,-4,508,-859,1190,-700,-140,,,,,,,0x03,
4048,-3,509,-858,1120,-700,-70,,,,,,,0x03,
4057,-4,508,-859,1680,-700,0,,,,,,,0x03,
4067,-3,507,-860,2170,-700,-70,,,,,,,0x03,
4076,-2,507,-860,2100,-770,-70,,,,,,,0x03,
4086,-3,506,-861,1750,-700,-70,,,,,,,0x03,
4096,-3,506,-862,1050,-630,-140,,,,,,,0x03,
4105,-4,505,-862,0,-630,-70,,,,,,,0x03,
4115,-3,507,-861,-630,-630,-70,,,,,,,0x03,
4125,-3,507,-859,-560,-630,-70,,,,,,,0x03,
4134,-3,508,-857,280,-560,-70,,,,,,,0x03,
4144,-4,507,-860,1190,-560,-70,,,,,,,0x03,
4154,-3,506,-861,1540,-630,-70,,,,,,,0x03,
4163,-4,505,-862,1470,-630,-70,,,,,,,0x03,
4173,-4,504,-863,1050,-630,-140,,,,,,,0x03,
4182,-2,505,-863,70,-630,-140,,,,,,,0x03,
4192,-4,505,-861,-910,-630,-210,,,,,,,0x03,
4202,-4,507,-859,-1400,-630,-140,,,,,,,0x03,
4211,-4,506,-860,-1260,-560,-70,,,,,,,0x03,
4221,-4,507,-860,-770,-560,-70,,,,,,,0x03,
4231,-3,507,-860,-350,-700,-70,,,,,,,0x03,
4240,-3,506,-860,210,-700,-70,,,,,,,0x03,
4250,-4,506,-861,560,-770,0,,,,,,,0x03,
4260,-4,506,-862,280,-770,-70,,,,,,,0x03,
4269,-4,506,-861,-70,-700,-70,,,,,,,0x03,
4279,-3,506,-859,210,-700,-70,,,,,,,0x03,
4288,-4,507,-860,840,-700,0,,,,,,,0x03,
4298,-4,506,-858,1260,-700,0,,,,,,,0x03,
4308,-4,505,-859,1890,-700,0,,,,,,,0x03,
4317,-4,505,-862,2240,-700,70,,,,,,,0x03,
4327,-4,505,-863,1890,-700,-70,,,,,,,0x03,
4337,-3,504,-862,1400,-700,0,,,,,,,0x03,
4346,-2,503,-863,1050,-700,0,,,,,,,0x03,
4356,-4,504,-862,420,-770,0,,,,,,,0x03,
4366,-3,505,-862,0,-700,-70,,,,,,,0x03,
4375,-2,505,-862,0,-770,-70,,,,,,,0x03,
4385,-3,504,-862,210,-700,-140,,,,,,,0x03,
4394,-2,504,-861,280,-700,-140,,,,,,,0x03,
4404,-4,504,-861,350,-700,-140,,,,,,,0x03,
4414,-3,504,-862,630,-700,-70,,,,,,,0x03,
4423,-3,503,-863,420,-770,-70,,,,,,,0x03,
4433,-4,503,-864,-350,-770,-140,,,,,,,0x03,
4443,-3,503,-862,-1050,-700,-140,,,,,,,0x03,
4452,-4,503,-862,-1400,-700,-210,,,,,,,0x03,
4462,-3,505,-861,-1330,-700,-140,,,,,,,0x03,
4472,-5,504,-860,-770,-630,-140,,,,,,,0x03,
4481,-3,505,-861,-280,-700,-140,,,,,,,0x03,
4491,-2,504,-861,-140,-700,-140,,,,,,,0x03,
4501,-3,504,-863,-490,-630,-140,,,,,,,0x03,
4510,-4,505,-861,-1190,-630,-140,,,,,,,0x03,
4520,-3,505,-862,-1400,-630,-140,,,,,,,0x03,
4529,-4,504,-862,-1120,-700,-140,,,,,,,0x03,
4539,-3,504,-862,-1190,-700,-140,,,,,,,0x03,
4549,-3,504,-861,-1330,-700,-140,,,,,,,0x03,
4558,-3,506,-861,-1330,-700,-210,,,,,,,0x03,
4568,-4,506,-861,-1120,-630,-140,,,,,,,0x03,
4578,-3,505,-860,-980,-630,-210,,,,,,,0x03,
4587,-4,506,-861,-910,-630,-210,,,,,,,0x03,
4597,-3,504,-861,-1120,-630,-280,,,,,,,0x03,
4607,-4,507,-858,-1330,-560,-210,,,,,,,0x03,
4616,-4,506,-858,-630,-630,-210,,,,,,,0x03,
4626,-4,507,-860,70,-700,-140,,,,,,,0x03,
4635,-4,506,-861,280,-700,-70,,,,,,,0x03,
4645,-5,506,-859,140,-700,-70,,,,,,,0x03,
4655,-3,506,-860,140,-700,-140,,,,,,,0x03,
4664,-3,505,-861,-350,-700,-140,,,,,,,0x03,
4674,-3,507,-859,-560,-630,-210,,,,,,,0x03,
4684,-5,507,-859,280,-630,-140,,,,,,,0x03,
4693,-3,506,-861,1330,-560,-140,,,,,,,0x03,
4703,-3,506,-861,1680,-560,-70,,,,,,,0x03,
4713,-3,504,-861,1960,-560,-70,,,,,,,0x03,
4722,-2,505,-860,1820,-490,-70,,,,,,,0x03,
4732,-2,504,-862,1890,-560,-70,,,,,,,0x03,
4741,-4,504,-862,1470,-560,-140,,,,,,,0x03,
4751,-3,504,-863,1540,-560,-140,,,,,,,0x03,
4761,-3,504,-862,1260,-560,-140,,,,,,,0x03,
4770,-2,504,-863,980,-560,-140,,,,,,,0x03,
4780,-4,503,-861,630,-490,-70,,,,,,,0x03,
4790,-4,503,-860,980,-420,0,,,,,,,0x03,
4799,-2,504,-861,1820,-420,0,,,,,,,0x03,
4809,-3,503,-860,2380,-490,-70,,,,,,,0x03,
4819,-3,502,-862,2800,-490,0,,,,,,,0x03,
4828,-3,501,-863,2590,-560,0,,,,,,,0x03,
4838,-3,502,-864,1820,-560,0,,,,,,,0x03,
4847,-4,501,-863,1190,-560,-70,,,,,,,0x03,
4857,-4,502,-863,770,-560,-140,,,,,,,0x03,
4867,-3,502,-863,630,-420,-140,,,,,,,0x03,
4876,-3,501,-861,980,-490,-70,,,,,,,0x03,
4886,-3,501,-863,1470,-490,-140,,,,,,,0x03,
4896,-3,501,-863,1890,-560,-70,,,,,,,0x03,
4905,-3,500,-864,1820,-560,-140,,,,,,,0x03,
4915,-4,498,-866,1540,-560,-70,,,,,,,0x03,
4925,-3,500,-864,840,-560,-70,,,,,,,0x03,
4934,-3,501,-864,560,-560,-140,,,,,,,0x03,
4944,-3,501,-862,910,-560,-140,,,,,,,0x03,
4953,-2,500,-864,1470,-560,-70,,,,,,,0x03,
4963,-3,499,-864,1610,-560,-70,,,,,,,0x03,
4973,-2,498,-864,1470,-560,0,,,,,,,0x03,
4982,-2,498,-867,1190,-560,0,,,,,,,0x03,
4992,-2,497,-867,350,-630,-70,,,,,,,0x03,
5002,-2,498,-867,-1050,-630,-140,,,,,,,0x03,
5011,-2,498,-867,-2590,-630,-210,,,,,,,0x03,
5021,-2,499,-866,-4060,-700,-140,,,,,,,0x03,
5031,-3,499,-864,-5040,-700,-280,,,,,,,0x03,
5040,-2,503,-863,-5390,-700,-280,,,,,,,0x03,
5050,-2,502,-862,-4970,-630,-280,,,,,,,0x03,
5059,-3,504,-860,-4130,-560,-210,,,,,,,0x03,
5069,-3,505,-859,-2730,-560,-210,,,,,,,0x03,
5079,-2,504,-860,-1260,-630,-210,,,,,,,0x03,
5088,-3,504,-862,-210,-770,-210,,,,,,,0x03,
5098,-2,503,-863,210,-770,-140,,,,,,,0x03,
5108,-2,502,-864,-140,-770,-140,,,,,,,0x03,
5117,-2,503,-862,-840,-770,-140,,,,,,,0x03,
5127,-3,503,-863,-1330,-770,-210,,,,,,,0x03,
5137,-4,504,-861,-1260,-700,-140,,,,,,,0x03,
5146,-2,504,-862,-980,-630,-210,,,,,,,0x03,
5156,-3,504,-860,-700,-630,-210,,,,,,,0x03,
5165,-4,504,-861,-280,-700,-140,,,,,,,0x03,
5175,-3,503,-862,140,-630,-140,,,,,,,0x03,
5185,-3,503,-861,350,-630,-140,,,,,,,0x03,
5194,-2,503,-861,490,-700,-140,,,,,,,0x03,
5204,-3,503,-862,630,-700,-140,,,,,,,0x03,
5214,-3,504,-862,700,-700,-140,,,,,,,0x03,
5223,-4,503,-862,700,-700,-140,,,,,,,0x03,
5233,-3,503,-863,630,-770,-210,,,,,,,0x03,
5243,-2,502,-864,420,-770,-210,,,,,,,0x03,
5252,-3,502,-864,-280,-770,-210,,,,,,,0x03,
5262,-3,503,-863,-1050,-840,-210,,,,,,,0x03,
5271,-3,503,-863,-1400,-700,-140,,,,,,,0x03,
5281,-3,504,-861,-1260,-700,-140,,,,,,,0x03,
5291,-3,505,-860,-700,-700,-210,,,,,,,0x03,
5300,-2,504,-862,280,-700,-210,,,,,,,0x03,
5310,-2,505,-861,1120,-700,-140,,,,,,,0x03,
5320,-4,502,-863,1540,-840,-140,,,,,,,0x03,
5329,-4,501,-863,1260,-840,-140,,,,,,,0x03,
5339,-4,502,-864,490,-770,-140,,,,,,,0x03,
5349,-3,501,-862,-560,-770,-140,,,,,,,0x03,
5358,-3,503,-862,-980,-700,-70,,,,,,,0x03,
5368,-3,503,-861,-770,-700,-140,,,,,,,0x03,
5377,-4,504,-861,0,-630,-70,,,,,,,0x03,
5387,-3,503,-862,770,-700,-70,,,,,,,0x03,
5397,-3,502,-864,700,-700,0,,,,,,,0x03,
5406,-3,502,-863,0,-700,-70,,,,,,,0x03,
5416,-3,503,-863,-420,-630,-140,,,,,,,0x03,
5426,-3,503,-862,-420,-630,-140,,,,,,,0x03,
5435,-4,504,-861,0,-630,-70,,,,,,,0x03,
5445,-3,504,-860,1120,-630,-70,,,,,,,0x03,
5455,-4,503,-862,2310,-700,0,,,,,,,0x03,
5464,-3,502,-862,3010,-630,70,,,,,,,0x03,
5474,-4,502,-864,2940,-630,0,,,,,,,0x03,
5483,-3,500,-864,2310,-700,0,,,,,,,0x03,
5493,-3,500,-865,1330,-700,-70,,,,,,,0x03,
5503,-2,500,-865,350,-630,-70,,,,,,,0x03,
5512,-2,501,-864,-560,-630,-140,,,,,,,0x03,
5522,-2,502,-862,-630,-630,-140,,,,,,,0x03,
5532,-3,501,-862,280,-630,-70,,,,,,,0x03,
5541,-3,501,-863,980,-700,-70,,,,,,,0x03,
5551,-3,500,-864,1260,-700,-140,,,,,,,0x03,
5561,-3,499,-865,1050,-700,-140,,,,,,,0x03,
5570,-2,499,-865,630,-700,-140,,,,,,,0x03,
5580,-3,500,-865,-70,-700,-140,,,,,,,0x03,
5589,-3,500,-864,-770,-700,-140,,,,,,,0x03,
5599,-3,500,-863,-910,-700,-140,,,,,,,0x03,
5609,-3,500,-864,-840,-700,-210,,,,,,,0x03,
5618,-3,501,-863,-910,-700,-210,,,,,,,0x03,
5628,-3,501,-864,-840,-700,-210,,,,,,,0x03,
5638,-3,500,-863,-560,-700,-140,,,,,,,0x03,
5647,-2,502,-864,-350,-700,-140,,,,,,,0x03,
5657,-1,501,-863,-350,-630,-140,,,,,,,0x03,
5667,-3,500,-863,-350,-700,-140,,,,,,,0x03,
5676,-3,501,-864,-210,-700,-140,,,,,,,0x03,
5686,-3,501,-863,-280,-700,-140,,,,,,,0x03,
5695,-3,502,-863,-210,-700,-140,,,,,,,0x03,
5705,-4,501,-864,-140,-700,-140,,,,,,,0x03,
5715,-3,501,-865,-560,-700,-140,,,,,,,0x03,
5724,-3,500,-864,-980,-700,-210,,,,,,,0x03,
5734,-3,502,-863,-1050,-700,-210,,,,,,,0x03,
5744,-3,501,-862,-840,-700,-140,,,,,,,0x03,
5753,-2,502,-863,-420,-700,-140,,,,,,,0x03,
5763,-3,502,-863,0,-700,-140,,,,,,,0x03,
5773,-3,500,-863,70,-700,-140,,,,,,,0x03,
5782,-4,501,-864,140,-700,-140,,,,,,,0x03,
5792,-3,500,-864,-140,-700,-70,,,,,,,0x03,
5802,-4,502,-864,-490,-700,-70,,,,,,,0x03,
5811,-3,501,-864,-770,-700,-140,,,,,,,0x03,
5821,-3,502,-863,-770,-700,-70,,,,,,,0x03,
5830,-4,502,-864,-980,-770,-140,,,,,,,0x03,
5840,-3,502,-864,-1400,-700,-140,,,,,,,0x03,
5850,-2,502,-864,-1890,-770,-210,,,,,,,0x03,
5859,-3,502,-862,-2100,-770,-140,,,,,,,0x03,
5869,-3,504,-860,-1540,-770,-140,,,,,,,0x03,
5879,-3,503,-860,-280,-700,-70,,,,,,,0x03,
5888,-3,504,-863,840,-700,-70,,,,,,,0x03,
5898,-2,502,-863,1260,-840,-70,,,,,,,0x03,
5908,-3,501,-866,700,-910,-140,,,,,,,0x03,
5917,-3,500,-866,-840,-840,-210,,,,,,,0x03,
5927,-3,501,-864,-2800,-840,-210,,,,,,,0x03,
5936,-4,504,-861,-3500,-770,-210,,,,,,,0x03,
5946,-4,505,-859,-2450,-630,-140,,,,,,,0x03,
5956,-3,505,-859,-420,-560,-70,,,,,,,0x03,
5965,-2,505,-860,1470,-630,0,,,,,,,0x03,
5975,-3,503,-862,2730,-560,0,,,,,,,0x03,
5985,-3,502,-863,3150,-560,0,,,,,,,0x03,
5994,-3,501,-865,2590,-630,0,,,,,,,0x03,
6004,-3,500,-866,1400,-560,0,,,,,,,0x03,
6014,-3,501,-865,280,-630,-70,,,,,,,0x03,
6023,-3,502,-865,-840,-630,0,,,,,,,0x03,
6033,-3,502,-863,-1470,-630,-140,,,,,,,0x03,
6042,-3,502,-862,-1470,-630,-140,,,,,,,0x03,
6052,-4,503,-861,-980,-630,-70,,,,,,,0x03,
6062,-3,503,-862,-420,-560,-70,,,,,,,0x03,
6071,-3,503,-863,350,-560,-140,,,,,,,0x03,
6081,-2,502,-863,700,-630,-140,,,,,,,0x03,
6091,-2,502,-864,420,-700,-140,,,,,,,0x03,
6100,-2,501,-864,-210,-700,-140,,,,,,,0x03,
6110,-3,502,-864,-980,-700,-210,,,,,,,0x03,
6120,-2,501,-863,-1960,-700,-210,,,,,,,0x03,
6129,-3,502,-862,-2310,-700,-210,,,,,,,0x03,
6139,-3,504,-862,-1960,-700,-210,,,,,,,0x03,
6148,-3,503,-861,-1190,-700,-210,,,,,,,0x03,
6158,-4,505,-862,-420,-700,-140,,,,,,,0x03,
6168,-3,504,-862,-70,-770,-210,,,,,,,0x03,
6177,-3,503,-863,-70,-770,-210,,,,,,,0x03,
6187,-3,502,-863,-560,-770,-210,,,,,,,0x03,
6197,-3,503,-861,-980,-700,-140,,,,,,,0x03,
6206,-3,504,-861,-840,-700,-140,,,,,,,0x03,
6216,-3,504,-861,-280,-700,-140,,,,,,,0x03,
6226,-3,504,-861,490,-700,-140,,,,,,,0x03,
6235,-4,503,-862,1120,-700,-140,,,,,,,0x03,
6245,-4,503,-863,1120,-700,-140,,,,,,,0x03,
6254,-2,503,-864,630,-700,-140,,,,,,,0x03,
6264,-3,502,-863,-210,-700,-140,,,,,,,0x03,
6274,-4,503,-862,-560,-700,-70,,,,,,,0x03,
6283,-3,504,-862,-280,-700,-140,,,,,,,0x03,
6293,-4,504,-860,210,-630,-140,,,,,,,0x03,
6303,-4,503,-861,630,-700,-140,,,,,,,0x03,
6312,-3,503,-861,1260,-770,-70,,,,,,,0x03,
6322,-4,502,-864,1400,-700,-70,,,,,,,0x03,
6332,-3,501,-863,840,-700,-140,,,,,,,0x03,
6341,-3,502,-864,70,-700,-140,,,,,,,0x03,
6351,-3,503,-863,-420,-700,-70,,,,,,,0x03,
6360,-4,503,-863,-420,-700,-140,,,,,,,0x03,
6370,-4,503,-862,-210,-630,-140,,,,,,,0x03,
6380,-4,503,-861,420,-630,-70,,,,,,,0x03,
6389,-3,503,-862,1190,-700,-70,,,,,,,0x03,
6399,-4,502,-864,1470,-630,-140,,,,,,,0x03,
6409,-2,502,-864,1120,-700,-140,,,,,,,0x03,
6418,-3,501,-864,490,-770,-210,,,,,,,0x03,
6428,-3,502,-864,-280,-700,-140,,,,,,,0x03,
6438,-3,501,-865,-840,-770,-210,,,,,,,0x03,
6447,-2,502,-862,-1190,-770,-210,,,,,,,0x03,
6457,-3,503,-863,-1190,-770,-140,,,,,,,0x03,
6466,-3,502,-863,-1190,-910,-70,,,,,,,0x03,
6476,-2,502,-864,-1680,-980,-140,,,,,,,0x03,
6486,-3,502,-863,-2310,-980,-210,,,,,,,0x03,
6495,-4,502,-864,-3080,-980,-140,,,,,,,0x03,
6505,-3,504,-863,-3920,-910,-210,,,,,,,0x03,
6515,-5,505,-860,-3990,-770,-140,,,,,,,0x03,
6524,-4,507,-858,-3010,-700,-70,,,,,,,0x03,
6534,-5,507,-858,-1400,-700,-70,,,,,,,0x03,
6544,-4,506,-858,490,-630,0,,,,,,,0x03,
6553,-3,507,-861,2170,-560,0,,,,,,,0x03,
6563,-3,505,-863,2660,-490,0,,,,,,,0x03,
6572,-4,503,-862,2450,-490,-70,,,,,,,0x03,
6582,-3,502,-864,1680,-420,-70,,,,,,,0x03,
6592,-3,502,-864,490,-420,-70,,,,,,,0x03,
6601,-3,503,-864,-1190,-490,-140,,,,,,,0x03,
6611,-3,504,-862,-2380,-490,-140,,,,,,,0x03,
6621,-3,504,-861,-2730,-420,-140,,,,,,,0x03,
6630,-3,505,-861,-2450,-490,-140,,,,,,,0x03,
6640,-2,505,-860,-1750,-490,-210,,,,,,,0x03,
6650,-4,505,-859,-1120,-560,-210,,,,,,,0x03,
6659,-4,505,-861,-350,-490,-140,,,,,,,0x03,
6669,-2,505,-862,0,-490,-140,,,,,,,0x03,
6678,-2,503,-862,-70,-490,-210,,,,,,,0x03,
6688,-3,505,-861,-280,-560,-140,,,,,,,0x03,
6698,-3,504,-862,-630,-560,-140,,,,,,,0x03,
6707,-3,505,-862,-1470,-490,-210,,,,,,,0x03,
6717,-3,505,-862,-2240,-560,-280,,,,,,,0x03,
6727,-4,506,-860,-2590,-490,-210,,,,,,,0x03,
6736,-4,507,-860,-2380,-560,-210,,,,,,,0x03,
6746,-4,507,-859,-1820,-490,-140,,,,,,,0x03,
6756,-4,507,-858,-910,-560,-140,,,,,,,0x03,
6765,-3,506,-858,-280,-560,-140,,,,,,,0x03,
6775,-2,506,-859,210,-630,-70,,,,,,,0x03,
6784,-3,506,-862,280,-770,-140,,,,,,,0x03,
6794,-4,505,-860,-350,-700,-140,,,,,,,0x03,
6804,-4,507,-859,-700,-700,-140,,,,,,,0x03,
6813,-3,508,-859,-280,-630,-140,,,,,,,0x03,
6823,-3,507,-859,560,-560,-70,,,,,,,0x03,
6833,-4,507,-860,1190,-560,-140,,,,,,,0x03,
6842,-2,505,-860,1540,-700,-140,,,,,,,0x03,
6852,-2,505,-862,1400,-700,-140,,,,,,,0x03,
6862,-3,505,-863,490,-700,-140,,,,,,,0x03,
6871,-4,506,-860,-350,-700,-70,,,,,,,0x03,
6881,-4,506,-858,-70,-700,-140,,,,,,,0x03,
6890,-3,506,-861,700,-700,-70,,,,,,,0x03,
6900,-3,506,-861,1120,-700,-70,,,,,,,0x03,
6910,-3,505,-860,1260,-700,-140,,,,,,,0x03,
6919,-4,504,-861,1400,-700,-70,,,,,,,0x03,
6929,-4,504,-862,1260,-700,-70,,,,,,,0x03,
6939,-3,504,-863,560,-770,-140,,,,,,,0x03,
6948,-2,504,-862,-70,-770,-70,,,,,,,0x03,
6958,-2,504,-862,-700,-770,-140,,,,,,,0x03,
6968,-3,505,-862,-1540,-770,-140,,,,,,,0x03,
6977,-3,506,-860,-1960,-700,-210,,,,,,,0x03,
6987,-3,506,-859,-1540,-630,-210,,,,,,,0x03,
6996,-2,507,-859,-350,-630,-210,,,,,,,0x03,
7006,-3,506,-860,840,-630,-140,,,,,,,0x03,
7016,-3,505,-861,1330,-630,-140,,,,,,,0x03,
7025,-3,505,-862,1190,-700,-140,,,,,,,0x03,
7035,-3,503,-863,280,-770,-210,,,,,,,0x03,
7045,-3,505,-863,-1190,-770,-210,,,,,,,0x03,
7054,-2,504,-862,-2310,-700,-210,,,,,,,0x03,
7064,-4,506,-861,-2940,-770,-210,,,,,,,0x03,
7074,-4,508,-858,-2870,-700,-210,,,,,,,0x03,
7083,-3,507,-858,-1680,-700,-140,,,,,,,0x03,
7093,-4,508,-860,-280,-630,-210,,,,,,,0x03,
7103,-3,507,-860,630,-700,-210,,,,,,,0x03,
7112,-4,506,-860,980,-700,-140,,,,,,,0x03,
7122,-3,505,-860,1050,-630,-70,,,,,,,0x03,
7131,-3,505,-862,420,-700,-70,,,,,,,0x03,
7141,-4,505,-861,-700,-700,-140,,,,,,,0x03,
7151,-3,505,-860,-1260,-700,-140,,,,,,,0x03,
7160,-4,506,-859,-1260,-700,-70,,,,,,,0x03,
7170,-3,507,-859,-630,-630,-70,,,,,,,0x03,
7180,-3,508,-857,560,-630,0,,,,,,,0x03,
7189,-3,506,-858,1890,-630,0,,,,,,,0x03,
7199,-2,506,-860,2730,-700,70,,,,,,,0x03,
7209,-3,504,-862,2660,-770,0,,,,,,,0x03,
7218,-3,504,-863,1820,-770,-70,,,,,,,0x03,
7228,-3,504,-864,350,-770,-70,,,,,,,0x03,
7237,-4,504,-861,-980,-770,-210,,,,,,,0x03,
7247,-4,506,-860,-1260,-770,-210,,,,,,,0x03,
7257,-3,507,-860,-560,-770,-140,,,,,,,0x03,
7266,-4,506,-859,700,-700,-140,,,,,,,0x03,
7276,-3,506,-859,1890,-700,-140,,,,,,,0x03,
7286,-2,504,-862,2520,-700,-140,,,,,,,0x03,
7295,-4,502,-863,2100,-630,-140,,,,,,,0x03,
7305,-3,503,-865,1470,-630,-70,,,,,,,0x03,
7315,-2,503,-864,630,-560,-70,,,,,,,0x03,
7324,-4,504,-861,0,-560,-70,,,,,,,0x03,
7334,-4,504,-862,-210,-560,0,,,,,,,0x03,
7343,-4,504,-862,-280,-560,0,,,,,,,0x03,
7353,-3,504,-861,-350,-560,-70,,,,,,,0x03,
7363,-2,504,-862,-280,-630,-70,,,,,,,0x03,
7372,-4,504,-861,-350,-560,-140,,,,,,,0x03,
7382,-3,504,-861,-420,-560,-140,,,,,,,0x03,
7392,-3,503,-863,-560,-630,-70,,,,,,,0x03,
7401,-4,504,-863,-840,-630,-140,,,,,,,0x03,
7411,-4,505,-861,-1190,-560,-140,,,,,,,0x03,
7421,-3,505,-861,-1120,-630,-140,,,,,,,0x03,
7430,-2,505,-860,-700,-630,-140,,,,,,,0x03,
7440,-2,505,-861,-210,-630,-140,,,,,,,0x03,
7449,-4,504,-861,0,-630,-140,,,,,,,0x03,
7459,-3,505,-862,210,-630,-140,,,,,,,0x03,
7469,-3,505,-863,70,-630,-140,,,,,,,0x03,
7478,-3,503,-862,-350,-700,-140,,,,,,,0x03,
7488,-2,504,-861,-490,-630,-140,,,,,,,0x03,
7498,-3,505,-861,-350,-630,-140,,,,,,,0x03,
7507,-3,504,-862,-350,-700,-210,,,,,,,0x03,
7517,-4,505,-861,-70,-630,-210,,,,,,,0x03,
7527,-2,506,-860,420,-700,-140,,,,,,,0x03,
7536,-2,504,-861,980,-700,-210,,,,,,,0x03,
7546,-3,505,-861,1120,-700,-210,,,,,,,0x03,
7555,-3,503,-862,1260,-700,-210,,,,,,,0x03,
7565,-4,505,-861,1330,-700,-210,,,,,,,0x03,
7575,-3,503,-862,1820,-700,-140,,,,,,,0x03,
7584,-3,502,-861,1750,-700,-140,,,,,,,0x03,
7594,-4,503,-862,1540,-770,-140,,,,,,,0x03,
7604,-2,503,-862,1400,-700,-140,,,,,,,0x03,
7613,-3,502,-864,1050,-700,-140,,,,,,,0x03,
7623,-2,501,-864,350,-700,-140,,,,,,,0x03,
7633,-5,503,-862,-70,-700,-140,,,,,,,0x03,
7642,-5,503,-862,140,-700,-210,,,,,,,0x03,
7652,-4,503,-862,420,-700,-70,,,,,,,0x03,
7661,-3,503,-863,630,-700,-140,,,,,,,0x03,
7671,-3,503,-864,560,-700,-70,,,,,,,0x03,
7681,-3,501,-865,140,-630,-140,,,,,,,0x03,
7690,-3,500,-864,-630,-630,-210,,,,,,,0x03,
7700,-2,501,-864,-1330,-630,-210,,,,,,,0x03,
7710,-3,502,-863,-2030,-630,-210,,,,,,,0x03,
7719,-3,503,-862,-2660,-630,-210,,,,,,,0x03,
7729,-3,504,-862,-2800,-630,-210,,,,,,,0x03,
7739,-2,504,-862,-2520,-630,-210,,,,,,,0x03,
7748,-2,504,-861,-2100,-630,-210,,,,,,,0x03,
7758,-4,504,-860,-1540,-630,-140,,,,,,,0x03,
7767,-3,504,-862,-980,-630,-140,,,,,,,0x03,
7777,-3,504,-862,-630,-630,-70,,,,,,,0x03,
7787,-3,503,-862,-560,-630,-70,,,,,,,0x03,
7796,-3,504,-862,-910,-560,-140,,,,,,,0x03,
7806,-3,506,-861,-1190,-560,-140,,,,,,,0x03,
7816,-3,505,-861,-1190,-630,-140,,,,,,,0x03,
7825,-3,506,-861,-1050,-560,-140,,,,,,,0x03,
7835,-4,506,-861,-630,-560,-70,,,,,,,0x03,
7845,-3,505,-862,-350,-630,-70,,,,,,,0x03,
7854,-2,505,-862,-560,-700,-140,,,,,,,0x03,
7864,-4,505,-861,-700,-630,-140,,,,,,,0x03,
7873,-3,505,-861,-840,-630,-210,,,,,,,0x03,
7883,-3,505,-861,-1330,-700,-210,,,,,,,0x03,
7893,-4,506,-860,-1750,-630,-280,,,,,,,0x03,
7902,-3,506,-862,-2030,-630,-350,,,,,,,0x03,
7912,-2,505,-861,-2240,-630,-420,,,,,,,0x03,
7922,-4,506,-861,-2590,-490,-420,,,,,,,0x03,
7931,-2,506,-861,-3010,-420,-420,,,,,,,0x03,
7941,-3,506,-859,-3220,-420,-420,,,,,,,0x03,
7951,-3,508,-859,-3290,-420,-420,,,,,,,0x03,
7960,-4,509,-858,-3220,-490,-420,,,,,,,0x03,
7970,-3,509,-859,-3010,-560,-420,,,,,,,0x03,
7979,-3,509,-858,-3010,-560,-420,,,,,,,0x03,
7989,-4,510,-857,-2800,-560,-350,,,,,,,0x03,
7999,-3,510,-856,-2310,-560,-280,,,,,,,0x03,
8008,-4,510,-856,-1680,-560,-210,,,,,,,0x03,
8018,-4,511,-857,-1120,-560,-210,,,,,,,0x03,
8028,-2,510,-858,-910,-630,-140,,,,,,,0x03,
8037,-3,510,-858,-1120,-700,-210,,,,,,,0x03,
8047,-4,511,-860,-1330,-700,-140,,,,,,,0x03,
8057,-2,511,-858,-1540,-700,-140,,,,,,,0x03,
8066,-3,512,-856,-1470,-630,-140,,,,,,,0x03,
8076,-2,513,-854,-910,-560,-140,,,,,,,0x03,
8085,-3,511,-857,-70,-630,-70,,,,,,,0x03,
8095,-3,511,-857,490,-630,0,,,,,,,0x03,
8105,-3,510,-857,840,-630,-70,,,,,,,0x03,
8114,-2,510,-858,700,-700,-70,,,,,,,0x03,
8124,-3,511,-857,350,-700,-140,,,,,,,0x03,
8134,-3,511,-857,280,-630,-70,,,,,,,0x03,
8143,-2,511,-857,280,-700,-140,,,,,,,0x03,
8153,-4,510,-857,140,-700,-140,,,,,,,0x03,
8163,-4,510,-857,70,-700,-140,,,,,,,0x03,
8172,-4,511,-857,140,-700,-140,,,,,,,0x03,
8182,-4,511,-859,140,-700,-140,,,,,,,0x03,
8191,-4,510,-856,140,-700,-140,,,,,,,0x03,
8201,-4,512,-856,490,-700,-70,,,,,,,0x03,
8211,-3,511,-857,1120,-700,-140,,,,,,,0x03,
8220,-3,510,-859,1190,-700,-140,,,,,,,0x03,
8230,-3,510,-859,1050,-700,-140,,,,,,,0x03,
8240,-3,510,-859,700,-700,-210,,,,,,,0x03,
8249,-4,510,-859,140,-630,-210,,,,,,,0x03,
8259,-3,510,-858,-140,-700,-140,,,,,,,0x03,
8269,-3,511,-860,-280,-700,-140,,,,,,,0x03,
8278,-4,510,-859,-560,-700,-140,,,,,,,0x03,
8288,-3,509,-859,-980,-700,-210,,,,,,,0x03,
8297,-4,510,-857,-910,-630,-210,,,,,,,0x03,
8307,-3,510,-856,-490,-630,-140,,,,,,,0x03,
8317,-4,510,-858,70,-630,-140,,,,,,,0x03,
8326,-3,510,-857,0,-630,-140,,,,,,,0x03,
8336,-2,509,-859,-140,-700,-140,,,,,,,0x03,
8346,-3,511,-858,-630,-630,-210,,,,,,,0x03,
8355,-4,510,-858,-980,-630,-210,,,,,,,0x03,
8365,-3,510,-859,-980,-700,-210,,,,,,,0x03,
8375,-4,511,-857,-980,-630,-210,,,,,,,0x03,
8384,-4,511,-856,-420,-630,-140,,,,,,,0x03,
8394,-3,511,-856,140,-630,-140,,,,,,,0x03,
8404,-3,511,-856,560,-700,-70,,,,,,,0x03,
8413,-3,510,-857,1050,-630,-70,,,,,,,0x03,
8423,-3,510,-858,1470,-630,-70,,,,,,,0x03,
8432,-3,509,-859,1610,-700,-140,,,,,,,0x03,
8442,-4,509,-860,1400,-630,-140,,,,,,,0x03,
8452,-2,507,-859,700,-700,-140,,,,,,,0x03,
8461,-3,508,-859,140,-630,-210,,,,,,,0x03,
8471,-3,508,-858,0,-630,-140,,,,,,,0x03,
8481,-2,509,-858,-140,-630,-140,,,,,,,0x03,
8490,-3,509,-859,-420,-560,-140,,,,,,,0x03,
8500,-3,510,-858,-280,-560,-140,,,,,,,0x03,
8510,-3,511,-857,280,-490,-140,,,,,,,0x03,
8519,-4,510,-858,980,-420,-70,,,,,,,0x03,
8529,-3,509,-858,1330,-420,-70,,,,,,,0x03,
8538,-4,508,-858,1190,-420,-70,,,,,,,0x03,
8548,-2,508,-860,770,-350,-140,,,,,,,0x03,
8558,-4,508,-860,-70,-350,-70,,,,,,,0x03,
8567,-3,509,-859,-630,-490,-70,,,,,,,0x03,
8577,-3,508,-859,-770,-490,0,,,,,,,0x03,
8587,-3,509,-860,-770,-560,-70,,,,,,,0x03,
8596,-3,509,-859,-910,-560,-70,,,,,,,0x03,
8606,-2,510,-858,-770,-490,-140,,,,,,,0x03,
8616,-3,509,-858,-280,-490,-140,,,,,,,0x03,
8625,-3,509,-859,70,-490,-140,,,,,,,0x03,
8635,-3,509,-860,70,-490,-140,,,,,,,0x03,
8644,-3,508,-858,-210,-490,-140,,,,,,,0x03,
8654,-3,509,-860,-490,-490,-140,,,,,,,0x03,
8664,-3,508,-860,-1120,-490,-140,,,,,,,0x03,
8673,-3,509,-860,-1890,-490,-210,,,,,,,0x03,
8683,-3,509,-859,-2450,-490,-280,,,,,,,0x03,
8693,-3,511,-856,-2450,-350,-280,,,,,,,0x03,
8702,-2,511,-855,-1820,-350,-210,,,,,,,0x03,
8712,-3,511,-857,-1120,-350,-210,,,,,,,0x03,
8722,-3,512,-856,-420,-420,-140,,,,,,,0x03,
8731,-2,510,-856,280,-490,-140,,,,,,,0x03,
8741,-2,510,-857,840,-560,-70,,,,,,,0x03,
8750,-2,510,-859,630,-630,-70,,,,,,,0x03,
8760,-3,511,-858,-140,-630,-140,,,,,,,0x03,
8770,-3,511,-858,-560,-700,-140,,,,,,,0x03,
8779,-2,510,-858,-630,-700,-140,,,,,,,0x03,
8789,-2,510,-857,-700,-700,-210,,,,,,,0x03,
8799,-2,511,-857,-560,-700,-210,,,,,,,0x03,
8808,-1,512,-857,-140,-700,-140,,,,,,,0x03,
8818,-2,511,-857,420,-700,-140,,,,,,,0x03,
8828,-3,510,-857,630,-770,-140,,,,,,,0x03,
8837,-3,510,-857,630,-700,-140,,,,,,,0x03,
8847,-3,510,-858,350,-700,-140,,,,,,,0x03,
8856,-2,510,-857,280,-700,-140,,,,,,,0x03,
8866,-3,510,-858,280,-700,-140,,,,,,,0x03,
8876,-3,510,-857,420,-700,-70,,,,,,,0x03,
8885,-3,510,-859,630,-700,-140,,,,,,,0x03,
8895,-3,510,-858,630,-770,-140,,,,,,,0x03,
8905,-3,510,-858,700,-700,-140,,,,,,,0x03,
8914,-2,509,-858,630,-770,-140,,,,,,,0x03,
8924,-2,509,-860,210,-770,-140,,,,,,,0x03,
8934,-2,509,-859,-70,-700,-140,,,,,,,0x03,
8943,-2,509,-859,0,-700,-140,,,,,,,0x03,
8953,-3,508,-859,-140,-700,-140,,,,,,,0x03,
8962,-2,509,-858,-490,-770,-210,,,,,,,0x03,
8972,-3,510,-857,-280,-700,-210,,,,,,,0x03,
8982,-3,509,-858,0,-700,-210,,,,,,,0x03,
8991,-3,510,-857,-70,-700,-210,,,,,,,0x03,
9001,-4,510,-858,70,-700,-210,,,,,,,0x03,
9011,-4,510,-857,350,-700,-140,,,,,,,0x03,
9020,-2,510,-859,630,-700,-140,,,,,,,0x03,
9030,-3,509,-859,420,-700,-140,,,,,,,0x03,
9040,-3,509,-860,70,-700,-70,,,,,,,0x03,
9049,-3,509,-859,-350,-700,-140,,,,,,,0x03,
9059,-3,510,-858,-560,-700,-140,,,,,,,0x03,
9068,-3,509,-859,-840,-700,-140,,,,,,,0x03,
9078,-3,509,-859,-1120,-700,-210,,,,,,,0x03,
9088,-2,509,-858,-980,-700,-140,,,,,,,0x03,
9097,-3,510,-858,-770,-700,-140,,,,,,,0x03,
9107,-2,510,-858,-770,-700,-140,,,,,,,0x03,
9117,-2,510,-858,-700,-630,-140,,,,,,,0x03,
9126,-3,509,-858,-700,-630,-140,,,,,,,0x03,
9136,-2,510,-858,-770,-630,-140,,,,,,,0x03,
9146,-2,510,-858,-770,-700,-210,,,,,,,0x03,
9155,-3,510,-858,-700,-700,-210,,,,,,,0x03,
9165,-3,510,-859,-980,-700,-140,,,,,,,0x03,
9174,-3,510,-858,-1330,-770,-210,,,,,,,0x03,
9184,-2,510,-858,-1470,-700,-140,,,,,,,0x03,
9194,-2,511,-857,-1330,-630,-140,,,,,,,0x03,
9203,-3,511,-856,-980,-630,-210,,,,,,,0x03,
9213,-3,511,-856,-420,-630,-140,,,,,,,0x03,
9223,-3,512,-857,140,-630,-70,,,,,,,0x03,
9232,-3,511,-858,420,-630,-70,,,,,,,0x03,
9242,-3,510,-858,280,-630,-70,,,,,,,0x03,
9252,-3,510,-857,0,-560,-140,,,,,,,0x03,
9261,-3,510,-857,-280,-560,-140,,,,,,,0x03,
9271,-2,511,-857,-420,-560,-140,,,,,,,0x03,
9280,-2,511,-857,-420,-630,-140,,,,,,,0x03,
9290,-3,511,-857,-350,-630,-140,,,,,,,0x03,
9300,-2,511,-856,-70,-560,-140,,,,,,,0x03,
9309,-3,512,-858,280,-630,-70,,,,,,,0x03,
9319,-3,510,-858,350,-700,-140,,,,,,,0x03,
9329,-2,510,-858,210,-700,-140,,,,,,,0x03,
9338,-1,511,-858,0,-700,-140,,,,,,,0x03,
9348,-3,511,-857,-70,-770,-210,,,,,,,0x03,
9358,-2,512,-857,280,-700,-280,,,,,,,0x03,
9367,-2,511,-857,840,-700,-140,,,,,,,0x03,
9377,-2,511,-857,1330,-700,-140,,,,,,,0x03,
9386,-3,512,-857,1400,-700,-140,,,,,,,0x03,
9396,-3,510,-857,1680,-770,-140,,,,,,,0x03,
9406,-3,510,-858,1680,-700,-140,,,,,,,0x03,
9415,-2,509,-858,1470,-700,-140,,,,,,,0x03,
9425,-2,509,-859,1120,-700,-140,,,,,,,0x03,
9435,-3,508,-859,840,-700,-140,,,,,,,0x03,
9444,-2,509,-858,630,-700,-140,,,,,,,0x03,
9454,-2,510,-859,630,-700,-140,,,,,,,0x03,
9464,-3,509,-858,560,-700,-210,,,,,,,0x03,
9473,-4,509,-859,490,-700,-210,,,,,,,0x03,
9483,-3,508,-861,350,-700,-210,,,,,,,0x03,
9492,-3,509,-859,-210,-700,-140,,,,,,,0x03,
9502,-2,509,-859,-420,-700,-210,,,,,,,0x03,
9512,-3,509,-858,-560,-770,-140,,,,,,,0x03,
9521,-3,509,-860,-770,-770,-210,,,,,,,0x03,
9531,-2,508,-859,-1330,-840,-280,,,,,,,0x03,
9541,-2,509,-860,-1750,-840,-280,,,,,,,0x03,
9550,-2,509,-860,-2590,-770,-280,,,,,,,0x03,
9560,-2,509,-859,-3710,-700,-420,,,,,,,0x03,
9570,-2,511,-857,-4480,-560,-560,,,,,,,0x03,
9579,-3,511,-858,-4830,-560,-560,,,,,,,0x03,
9589,-4,512,-856,-4900,-560,-490,,,,,,,0x03,
9598,-4,513,-856,-4480,-630,-420,,,,,,,0x03,
9608,-3,514,-855,-3920,-630,-350,,,,,,,0x03,
9618,-3,514,-856,-3640,-560,-350,,,,,,,0x03,
9627,-3,514,-855,-3360,-630,-350,,,,,,,0x03,
9637,-4,513,-853,-3010,-630,-350,,,,,,,0x03,
9647,-3,515,-855,-2870,-560,-350,,,,,,,0x03,
9656,-3,515,-854,-2800,-560,-350,,,,,,,0x03,
9666,-3,516,-854,-2590,-630,-350,,,,,,,0x03,
9676,-3,516,-853,-2380,-560,-350,,,,,,,0x03,
9685,-2,516,-854,-2170,-490,-350,,,,,,,0x03,
9695,-3,516,-853,-2030,-560,-350,,,,,,,0x03,
9705,-3,517,-853,-1960,-560,-280,,,,,,,0x03,
9714,-3,518,-852,-1820,-630,-280,,,,,,,0x03,
9724,-2,517,-852,-1750,-630,-280,,,,,,,0x03,
9733,-3,518,-851,-1540,-630,-280,,,,,,,0x03,
9743,-2,519,-852,-910,-630,-280,,,,,,,0x03,
9753,-3,518,-853,-420,-630,-280,,,,,,,0x03,
9762,-4,518,-854,-560,-630,-280,,,,,,,0x03,
9772,-4,517,-852,-700,-700,-280,,,,,,,0x03,
9782,-2,519,-852,-490,-700,-210,,,,,,,0x03,
9791,-4,518,-852,-350,-700,-210,,,,,,,0x03,
9801,-3,519,-852,-140,-630,-280,,,,,,,0x03,
9811,-4,518,-852,350,-630,-280,,,,,,,0x03,
9820,-3,518,-853,560,-630,-210,,,,,,,0x03,
9830,-4,517,-852,420,-630,-280,,,,,,,0x03,
9839,-3,516,-855,420,-630,-210,,,,,,,0x03,
9849,-3,517,-855,-70,-630,-280,,,,,,,0x03,
9859,-4,517,-853,-420,-560,-280,,,,,,,0x03,
9868,-4,517,-854,-420,-560,-210,,,,,,,0x03,
9878,-4,518,-853,-210,-560,-210,,,,,,,0x03,
9888,-4,518,-853,-70,-560,-210,,,,,,,0x03,
9897,-3,517,-852,-70,-630,-140,,,,,,,0x03,
9907,-3,519,-852,280,-560,-140,,,,,,,0x03,
9917,-4,517,-852,560,-490,-140,,,,,,,0x03,
9926,-4,519,-852,1260,-490,-70,,,,,,,0x03,
9936,-3,518,-852,2100,-560,0,,,,,,,0x03,
9945,-5,517,-852,2520,-560,-70,,,,,,,0x03,
9955,-3,516,-854,2660,-560,0,,,,,,,0x03,
9965,-3,515,-857,2450,-630,-70,,,,,,,0x03,
9974,-3,515,-857,1400,-630,-140,,,,,,,0x03,
9984,-3,515,-854,420,-630,-140,,,,,,,0x03,
9994,-2,515,-853,350,-630,-140,,,,,,,0x03,
10003,-4,515,-855,700,-560,-210,,,,,,,0x03,
10013,-3,517,-853,1120,-560,-140,,,,,,,0x03,
10023,-3,517,-854,1960,-560,-140,,,,,,,0x03,
10032,-3,515,-855,2800,-560,-70,,,,,,,0x03,
10042,-3,515,-855,2730,-560,-140,,,,,,,0x03,
10051,-3,513,-856,2380,-560,-140,,,,,,,0x03,
10061,-3,512,-856,2030,-630,-140,,,,,,,0x03,
10071,-2,512,-858,1400,-560,-210,,,,,,,0x03,
10080,-2,512,-858,280,-630,-140,,,,,,,0x03,
10090,-3,513,-856,-490,-700,-140,,,,,,,0x03,
10100,-3,512,-854,-490,-630,-140,,,,,,,0x03,
10109,-3,514,-854,0,-630,-140,,,,,,,0x03,
10119,-4,514,-855,700,-630,-70,,,,,,,0x03,
10129,-2,513,-855,1400,-630,-70,,,,,,,0x03,
10138,-3,513,-856,1820,-700,-140,,,,,,,0x03,
10148,-3,512,-857,1680,-700,-140,,,,,,,0x03,
10157,-2,512,-858,1120,-700,-70,,,,,,,0x03,
10167,-2,511,-858,490,-700,-140,,,,,,,0x03,
10177,-3,511,-856,70,-700,-140,,,,,,,0x03,
10186,-4,512,-857,-350,-700,-140,,,,,,,0x03,
10196,-2,512,-857,-700,-700,-140,,,,,,,0x03,
10206,-2,511,-857,-1050,-700,-140,,,,,,,0x03,
10215,-3,512,-856,-1050,-700,-140,,,,,,,0x03,
10225,-3,512,-856,-980,-630,-140,,,,,,,0x03,
10235,-3,512,-857,-1050,-630,-140,,,,,,,0x03,
10244,-3,513,-857,-1120,-630,-210,,,,,,,0x03,
10254,-3,512,-857,-1470,-700,-140,,,,,,,0x03,
10263,-3,512,-857,-2030,-700,-140,,,,,,,0x03,
10273,-3,512,-856,-2520,-700,-140,,,,,,,0x03,
10283,-3,513,-856,-2730,-630,-210,,,,,,,0x03,
10292,-3,515,-856,-2800,-700,-210,,,,,,,0x03,
10302,-3,514,-855,-2450,-700,-210,,,,,,,0x03,
10312,-2,515,-854,-2170,-700,-210,,,,,,,0x03,
10321,-3,515,-854,-2170,-700,-280,,,,,,,0x03,
10331,-3,515,-855,-2450,-630,-280,,,,,,,0x03,
10341,-2,516,-854,-3010,-630,-280,,,,,,,0x03,
10350,-3,517,-852,-3010,-560,-280,,,,,,,0x03,
10360,-3,518,-851,-2030,-560,-280,,,,,,,0x03,
10369,-3,519,-851,-420,-490,-210,,,,,,,0x03,
10379,-3,517,-850,1260,-490,-210,,,,,,,0x03,
10389,-3,517,-852,2870,-560,-140,,,,,,,0x03,
10398,-3,515,-855,3430,-560,-140,,,,,,,0x03,
10408,-3,514,-856,2870,-560,-140,,,,,,,0x03,
10418,-2,513,-856,2030,-630,-140,,,,,,,0x03,
10427,-3,514,-855,1400,-630,-70,,,,,,,0x03,
10437,-3,515,-854,1260,-630,-140,,,,,,,0x03,
10447,-3,514,-854,1470,-630,-140,,,,,,,0x03,
10456,-2,514,-853,2030,-630,-140,,,,,,,0x03,
10466,-2,515,-855,2800,-630,-70,,,,,,,0x03,
10475,-2,514,-855,3430,-630,-70,,,,,,,0x03,
10485,-4,513,-855,3710,-700,0,,,,,,,0x03,
10495,-3,512,-856,3920,-700,0,,,,,,,0x03,
10504,-3,512,-858,3850,-700,0,,,,,,,0x03,
10514,-3,511,-858,3290,-630,-70,,,,,,,0x03,
10524,-2,509,-857,2940,-630,-70,,,,,,,0x03,
10533,-2,512,-862,3290,-560,0,,,,,,,0x03,
10543,-3,506,-857,2520,-700,-70,,,,,,,0x03,
10553,-1,512,-860,1750,-490,-140,,,,,,,0x03,
10562,-4,506,-858,1820,-630,-140,,,,,,,0x03,
10572,-2,509,-860,910,-630,-140,,,,,,,0x03,
10581,-3,506,-859,70,-560,-210,,,,,,,0x03,
10591,-2,509,-859,0,-490,-140,,,,,,,0x03,
10601,-3,507,-860,210,-560,-140,,,,,,,0x03,
10610,-2,510,-857,-280,-630,-140,,,,,,,0x03,
10620,-3,508,-858,210,-560,-210,,,,,,,0x03,
10630,-2,509,-859,630,-560,-210,,,,,,,0x03,
10639,-3,506,-859,630,-630,-140,,,,,,,0x03,
10649,-2,508,-860,-70,-630,-140,,,,,,,0x03,
10659,-2,508,-861,-420,-700,-140,,,,,,,0x03,
10668,-2,507,-860,-980,-700,-210,,,,,,,0x03,
10678,-3,509,-859,-1540,-700,-140,,,,,,,0x03,
10687,-3,508,-857,-1470,-630,-140,,,,,,,0x03,
10697,-3,510,-858,-1120,-630,-140,,,,,,,0x03,
10707,-4,509,-858,-770,-630,-140,,,,,,,0x03,
10716,-3,508,-857,-350,-630,-70,,,,,,,0x03,
10726,-3,509,-858,140,-630,-70,,,,,,,0x03,
10736,-3,509,-859,0,-630,-70,,,,,,,0x03,
10745,-3,510,-858,-70,-630,-70,,,,,,,0x03,
10755,-3,509,-859,-280,-700,-70,,,,,,,0x03,
10765,-3,509,-860,-840,-700,-140,,,,,,,0x03,
10774,-3,509,-859,-1540,-700,-210,,,,,,,0x03,
10784,-2,509,-859,-2030,-700,-210,,,,,,,0x03,
10793,-3,510,-859,-2520,-700,-280,,,,,,,0x03,
10803,-3,510,-859,-3150,-700,-280,,,,,,,0x03,
10813,-3,511,-858,-3780,-700,-280,,,,,,,0x03,
10822,-4,510,-857,-4200,-700,-280,,,,,,,0x03,
10832,-3,512,-857,-4200,-700,-280,,,,,,,0x03,
10842,-3,513,-857,-4130,-700,-280,,,,,,,0x03,
10851,-3,513,-856,-4340,-700,-280,,,,,,,0x03,
10861,-2,514,-857,-4620,-700,-280,,,,,,,0x03,
10871,-3,515,-856,-5110,-770,-350,,,,,,,0x03,
10880,-1,515,-855,-5390,-770,-420,,,,,,,0x03,
10890,-3,516,-855,-5670,-700,-490,,,,,,,0x03,
10899,-3,518,-853,-5670,-700,-560,,,,,,,0x03,
10909,-4,519,-850,-4970,-630,-560,,,,,,,0x03,
10919,-3,520,-850,-3780,-560,-420,,,,,,,0x03,
10928,-3,520,-851,-2660,-630,-280,,,,,,,0x03,
10938,-3,520,-851,-1890,-630,-210,,,,,,,0x03,
10948,-4,520,-852,-1610,-630,-280,,,,,,,0x03,
10957,-3,519,-852,-1890,-560,-350,,,,,,,0x03,
10967,-3,519,-853,-2240,-490,-420,,,,,,,0x03,
10977,-2,519,-852,-2590,-490,-420,,,,,,,0x03,
10986,-3,521,-849,-2590,-490,-420,,,,,,,0x03,
10996,-4,522,-848,-1680,-420,-350,,,,,,,0x03,
11006,-5,522,-847,-210,-420,-210,,,,,,,0x03,
11015,-4,522,-848,1260,-490,-70,,,,,,,0x03,
11025,-4,520,-851,2310,-490,0,,,,,,,0x03,
11034,-4,519,-853,2520,-560,70,,,,,,,0x03,
11044,-3,518,-854,1750,-490,140,,,,,,,0x03,
11054,-3,518,-854,770,-490,70,,,,,,,0x03,
11063,-2,519,-853,0,-490,70,,,,,,,0x03,
11073,-3,520,-851,-560,-490,0,,,,,,,0x03,
11083,-3,520,-853,-770,-490,0,,,,,,,0x03,
11092,-1,520,-851,-700,-490,0,,,,,,,0x03,
11102,-2,521,-850,-140,-490,0,,,,,,,0x03,
11112,-2,520,-851,420,-490,-70,,,,,,,0x03,
11121,-3,520,-852,1050,-490,-70,,,,,,,0x03,
11131,-4,520,-852,1260,-490,-70,,,,,,,0x03,
11140,-3,519,-851,1610,-490,-70,,,,,,,0x03,
11150,-4,518,-852,1960,-560,0,,,,,,,0x03,
11160,-3,518,-852,2100,-560,0,,,,,,,0x03,
11169,-3,518,-851,2240,-560,0,,,,,,,0x03,
11179,-4,519,-850,3010,-560,70,,,,,,,0x03,
11189,-3,516,-852,4200,-490,140,,,,,,,0x03,
11198,-2,516,-853,4830,-490,140,,,,,,,0x03,
11208,-3,515,-854,5180,-560,140,,,,,,,0x03,
11218,-3,515,-853,5670,-560,210,,,,,,,0x03,
11227,-2,514,-856,6020,-490,280,,,,,,,0x03,
11237,-3,512,-856,5810,-560,280,,,,,,,0x03,
11246,-3,513,-855,5600,-630,350,,,,,,,0x03,
11256,-3,511,-857,5670,-630,350,,,,,,,0x03,
11266,-1,510,-858,5600,-630,280,,,,,,,0x03,
11275,-1,510,-858,5460,-630,210,,,,,,,0x03,
11285,-2,509,-861,5040,-630,140,,,,,,,0x03,
11295,-2,509,-860,4480,-630,0,,,,,,,0x03,
11304,-1,508,-860,4340,-560,0,,,,,,,0x03,
11314,-1,507,-861,4270,-630,0,,,,,,,0x03,
11324,-2,506,-861,3850,-630,0,,,,,,,0x03,
11333,-2,505,-862,3150,-700,0,,,,,,,0x03,
11343,-1,504,-863,2240,-700,0,,,,,,,0x03,
11352,-1,504,-863,1260,-700,0,,,,,,,0x03,
11362,-1,505,-862,420,-630,0,,,,,,,0x03,
11372,-2,506,-862,0,-560,-70,,,,,,,0x03,
11381,-1,507,-861,-140,-630,0,,,,,,,0x03,
11391,-1,505,-862,-70,-700,-70,,,,,,,0x03,
11401,-1,505,-861,-350,-700,-70,,,,,,,0x03,
11410,-1,505,-862,-630,-770,-140,,,,,,,0x03,
11420,-1,504,-862,-980,-770,-210,,,,,,,0x03,
11430,-2,504,-862,-1610,-840,-280,,,,,,,0x03,
11439,-3,506,-860,-2100,-840,-280,,,,,,,0x03,
11449,-1,505,-861,-2240,-770,-280,,,,,,,0x03,
11458,-1,506,-862,-2380,-770,-280,,,,,,,0x03,
11468,-3,507,-860,-2660,-840,-280,,,,,,,0x03,
11478,0,507,-860,-2940,-770,-280,,,,,,,0x03,
11487,-2,507,-860,-3430,-770,-280,,,,,,,0x03,
11497,-3,508,-859,-3710,-770,-280,,,,,,,0x03,
11507,-2,509,-858,-3780,-770,-280,,,,,,,0x03,
11516,-2,509,-858,-3780,-770,-350,,,,,,,0x03,
11526,-3,510,-858,-3290,-770,-350,,,,,,,0x03,
11536,-2,510,-857,-2660,-770,-210,,,,,,,0x03,
11545,-3,511,-858,-2310,-840,-210,,,,,,,0x03,
11555,-2,510,-859,-2520,-840,-210,,,,,,,0x03,
11564,-3,512,-857,-3010,-840,-280,,,,,,,0x03,
11574,-3,512,-856,-3010,-840,-210,,,,,,,0x03,
11584,-3,514,-855,-2450,-770,-210,,,,,,,0x03,
11593,-2,513,-855,-1400,-770,-140,,,,,,,0x03,
11603,-3,513,-855,-420,-770,-140,,,,,,,0x03,
11613,-2,512,-857,0,-770,-140,,,,,,,0x03,
11622,-2,512,-857,-70,-770,-140,,,,,,,0x03,
11632,-3,511,-857,-350,-700,-140,,,,,,,0x03,
11642,-3,512,-857,-700,-700,-140,,,,,,,0x03,
11651,-2,511,-857,-840,-630,-70,,,,,,,0x03,
11661,-2,512,-857,-1190,-700,-140,,,,,,,0x03,
11670,-3,512,-856,-1120,-700,-140,,,,,,,0x03,
11680,-2,513,-856,-910,-700,-140,,,,,,,0x03,
11690,-2,513,-856,-630,-700,-140,,,,,,,0x03,
11699,-2,513,-856,-280,-700,-140,,,,,,,0x03,
11709,-2,512,-856,-210,-700,-140,,,,,,,0x03,
11719,-2,513,-857,-560,-700,-210,,,,,,,0x03,
11728,-3,513,-856,-770,-700,-210,,,,,,,0x03,
11738,-2,513,-855,-700,-700,-210,,,,,,,0x03,
11748,-2,513,-857,-910,-770,-210,,,,,,,0x03,
11757,-3,513,-857,-1400,-700,-210,,,,,,,0x03,
11767,-2,514,-856,-1610,-700,-280,,,,,,,0x03,
11776,-2,515,-856,-1540,-700,-280,,,,,,,0x03,
11786,-2,513,-856,-1680,-700,-280,,,,,,,0x03,
11796,-3,514,-856,-1960,-630,-280,,,,,,,0x03,
11805,-3,515,-855,-1960,-630,-210,,,,,,,0x03,
11815,-3,516,-853,-1470,-560,-70,,,,,,,0x03,
11825,-2,516,-853,-770,-560,-70,,,,,,,0x03,
11834,-2,516,-855,70,-560,-70,,,,,,,0x03,
11844,-3,515,-856,350,-560,-70,,,,,,,0x03,
11854,-2,514,-854,350,-560,0,,,,,,,0x03,
11863,-3,515,-855,490,-630,0,,,,,,,0x03,
11873,-3,514,-855,420,-630,-70,,,,,,,0x03,
11882,-3,514,-855,350,-700,0,,,,,,,0x03,
11892,-3,514,-856,490,-770,0,,,,,,,0x03,
11902,-2,514,-856,280,-770,0,,,,,,,0x03,
11911,-4,513,-855,-70,-770,-70,,,,,,,0x03,
11921,-3,515,-853,-210,-770,-70,,,,,,,0x03,
11931,-3,513,-856,-210,-770,-70,,,,,,,0x03,
11940,-2,515,-855,-560,-630,-70,,,,,,,0x03,
11950,-4,515,-855,-630,-700,-140,,,,,,,0x03,
11960,-2,515,-854,-420,-700,-140,,,,,,,0x03,
11969,-2,514,-856,-280,-700,-210,,,,,,,0x03,
11979,-2,515,-856,-420,-700,-210,,,,,,,0x03,
11988,-3,514,-856,-630,-700,-280,,,,,,,0x03,
11998,-3,515,-855,-840,-770,-280,,,,,,,0x03,
12008,-2,515,-855,-770,-770,-280,,,,,,,0x03,
12017,-3,515,-854,-700,-770,-280,,,,,,,0x03,
12027,-4,515,-855,-840,-770,-210,,,,,,,0x03,
12037,-4,516,-853,-700,-770,-140,,,,,,,0x03,
12046,-4,516,-852,70,-700,-70,,,,,,,0x03,
12056,-3,515,-854,1470,-700,-70,,,,,,,0x03,
12066,-3,515,-855,2660,-630,70,,,,,,,0x03,
12075,-2,515,-856,3220,-700,140,,,,,,,0x03,
12085,-2,514,-856,3360,-700,140,,,,,,,0x03,
12094,-2,512,-858,3150,-770,140,,,,,,,0x03,
12104,-2,512,-858,2520,-700,70,,,,,,,0x03,
12114,-1,512,-859,1400,-700,0,,,,,,,0x03,
12123,-2,512,-857,630,-700,-70,,,,,,,0x03,
12133,-2,512,-856,280,-700,-70,,,,,,,0x03,
12143,-2,513,-857,350,-700,-70,,,,,,,0x03,
12152,-3,512,-857,350,-700,-140,,,,,,,0x03,
12162,-3,512,-856,350,-700,-140,,,,,,,0x03,
12172,-3,513,-857,420,-700,-70,,,,,,,0x03,
12181,-2,511,-857,490,-700,-140,,,,,,,0x03,
12191,-3,512,-857,490,-700,-140,,,,,,,0x03,
12201,-2,512,-858,350,-700,-140,,,,,,,0x03,
12210,-2,510,-858,-140,-700,-210,,,,,,,0x03,
12220,-2,512,-857,-630,-700,-140,,,,,,,0x03,
12229,-2,512,-857,-700,-700,-140,,,,,,,0x03,
12239,-3,512,-857,-700,-700,-140,,,,,,,0x03,
12249,-3,512,-857,-560,-630,-140,,,,,,,0x03,
12258,-3,513,-857,-420,-630,-140,,,,,,,0x03,
12268,-2,513,-858,-420,-700,-140,,,,,,,0x03,
12278,-3,511,-858,-630,-630,-140,,,,,,,0x03,
12287,-2,512,-856,-630,-630,-140,,,,,,,0x03,
12297,-3,512,-856,-420,-630,-140,,,,,,,0x03,
12307,-3,511,-856,-210,-630,-210,,,,,,,0x03,
12316,-4,513,-856,140,-630,-70,,,,,,,0x03,
12326,-4,513,-856,490,-630,-140,,,,,,,0x03,
12335,-3,512,-856,980,-700,-70,,,,,,,0x03,
12345,-2,512,-856,1400,-700,0,,,,,,,0x03,
12355,-2,511,-856,1610,-700,0,,,,,,,0x03,
12364,-2,511,-857,1400,-700,0,,,,,,,0x03,
12374,-3,511,-858,1050,-770,70,,,,,,,0x03,
12384,-2,510,-859,700,-840,0,,,,,,,0x03,
12393,-4,510,-859,0,-840,-70,,,,,,,0x03,
12403,-2,510,-858,-630,-840,-70,,,,,,,0x03,
12413,-1,511,-860,-1190,-840,-140,,,,,,,0x03,
12422,-1,511,-859,-1820,-770,-280,,,,,,,0x03,
12432,-3,511,-857,-2380,-770,-280,,,,,,,0x03,
12441,-3,512,-857,-2660,-770,-280,,,,,,,0x03,
12451,-2,513,-857,-2940,-700,-350,,,,,,,0x03,
12461,-1,514,-855,-3080,-770,-420,,,,,,,0x03,
12470,-4,513,-856,-2730,-770,-350,,,,,,,0x03,
12480,-4,513,-855,-2380,-770,-280,,,,,,,0x03,
12490,-4,514,-853,-2240,-700,-280,,,,,,,0x03,
12499,-4,515,-853,-1540,-700,-210,,,,,,,0x03,
12509,-4,515,-854,-420,-700,-140,,,,,,,0x03,
12519,-3,515,-855,560,-700,-70,,,,,,,0x03,
12528,-4,515,-853,1610,-700,0,,,,,,,0x03,
12538,-3,513,-855,2590,-630,70,,,,,,,0x03,
12547,-3,513,-857,3010,-630,140,,,,,,,0x03,
12557,-3,513,-856,2590,-700,70,,,,,,,0x03,
12567,-3,512,-857,2100,-700,70,,,,,,,0x03,
12576,-3,513,-858,1610,-700,70,,,,,,,0x03,
12586,-2,512,-859,770,-700,0,,,,,,,0x03,
12596,-2,511,-858,-210,-700,-70,,,,,,,0x03,
12605,-3,512,-857,-770,-630,-140,,,,,,,0x03,
12615,-2,513,-857,-1050,-630,-140,,,,,,,0x03,
12625,-2,512,-856,-1190,-700,-140,,,,,,,0x03,
12634,-3,511,-857,-1400,-700,-210,,,,,,,0x03,
12644,-3,512,-856,-1470,-630,-210,,,,,,,0x03,
12653,-3,513,-856,-1400,-560,-210,,,,,,,0x03,
12663,-2,513,-855,-1050,-490,-210,,,,,,,0x03,
12673,-4,514,-854,-140,-490,-210,,,,,,,0x03,
12682,-5,514,-853,1260,-490,-140,,,,,,,0x03,
12692,-3,513,-855,2800,-490,0,,,,,,,0x03,
12702,-4,512,-856,3500,-560,70,,,,,,,0x03,
12711,-4,511,-858,3360,-630,140,,,,,,,0x03,
12721,-3,510,-857,2940,-630,70,,,,,,,0x03,
12731,-2,511,-857,2730,-560,70,,,,,,,0x03,
12740,-3,510,-859,2730,-560,70,,,,,,,0x03,
12750,-3,510,-858,2590,-630,70,,,,,,,0x03,
12759,-3,510,-858,2730,-630,70,,,,,,,0x03,
12769,-3,509,-860,3080,-630,140,,,,,,,0x03,
12779,-2,507,-860,2940,-630,140,,,,,,,0x03,
12788,-2,507,-861,2380,-700,70,,,,,,,0x03,
12798,-2,507,-861,1680,-700,0,,,,,,,0x03,
12808,-1,507,-862,490,-700,-70,,,,,,,0x03,
12817,-2,506,-862,-910,-700,-140,,,,,,,0x03,
12827,-2,507,-860,-2100,-700,-280,,,,,,,0x03,
12837,-3,508,-861,-2800,-700,-280,,,,,,,0x03,
12846,-3,508,-858,-3220,-700,-350,,,,,,,0x03,
12856,-2,508,-859,-3080,-700,-350,,,,,,,0x03,
12865,-3,510,-858,-3010,-700,-350,,,,,,,0x03,
12875,-2,510,-857,-2870,-700,-350,,,,,,,0x03,
12885,-2,511,-857,-2450,-770,-280,,,,,,,0x03,
12894,-3,511,-856,-1610,-700,-210,,,,,,,0x03,
12904,-4,511,-857,-770,-700,-140,,,,,,,0x03,
12914,-3,511,-856,210,-700,0,,,,,,,0x03,
12923,-2,510,-856,1050,-700,70,,,,,,,0x03,
12933,-2,510,-857,1540,-630,70,,,,,,,0x03,
12943,-2,509,-859,1470,-700,0,,,,,,,0x03,
12952,-2,510,-859,770,-630,-70,,,,,,,0x03,
12962,-3,511,-859,350,-630,-70,,,,,,,0x03,
12971,-2,509,-860,-350,-700,-70,,,,,,,0x03,
12981,-3,509,-859,-1330,-700,-210,,,,,,,0x03,
12991,-3,510,-858,-1400,-700,-210,,,,,,,0x03,
13000,-3,510,-857,-1540,-700,-210,,,,,,,0x03,
13010,-2,510,-858,-1470,-630,-210,,,,,,,0x03,
13020,-2,511,-858,-1400,-630,-280,,,,,,,0x03,
13029,-1,511,-858,-1330,-630,-280,,,,,,,0x03,
13039,-3,511,-857,-1120,-630,-210,,,,,,,0x03,
13049,-3,511,-858,-910,-630,-210,,,,,,,0x03,
13058,-2,511,-858,-1050,-630,-210,,,,,,,0x03,
13068,-3,511,-856,-1120,-630,-140,,,,,,,0x03,
13077,-2,511,-857,-980,-700,-140,,,,,,,0x03,
13087,-2,512,-856,-490,-700,-140,,,,,,,0x03,
13097,-2,512,-856,70,-700,-70,,,,,,,0x03,
13106,-3,512,-855,910,-700,-70,,,,,,,0x03,
13116,-3,511,-857,1470,-700,0,,,,,,,0x03,
13126,-2,511,-857,1750,-770,-70,,,,,,,0x03,
13135,-2,511,-859,1890,-700,-70,,,,,,,0x03,
13145,-2,511,-858,1890,-700,-70,,,,,,,0x03,
13155,-2,510,-859,1680,-700,-70,,,,,,,0x03,
13164,-2,510,-858,1540,-700,0,,,,,,,0x03,
13174,-2,510,-857,1680,-700,-70,,,,,,,0x03,
13183,-2,510,-859,1820,-700,-70,,,,,,,0x03,
13193,-3,509,-859,1750,-700,-140,,,,,,,0x03,
13203,-2,508,-860,1260,-700,-140,,,,,,,0x03,
13212,-2,509,-859,770,-770,-210,,,,,,,0x03,
13222,-2,508,-859,280,-770,-210,,,,,,,0x03,
13232,-2,508,-859,-70,-700,-210,,,,,,,0x03,
13241,-2,508,-859,-140,-700,-210,,,,,,,0x03,
13251,-3,509,-859,-210,-700,-140,,,,,,,0x03,
13261,-3,509,-858,-140,-700,-140,,,,,,,0x03,
13270,-3,509,-858,210,-700,-70,,,,,,,0x03,
13280,-2,509,-859,560,-630,0,,,,,,,0x03,
13289,-2,509,-859,1120,-700,70,,,,,,,0x03,
13299,-3,509,-859,1750,-630,70,,,,,,,0x03,
13309,-2,508,-860,2100,-630,70,,,,,,,0x03,
13318,-2,505,-862,1470,-700,70,,,,,,,0x03,
13328,-3,507,-861,420,-630,0,,,,,,,0x03,
13338,-2,506,-861,-490,-700,0,,,,,,,0x03,
13347,-2,506,-861,-1470,-630,0,,,,,,,0x03,
13357,-2,509,-860,-2240,-630,-140,,,,,,,0x03,
13367,-1,508,-859,-2520,-560,-140,,,,,,,0x03,
13376,-1,508,-858,-2590,-560,-210,,,,,,,0x03,
13386,-2,509,-858,-2520,-560,-210,,,,,,,0x03,
13395,-2,509,-859,-2450,-630,-280,,,,,,,0x03,
13405,-3,509,-859,-2660,-630,-280,,,,,,,0x03,
13415,-4,510,-859,-3010,-630,-280,,,,,,,0x03,
13424,-2,510,-858,-3150,-630,-280,,,,,,,0x03,
13434,-3,510,-857,-3080,-630,-280,,,,,,,0x03,
13444,-3,512,-855,-2520,-630,-210,,,,,,,0x03,
13453,-2,512,-856,-1470,-630,-140,,,,,,,0x03,
13463,-2,512,-854,-280,-700,-140,,,,,,,0x03,
13473,-3,511,-857,1050,-700,-70,,,,,,,0x03,
13482,-3,510,-858,1260,-840,-70,,,,,,,0x03,
13492,-2,510,-858,700,-770,-70,,,,,,,0x03,
13502,-2,512,-856,140,-770,-70,,,,,,,0x03,
13511,-2,511,-858,280,-700,-140,,,,,,,0x03,
13521,-2,511,-856,630,-700,-140,,,,,,,0x03,
13530,-2,511,-857,1050,-770,-140,,,,,,,0x03,
13540,-2,511,-858,1190,-770,-70,,,,,,,0x03,
13550,-2,510,-857,1050,-700,-70,,,,,,,0x03,
13559,-2,509,-858,840,-700,-70,,,,,,,0x03,
13569,-2,510,-858,560,-700,-70,,,,,,,0x03,
13579,-2,509,-858,560,-700,-70,,,,,,,0x03,
13588,-2,510,-859,490,-700,-70,,,,,,,0x03,
13598,-3,510,-859,70,-700,-140,,,,,,,0x03,
13608,-3,510,-857,0,-700,-140,,,,,,,0x03,
13617,-3,509,-858,210,-700,-140,,,,,,,0x03,
13627,-2,509,-858,350,-630,-140,,,,,,,0x03,
13636,-4,509,-858,490,-630,-140,,,,,,,0x03,
13646,-2,509,-858,490,-630,-140,,,,,,,0x03,
13656,-2,509,-859,560,-560,-140,,,,,,,0x03,
13665,-2,510,-858,560,-560,-140,,,,,,,0x03,
13675,-3,509,-861,560,-560,-140,,,,,,,0x03,
13685,-3,508,-859,-70,-560,-140,,,,,,,0x03,
13694,-2,509,-859,-490,-560,-70,,,,,,,0x03,
13704,-2,509,-859,-700,-560,-140,,,,,,,0x03,
13714,-3,509,-857,-770,-560,-140,,,,,,,0x03,
13723,-3,509,-857,-560,-630,-140,,,,,,,0x03,
13733,-3,510,-859,-560,-630,-140,,,,,,,0x03,
13742,-3,510,-859,-630,-630,-140,,,,,,,0x03,
13752,-3,510,-859,-630,-630,-210,,,,,,,0x03,
13762,-3,510,-859,-700,-630,-210,,,,,,,0x03,
13771,-2,509,-859,-1050,-700,-210,,,,,,,0x03,
13781,-1,510,-858,-1190,-630,-210,,,,,,,0x03,
13791,-2,510,-857,-1050,-630,-210,,,,,,,0x03,
13800,-3,510,-857,-980,-630,-140,,,,,,,0x03,
13810,-2,510,-858,-980,-630,-210,,,,,,,0x03,
13820,-2,509,-859,-1470,-630,-210,,,,,,,0x03,
13829,-2,510,-858,-1820,-700,-210,,,,,,,0x03,
13839,-2,511,-857,-1960,-700,-280,,,,,,,0x03,
13848,-3,511,-856,-1680,-630,-280,,,,,,,0x03,
13858,-3,511,-856,-1470,-630,-210,,,,,,,0x03,
13868,-3,511,-858,-1400,-630,-210,,,,,,,0x03,
13877,-2,512,-857,-1750,-560,-280,,,,,,,0x03,
13887,-3,512,-854,-1750,-420,-280,,,,,,,0x03,
13897,-4,514,-854,-350,-490,-210,,,,,,,0x03,
13906,-2,512,-855,980,-560,-140,,,,,,,0x03,
13916,-2,510,-858,1610,-560,-70,,,,,,,0x03,
13926,-2,512,-857,1610,-490,-70,,,,,,,0x03,
13935,-3,511,-858,1820,-560,-70,,,,,,,0x03,
13945,-3,511,-857,1680,-560,-70,,,,,,,0x03,
13954,-3,510,-857,2100,-560,0,,,,,,,0x03,
13964,-2,510,-858,2450,-630,70,,,,,,,0x03,
13974,-2,510,-858,2590,-700,70,,,,,,,0x03,
13983,-2,509,-859,2730,-700,70,,,,,,,0x03,
13993,-2,508,-859,2590,-630,0,,,,,,,0x03,
14003,-2,508,-861,2240,-700,0,,,,,,,0x03,
14012,-1,508,-861,1400,-700,-70,,,,,,,0x03,
14022,-2,508,-861,420,-700,-70,,,,,,,0x03,
14032,-2,508,-859,-140,-700,-140,,,,,,,0x03,
14041,-1,508,-860,-280,-700,-140,,,,,,,0x03,
14051,-2,508,-860,-630,-700,-140,,,,,,,0x03,
14060,-2,509,-859,-1330,-700,-210,,,,,,,0x03,
14070,-3,509,-858,-1680,-700,-210,,,,,,,0x03,
14080,-1,508,-859,-1750,-770,-210,,,,,,,0x03,
14089,-1,510,-858,-1960,-770,-210,,,,,,,0x03,
14099,-2,509,-858,-2100,-770,-280,,,,,,,0x03,
14109,-2,509,-857,-1890,-840,-210,,,,,,,0x03,
14118,-2,510,-858,-1820,-840,-210,,,,,,,0x03,
14128,-2,512,-857,-1820,-840,-210,,,,,,,0x03,
14138,-3,510,-857,-1470,-840,-140,,,,,,,0x03,
14147,-1,510,-858,-980,-840,-140,,,,,,,0x03,
14157,-2,510,-858,-1050,-840,-140,,,,,,,0x03,
14166,-2,510,-858,-1400,-910,-140,,,,,,,0x03,
14176,-3,510,-857,-1820,-980,-70,,,,,,,0x03,
14186,-3,511,-857,-2310,-910,-70,,,,,,,0x03,
14195,-2,512,-857,-2590,-840,-140,,,,,,,0x03,
14205,-2,513,-856,-2380,-840,-140,,,,,,,0x03,
14215,-3,513,-855,-1890,-840,-210,,,,,,,0x03,
14224,-3,513,-854,-1330,-700,-210,,,,,,,0x03,
14234,-3,513,-855,-560,-700,-140,,,,,,,0x03,
14244,-3,512,-856,70,-560,-140,,,,,,,0x03,
14253,-2,513,-856,560,-560,-140,,,,,,,0x03,
14263,-4,511,-857,700,-560,-70,,,,,,,0x03,
14272,-3,511,-858,280,-630,-70,,,,,,,0x03,
14282,-2,511,-857,-420,-560,-70,,,,,,,0x03,
14292,-1,513,-857,-630,-560,-70,,,,,,,0x03,
14301,-3,514,-855,-560,-560,-140,,,,,,,0x03,
14311,-3,513,-855,-210,-630,-140,,,,,,,0x03,
14321,-3,514,-856,490,-630,-70,,,,,,,0x03,
14330,-3,513,-856,840,-630,-70,,,,,,,0x03,
14340,-4,512,-856,910,-630,-140,,,,,,,0x03,
14350,-3,512,-855,1190,-630,-140,,,,,,,0x03,
14359,-2,511,-858,1400,-630,-70,,,,,,,0x03,
14369,-3,511,-859,1120,-630,-140,,,,,,,0x03,
14378,-2,513,-857,630,-630,-140,,,,,,,0x03,
14388,-2,511,-858,140,-700,-140,,,,,,,0x03,
14398,-2,510,-857,-420,-700,-140,,,,,,,0x03,
14407,-2,511,-856,-980,-700,-140,,,,,,,0x03,
14417,-3,511,-857,-1120,-700,-140,,,,,,,0x03,
14427,-2,513,-856,-980,-700,-210,,,,,,,0x03,
14436,-3,513,-856,-420,-700,-210,,,,,,,0x03,
14446,-3,511,-856,210,-700,-210,,,,,,,0x03,
14456,-2,512,-857,630,-630,-140,,,,,,,0x03,
14465,-3,511,-857,770,-630,-140,,,,,,,0x03,
14475,-3,510,-858,420,-700,-140,,,,,,,0x03,
14484,-2,511,-856,-70,-700,-140,,,,,,,0x03,
14494,-1,512,-859,-420,-770,-140,,,,,,,0x03,
14504,-3,512,-858,-1330,-840,-210,,,,,,,0x03,
14513,-3,512,-857,-1890,-840,-210,,,,,,,0x03,
14523,-4,513,-856,-1680,-840,-210,,,,,,,0x03,
14533,-2,512,-855,-980,-770,-140,,,,,,,0x03,
14542,-3,513,-855,-140,-770,-140,,,,,,,0x03,
14552,-3,513,-855,560,-840,-140,,,,,,,0x03,
14562,-3,511,-857,910,-840,-140,,,,,,,0x03,
14571,-3,512,-857,840,-840,-140,,,,,,,0x03,
14581,-2,512,-857,560,-700,-140,,,,,,,0x03,
14590,-3,511,-857,140,-700,-70,,,,,,,0x03,
14600,-3,512,-857,280,-630,-70,,,,,,,0x03,
14610,-4,513,-856,700,-630,-70,,,,,,,0x03,
14619,-2,512,-857,1400,-630,-70,,,,,,,0x03,
14629,-3,512,-856,2030,-630,-70,,,,,,,0x03,
14639,-2,511,-858,2520,-700,70,,,,,,,0x03,
14648,-4,511,-859,2240,-630,0,,,,,,,0x03,
14658,-3,509,-858,2030,-560,-70,,,,,,,0x03,
14668,-2,510,-857,2030,-560,0,,,,,,,0x03,
14677,-2,509,-858,2310,-560,70,,,,,,,0x03,
14687,-3,509,-859,2240,-490,0,,,,,,,0x03,
14696,-2,507,-858,2170,-560,0,,,,,,,0x03,
14706,-2,508,-860,2310,-560,0,,,,,,,0x03,
14716,-2,508,-861,1680,-560,-70,,,,,,,0x03,
14725,-3,507,-860,910,-630,-70,,,,,,,0x03,
14735,-2,508,-859,350,-630,-140,,,,,,,0x03,
14745,-3,507,-860,70,-700,-140,,,,,,,0x03,
14754,-2,508,-860,0,-630,-140,,,,,,,0x03,
14764,-3,508,-859,-70,-700,-210,,,,,,,0x03,
14774,-3,508,-860,-70,-700,-140,,,,,,,0x03,
14783,-2,507,-860,-280,-700,-210,,,,,,,0x03,
14793,-3,507,-860,-700,-700,-210,,,,,,,0x03,
14803,-3,507,-860,-1050,-700,-210,,,,,,,0x03,
14812,-3,507,-860,-1470,-700,-210,,,,,,,0x03,
14822,-1,508,-860,-2030,-630,-210,,,,,,,0x03,
14831,-2,508,-859,-2380,-700,-210,,,,,,,0x03,
14841,-3,509,-859,-2520,-700,-210,,,,,,,0x03,
14851,-3,509,-859,-2800,-770,-280,,,,,,,0x03,
14860,-2,510,-857,-3010,-770,-280,,,,,,,0x03,
14870,-2,511,-858,-2870,-840,-210,,,,,,,0x03,
14880,-2,512,-857,-2660,-840,-210,,,,,,,0x03,
14889,-3,511,-856,-2450,-770,-210,,,,,,,0x03,
14899,-3,512,-856,-1820,-770,-210,,,,,,,0x03,
14909,-2,511,-857,-1330,-840,-280,,,,,,,0x03,
14918,-2,512,-858,-1190,-840,-280,,,,,,,0x03,
14928,-3,511,-857,-1400,-840,-210,,,,,,,0x03,
14937,-3,511,-856,-1330,-770,-210,,,,,,,0x03,
14947,-4,512,-855,-770,-630,-140,,,,,,,0x03,
14957,-4,514,-853,350,-490,-70,,,,,,,0x03,
14966,-3,514,-853,2520,-420,70,,,,,,,0x03,
14976,-3,513,-855,4900,-490,140,,,,,,,0x03,
14986,-4,509,-858,6300,-490,70,,,,,,,0x03,
14995,-2,508,-860,6020,-560,70,,,,,,,0x03,
15005,-2,505,-863,4550,-630,0,,,,,,,0x03,
15015,-2,507,-860,2520,-490,0,,,,,,,0x03,
15024,-2,508,-859,1540,-420,0,,,,,,,0x03,
15034,-3,509,-856,1470,-490,0,,,,,,,0x03,
15043,-3,508,-858,2590,-490,0,,,,,,,0x03,
15053,-2,507,-859,3710,-560,0,,,,,,,0x03,
15063,-2,506,-860,4200,-560,0,,,,,,,0x03,
15072,-3,505,-862,4340,-630,0,,,,,,,0x03,
15082,-2,503,-863,3920,-630,-70,,,,,,,0x03,
15092,-3,503,-864,2590,-630,-70,,,,,,,0x03,
15101,-2,503,-864,1260,-700,-70,,,,,,,0x03,
15111,-1,503,-865,-140,-700,-140,,,,,,,0x03,
15121,-2,504,-863,-1330,-770,-210,,,,,,,0x03,
15130,-1,504,-863,-2170,-770,-210,,,,,,,0x03,
15140,-3,504,-863,-2730,-770,-210,,,,,,,0x03,
15149,-3,504,-862,-3010,-700,-210,,,,,,,0x03,
15159,-2,506,-860,-2800,-630,-210,,,,,,,0x03,
15169,-2,507,-860,-2030,-630,-210,,,,,,,0x03,
15178,-2,508,-859,-980,-630,-210,,,,,,,0x03,
15188,-2,507,-860,-70,-630,-210,,,,,,,0x03,
15198,-3,506,-862,-70,-630,-210,,,,,,,0x03,
15207,-2,505,-863,-1120,-770,-210,,,,,,,0x03,
15217,-3,504,-863,-3290,-770,-280,,,,,,,0x03,
15227,-3,507,-861,-5180,-700,-280,,,,,,,0x03,
15236,-3,509,-858,-5740,-630,-280,,,,,,,0x03,
15246,-2,511,-855,-4620,-630,-210,,,,,,,0x03,
15255,-2,511,-855,-2310,-630,-210,,,,,,,0x03,
15265,-2,510,-857,-210,-840,-140,,,,,,,0x03,
15275,-2,507,-861,-140,-980,-210,,,,,,,0x03,
15284,-2,508,-861,-1890,-910,-210,,,,,,,0x03,
15294,-2,509,-859,-3500,-770,-210,,,,,,,0x03,
15304,-3,512,-856,-3850,-700,-210,,,,,,,0x03,
15313,-3,514,-853,-2660,-630,-140,,,,,,,0x03,
15323,-3,513,-854,-350,-770,-70,,,,,,,0x03,
15333,-3,511,-856,1400,-770,-70,,,,,,,0x03,
15342,-2,509,-859,1680,-700,0,,,,,,,0x03,
15352,-3,510,-859,770,-700,-70,,,,,,,0x03,
15361,-3,510,-857,420,-560,-70,,,,,,,0x03,
15371,-2,511,-855,1050,-490,0,,,,,,,0x03,
15381,-2,511,-856,2240,-490,0,,,,,,,0x03,
15390,-3,510,-857,3080,-560,0,,,,,,,0x03,
15400,-3,509,-858,3570,-560,0,,,,,,,0x03,
