#Format version: 1.0
time[ms],accX[mg],accY[mg],accZ[mg],gyroX[mdps],gyroY[mdps],gyroZ[mdps],magnX[mG],magnY[mG],magnZ[mG],press[hPa],temp[°C],hum[0,-314,-958,37,140,-840,-70,,,,,,,0x03,
10,-313,-956,37,70,-840,0,,,,,,,0x03,
19,-314,-956,36,70,-840,0,,,,,,,0x03,
29,-313,-954,37,140,-840,-70,,,,,,,0x03,
39,-314,-956,37,0,-840,-70,,,,,,,0x03,
48,-313,-954,37,-70,-840,-210,,,,,,,0x03,
58,-314,-954,37,0,-910,-280,,,,,,,0x03,
67,-313,-955,38,0,-840,-420,,,,,,,0x03,
77,-314,-955,38,-70,-840,-420,,,,,,,0x03,
87,-313,-956,39,-70,-840,-420,,,,,,,0x03,
96,-312,-955,38,0,-700,-490,,,,,,,0x03,
106,-311,-956,38,-210,-700,-420,,,,,,,0x03,
116,-312,-956,38,-280,-630,-490,,,,,,,0x03,
125,-312,-957,38,-280,-560,-350,,,,,,,0x03,
135,-313,-959,37,-140,-490,-350,,,,,,,0x03,
145,-313,-960,38,0,-490,-280,,,,,,,0x03,
154,-313,-957,37,140,-490,-210,,,,,,,0x03,
164,-312,-957,38,210,-490,-70,,,,,,,0x03,
174,-313,-958,37,70,-490,-70,,,,,,,0x03,
183,-313,-957,36,70,-560,-70,,,,,,,0x03,
193,-315,-954,36,70,-560,0,,,,,,,0x03,
202,-314,-956,36,-70,-630,0,,,,,,,0x03,
212,-315,-958,37,-210,-700,0,,,,,,,0x03,
222,-313,-957,37,-210,-700,0,,,,,,,0x03,
231,-314,-955,36,-70,-700,70,,,,,,,0x03,
241,-314,-955,42,-140,-700,0,,,,,,,0x03,
251,-315,-950,47,-840,-770,140,,,,,,,0x03,
260,-302,-959,12,-140,-1330,70,,,,,,,0x03,
270,-323,-957,36,840,-280,-630,,,,,,,0x03,
280,-321,-952,52,-350,-420,-350,,,,,,,0x03,
289,-304,-951,40,-560,-1330,-210,,,,,,,0x03,
299,-308,-951,37,0,-910,-630,,,,,,,0x03,
308,-328,-944,42,-910,-840,-700,,,,,,,0x03,
318,-316,-956,34,-1470,-1050,-420,,,,,,,0x03,
328,-304,-959,34,-1610,-840,-980,,,,,,,0x03,
337,-310,-958,34,-1400,-770,-1190,,,,,,,0x03,
347,-309,-959,36,-840,-770,-1260,,,,,,,0x03,
357,-312,-956,40,-560,-630,-1330,,,,,,,0x03,
366,-313,-955,39,-770,-700,-1120,,,,,,,0x03,
376,-309,-957,35,-910,-840,-1120,,,,,,,0x03,
386,-311,-961,34,-1120,-700,-1120,,,,,,,0x03,
395,-313,-963,36,-910,-700,-1050,,,,,,,0x03,
405,-312,-963,36,-420,-700,-910,,,,,,,0x03,
415,-311,-958,38,-70,-630,-700,,,,,,,0x03,
424,-312,-957,38,-280,-700,-490,,,,,,,0x03,
434,-309,-959,35,-420,-770,-280,,,,,,,0x03,
443,-310,-962,34,-420,-700,-210,,,,,,,0x03,
453,-311,-961,37,-350,-560,0,,,,,,,0x03,
463,-311,-961,36,-140,-630,210,,,,,,,0x03,
472,-310,-958,35,-140,-630,280,,,,,,,0x03,
482,-312,-958,35,0,-560,420,,,,,,,0x03,
492,-311,-956,37,0,-630,420,,,,,,,0x03,
501,-312,-958,34,70,-560,420,,,,,,,0x03,
511,-311,-956,34,420,-560,280,,,,,,,0x03,
521,-313,-954,35,350,-560,140,,,,,,,0x03,
530,-312,-953,36,350,-630,0,,,,,,,0x03,
540,-312,-951,35,140,-700,-210,,,,,,,0x03,
549,-311,-952,34,-280,-770,-350,,,,,,,0x03,
559,-313,-955,34,-350,-770,-560,,,,,,,0x03,
569,-313,-955,33,-350,-910,-770,,,,,,,0x03,
578,-312,-958,34,-280,-910,-910,,,,,,,0x03,
588,-312,-957,35,-140,-910,-980,,,,,,,0x03,
598,-311,-956,38,-140,-910,-980,,,,,,,0x03,
607,-312,-956,36,-140,-910,-980,,,,,,,0x03,
617,-310,-957,36,-210,-910,-980,,,,,,,0x03,
627,-309,-960,36,-350,-840,-840,,,,,,,0x03,
636,-309,-961,34,-70,-770,-840,,,,,,,0x03,
646,-310,-959,37,70,-700,-770,,,,,,,0x03,
656,-309,-960,35,70,-770,-630,,,,,,,0x03,
665,-309,-959,37,280,-630,-630,,,,,,,0x03,
675,-310,-957,36,70,-630,-420,,,,,,,0x03,
684,-310,-959,36,-140,-560,-280,,,,,,,0x03,
694,-312,-958,36,-140,-560,-280,,,,,,,0x03,
704,-310,-957,36,-210,-490,-210,,,,,,,0x03,
713,-311,-957,36,-210,-490,-210,,,,,,,0x03,
723,-310,-956,36,-210,-490,-210,,,,,,,0x03,
733,-310,-955,37,-350,-490,-280,,,,,,,0x03,
742,-310,-956,36,-420,-490,-420,,,,,,,0x03,
752,-310,-958,33,-420,-490,-420,,,,,,,0x03,
762,-311,-956,33,-280,-490,-630,,,,,,,0x03,
771,-311,-956,33,-70,-560,-770,,,,,,,0x03,
781,-311,-956,34,0,-630,-840,,,,,,,0x03,
790,-313,-955,34,-140,-700,-840,,,,,,,0x03,
800,-310,-955,34,-350,-840,-910,,,,,,,0x03,
810,-310,-955,34,-490,-910,-1050,,,,,,,0x03,
819,-309,-954,35,-700,-1050,-1120,,,,,,,0x03,
829,-308,-957,33,-980,-1120,-1190,,,,,,,0x03,
839,-308,-955,37,-1120,-1190,-1120,,,,,,,0x03,
848,-311,-961,32,-1470,-1330,-910,,,,,,,0x03,
858,-308,-963,33,-1470,-1330,-910,,,,,,,0x03,
868,-309,-961,34,-980,-1260,-910,,,,,,,0x03,
877,-307,-960,35,-840,-1330,-770,,,,,,,0x03,
887,-308,-960,34,-910,-1260,-560,,,,,,,0x03,
897,-307,-960,35,-910,-1190,-490,,,,,,,0x03,
906,-308,-961,36,-770,-1190,-420,,,,,,,0x03,
916,-309,-959,33,-630,-1190,-280,,,,,,,0x03,
925,-307,-961,33,-420,-1120,-210,,,,,,,0x03,
935,-306,-960,33,-210,-980,-210,,,,,,,0x03,
945,-305,-958,36,-140,-840,-210,,,,,,,0x03,
954,-309,-953,37,-350,-770,-140,,,,,,,0x03,
964,-313,-950,37,-770,-770,0,,,,,,,0x03,
974,-310,-955,36,-1470,-630,210,,,,,,,0x03,
983,-301,-962,34,-1750,-700,-70,,,,,,,0x03,
993,-306,-954,34,-1330,-630,-280,,,,,,,0x03,
1003,-309,-958,30,-1190,-630,-350,,,,,,,0x03,
1012,-305,-964,30,-1190,-490,-560,,,,,,,0x03,
1022,-306,-963,32,-700,-350,-700,,,,,,,0x03,
1031,-307,-958,34,0,-210,-770,,,,,,,0x03,
1041,-309,-956,35,140,-140,-770,,,,,,,0x03,
1051,-310,-954,37,-280,-140,-630,,,,,,,0x03,
1060,-310,-955,34,-630,-280,-490,,,,,,,0x03,
1070,-307,-959,29,-840,-280,-560,,,,,,,0x03,
1080,-308,-963,26,-770,-210,-700,,,,,,,0x03,
1089,-306,-968,27,-280,-210,-910,,,,,,,0x03,
1099,-304,-960,32,490,-70,-980,,,,,,,0x03,
1109,-308,-949,44,420,0,-630,,,,,,,0x03,
1118,-310,-948,37,-560,-490,-280,,,,,,,0x03,
1128,-304,-962,21,-1470,-770,-350,,,,,,,0x03,
1137,-305,-970,22,-1120,-350,-770,,,,,,,0x03,
1147,-309,-963,33,0,0,-700,,,,,,,0x03,
1157,-310,-955,40,350,-70,-420,,,,,,,0x03,
1166,-307,-952,36,-350,-490,-140,,,,,,,0x03,
1176,-306,-957,29,-910,-560,0,,,,,,,0x03,
1186,-305,-964,26,-1050,-420,-210,,,,,,,0x03,
1195,-306,-965,28,-700,-210,-280,,,,,,,0x03,
1205,-308,-961,31,-140,-210,-70,,,,,,,0x03,
1215,-309,-958,33,0,-280,140,,,,,,,0x03,
1224,-308,-956,32,-420,-350,280,,,,,,,0x03,
1234,-304,-961,27,-700,-350,280,,,,,,,0x03,
1244,-302,-958,29,-350,-210,140,,,,,,,0x03,
1253,-308,-958,32,-210,-210,210,,,,,,,0x03,
1263,-309,-957,32,-350,-350,350,,,,,,,0x03,
1272,-310,-956,29,-560,-420,420,,,,,,,0x03,
1282,-308,-958,29,-490,-420,350,,,,,,,0x03,
1292,-310,-957,28,-350,-490,140,,,,,,,0x03,
1301,-309,-956,28,-210,-420,70,,,,,,,0x03,
1311,-309,-957,30,-490,-350,0,,,,,,,0x03,
1321,-305,-954,33,-770,-490,-210,,,,,,,0x03,
1330,-306,-952,33,-1050,-630,-280,,,,,,,0x03,
1340,-308,-952,28,-1540,-770,-490,,,,,,,0x03,
1350,-309,-958,24,-1750,-630,-630,,,,,,,0x03,
1359,-309,-965,27,-1680,-560,-630,,,,,,,0x03,
1369,-307,-963,32,-1120,-560,-630,,,,,,,0x03,
1378,-306,-959,33,-770,-630,-630,,,,,,,0x03,
1388,-305,-957,29,-980,-770,-560,,,,,,,0x03,
1398,-305,-961,25,-1190,-770,-490,,,,,,,0x03,
1407,-306,-963,28,-1470,-630,-420,,,,,,,0x03,
1417,-305,-963,28,-1470,-420,70,,,,,,,0x03,
1427,-303,-969,27,-1190,-420,210,,,,,,,0x03,
1436,-306,-964,28,-630,-350,70,,,,,,,0x03,
1446,-309,-963,33,-210,-210,490,,,,,,,0x03,
1456,-307,-962,33,-350,-210,840,,,,,,,0x03,
1465,-305,-964,27,-630,-210,1120,,,,,,,0x03,
1475,-306,-965,27,-560,-70,1330,,,,,,,0x03,
1485,-306,-967,25,-490,70,1610,,,,,,,0x03,
1494,-305,-969,29,210,70,1820,,,,,,,0x03,
1504,-310,-962,29,770,210,2100,,,,,,,0x03,
1513,-308,-957,27,700,70,2380,,,,,,,0x03,
1523,-308,-958,27,490,0,2450,,,,,,,0x03,
1533,-311,-960,27,280,-70,2520,,,,,,,0x03,
1542,-311,-960,21,420,-70,2590,,,,,,,0x03,
1552,-312,-958,28,770,-70,2590,,,,,,,0x03,
1562,-315,-952,32,560,-280,2800,,,,,,,0x03,
1571,-316,-951,27,280,-560,2800,,,,,,,0x03,
1581,-313,-949,29,-140,-630,2730,,,,,,,0x03,
1591,-317,-945,29,-1190,-840,2800,,,,,,,0x03,
1600,-315,-960,13,-1750,-1190,2520,,,,,,,0x03,
1610,-311,-960,23,-1400,-980,1820,,,,,,,0x03,
1619,-317,-957,24,-840,-1050,1750,,,,,,,0x03,
1629,-309,-956,31,-420,-1260,1330,,,,,,,0x03,
1639,-318,-946,26,-490,-1190,1400,,,,,,,0x03,
1648,-314,-964,19,-490,-1400,1120,,,,,,,0x03,
1658,-310,-965,24,770,-840,560,,,,,,,0x03,
1668,-311,-954,39,1190,-420,560,,,,,,,0x03,
1677,-318,-943,50,700,-630,910,,,,,,,0x03,
1687,-320,-929,41,-700,-1050,1330,,,,,,,0x03,
1697,-315,-947,12,-2310,-1470,1470,,,,,,,0x03,
1706,-308,-977,2,-2870,-420,840,,,,,,,0x03,
1716,-311,-973,28,-1330,420,210,,,,,,,0x03,
1726,-313,-970,37,70,210,280,,,,,,,0x03,
1735,-310,-956,37,1120,280,280,,,,,,,0x03,
1745,-322,-925,56,420,770,980,,,,,,,0x03,
1754,-329,-929,33,-2030,-350,2240,,,,,,,0x03,
1764,-313,-961,13,-4620,-280,2240,,,,,,,0x03,
1774,-313,-966,15,-5180,490,2030,,,,,,,0x03,
1783,-308,-985,23,-3850,350,1960,,,,,,,0x03,
1793,-310,-987,35,-1750,140,1260,,,,,,,0x03,
1803,-313,-960,37,280,-70,1120,,,,,,,0x03,
1812,-323,-941,58,420,70,1820,,,,,,,0x03,
1822,-330,-924,63,-2170,-1120,2590,,,,,,,0x03,
1832,-320,-931,24,-4830,-2170,3850,,,,,,,0x03,
1841,-311,-946,-25,-5880,-1190,4410,,,,,,,0x03,
1851,-310,-984,-28,-6790,420,4060,,,,,,,0x03,
1860,-317,-991,0,-5320,1400,3010,,,,,,,0x03,
1870,-325,-962,21,-1190,1190,2660,,,,,,,0x03,
1880,-322,-946,21,700,840,2590,,,,,,,0x03,
1889,-323,-941,19,-280,630,2520,,,,,,,0x03,
1899,-323,-953,18,-1190,700,2310,,,,,,,0x03,
1909,-324,-960,18,-350,630,1890,,,,,,,0x03,
1918,-328,-960,17,980,560,1820,,,,,,,0x03,
1928,-330,-955,14,1820,490,2170,,,,,,,0x03,
1938,-329,-951,14,2030,560,2170,,,,,,,0x03,
1947,-326,-945,18,1750,560,1960,,,,,,,0x03,
1957,-326,-940,19,770,490,1890,,,,,,,0x03,
1967,-327,-941,20,-490,350,1890,,,,,,,0x03,
1976,-326,-948,19,-1680,280,1750,,,,,,,0x03,
1986,-325,-950,17,-2240,280,1610,,,,,,,0x03,
1995,-330,-937,39,-2520,280,1400,,,,,,,0x03,
2005,-344,-909,36,-4270,-350,2100,,,,,,,0x03,
2015,-332,-940,4,-7000,-1470,2590,,,,,,,0x03,
2024,-312,-982,-1,-8610,-980,1330,,,,,,,0x03,
2034,-316,-972,19,-6860,70,420,,,,,,,0x03,
2044,-327,-950,25,-3710,-70,490,,,,,,,0x03,
2053,-333,-942,18,-3010,-630,840,,,,,,,0x03,
2063,-333,-948,15,-4340,-770,1050,,,,,,,0x03,
2073,-324,-961,14,-4620,-700,910,,,,,,,0x03,
2082,-320,-963,12,-3710,-350,770,,,,,,,0x03,
2092,-325,-967,9,-2800,0,910,,,,,,,0x03,
2101,-327,-970,8,-1680,140,1050,,,,,,,0x03,
2111,-325,-966,7,-420,280,1120,,,,,,,0x03,
2121,-323,-965,9,630,420,1330,,,,,,,0x03,
2130,-325,-961,10,1400,630,1610,,,,,,,0x03,
2140,-327,-961,9,2030,700,2170,,,,,,,0x03,
2150,-327,-961,6,2380,770,2590,,,,,,,0x03,
2159,-329,-956,3,3010,1050,2940,,,,,,,0x03,
2169,-332,-949,12,3080,1260,3360,,,,,,,0x03,
2179,-330,-954,20,1680,1120,3850,,,,,,,0x03,
2188,-325,-952,15,980,840,3710,,,,,,,0x03,
2198,-331,-949,6,1330,840,3500,,,,,,,0x03,
2208,-337,-947,2,1680,910,3430,,,,,,,0x03,
2217,-343,-941,12,1890,1050,3570,,,,,,,0x03,
2227,-340,-942,15,1050,770,3850,,,,,,,0x03,
2236,-329,-947,2,140,420,3500,,,,,,,0x03,
2246,-326,-955,8,-210,630,2800,,,,,,,0x03,
2256,-329,-951,7,0,840,2590,,,,,,,0x03,
2265,-330,-946,2,700,1330,2520,,,,,,,0x03,
2275,-341,-935,6,420,2170,2520,,,,,,,0x03,
2285,-353,-930,38,-350,1750,2590,,,,,,,0x03,
2294,-354,-929,48,-2170,140,2660,,,,,,,0x03,
2304,-340,-948,15,-3640,-1470,2170,,,,,,,0x03,
2314,-328,-965,-16,-2520,-910,1190,,,,,,,0x03,
2323,-334,-965,-1,-280,840,490,,,,,,,0x03,
2333,-345,-948,26,910,1190,840,,,,,,,0x03,
2342,-342,-935,26,1050,280,1260,,,,,,,0x03,
2352,-334,-936,10,280,-140,1470,,,,,,,0x03,
2362,-336,-955,3,-490,140,1330,,,,,,,0x03,
2371,-343,-968,8,-350,350,1120,,,,,,,0x03,
2381,-343,-958,10,980,280,1050,,,,,,,0x03,
2391,-343,-943,10,1820,210,1400,,,,,,,0x03,
2400,-345,-940,9,1190,-140,1750,,,,,,,0x03,
2410,-344,-949,8,210,-420,1890,,,,,,,0x03,
2420,-340,-956,6,-140,-560,1890,,,,,,,0x03,
2429,-344,-956,7,280,-770,2100,,,,,,,0x03,
2439,-347,-953,6,980,-1190,2310,,,,,,,0x03,
2449,-347,-951,3,1400,-1610,2450,,,,,,,0x03,
2458,-346,-947,3,1820,-1960,2380,,,,,,,0x03,
2468,-349,-943,4,2100,-2450,2310,,,,,,,0x03,
2477,-348,-942,6,1750,-2940,2240,,,,,,,0x03,
2487,-347,-941,7,1190,-3360,2170,,,,,,,0x03,
2497,-347,-938,10,910,-3640,1890,,,,,,,0x03,
2506,-346,-932,11,560,-3850,1470,,,,,,,0x03,
2516,-346,-928,16,-70,-3920,1050,,,,,,,0x03,
2526,-344,-932,20,-1190,-3710,560,,,,,,,0x03,
2535,-339,-934,21,-1820,-3430,0,,,,,,,0x03,
2545,-338,-935,23,-1890,-2940,-700,,,,,,,0x03,
2555,-337,-939,26,-1960,-2380,-1190,,,,,,,0x03,
2564,-338,-943,27,-1890,-1750,-1610,,,,,,,0x03,
2574,-338,-943,27,-1330,-980,-1960,,,,,,,0x03,
2583,-338,-945,27,-910,-420,-2170,,,,,,,0x03,
2593,-337,-948,25,-770,210,-2310,,,,,,,0x03,
2603,-339,-948,22,-560,770,-2310,,,,,,,0x03,
2612,-340,-950,19,-420,1260,-2310,,,,,,,0x03,
2622,-342,-953,15,-630,1540,-2030,,,,,,,0x03,
2632,-341,-953,12,-700,1750,-1680,,,,,,,0x03,
2641,-340,-953,11,-700,1890,-1400,,,,,,,0x03,
2651,-341,-951,9,-840,1960,-1120,,,,,,,0x03,
2661,-340,-951,8,-1050,1960,-840,,,,,,,0x03,
2670,-342,-951,7,-1260,1820,-630,,,,,,,0x03,
2680,-345,-948,7,-1050,1680,-420,,,,,,,0x03,
2690,-345,-947,6,-980,1330,-280,,,,,,,0x03,
2699,-344,-947,7,-1050,1120,-210,,,,,,,0x03,
2709,-344,-946,6,-1050,910,-350,,,,,,,0x03,
2718,-343,-944,5,-910,770,-630,,,,,,,0x03,
2728,-342,-942,8,-980,700,-840,,,,,,,0x03,
2738,-342,-941,9,-1190,560,-1120,,,,,,,0x03,
2747,-341,-940,10,-1260,630,-1330,,,,,,,0x03,
2757,-342,-939,11,-1260,630,-1680,,,,,,,0x03,
2767,-343,-940,11,-1400,630,-1890,,,,,,,0x03,
2776,-341,-942,12,-1750,700,-2030,,,,,,,0x03,
2786,-339,-943,10,-1960,840,-2170,,,,,,,0x03,
2796,-337,-945,10,-2170,910,-2380,,,,,,,0x03,
2805,-336,-945,6,-2450,1050,-2380,,,,,,,0x03,
2815,-335,-950,6,-2380,1120,-2310,,,,,,,0x03,
2824,-338,-954,5,-2450,1120,-2590,,,,,,,0x03,
2834,-336,-955,5,-2240,1120,-2590,,,,,,,0x03,
2844,-336,-956,4,-1820,1120,-2450,,,,,,,0x03,
2853,-337,-957,3,-1260,980,-2380,,,,,,,0x03,
2863,-337,-956,1,-840,910,-2240,,,,,,,0x03,
2873,-339,-953,1,-560,770,-2100,,,,,,,0x03,
2882,-339,-952,2,-560,630,-1890,,,,,,,0x03,
2892,-338,-953,2,-630,420,-1680,,,,,,,0x03,
2902,-337,-955,2,-630,280,-1540,,,,,,,0x03,
2911,-339,-954,3,-490,70,-1330,,,,,,,0x03,
2921,-337,-953,3,-350,0,-1050,,,,,,,0x03,
2931,-337,-958,3,-560,-210,-700,,,,,,,0x03,
2940,-338,-955,3,-420,-350,-560,,,,,,,0x03,
2950,-335,-955,3,-70,-420,-140,,,,,,,0x03,
2959,-333,-958,3,-70,-490,140,,,,,,,0x03,
2969,-335,-955,3,350,-560,210,,,,,,,0x03,
2979,-336,-951,3,630,-560,420,,,,,,,0x03,
2988,-335,-949,3,280,-700,560,,,,,,,0x03,
2998,-336,-951,4,70,-630,700,,,,,,,0x03,
3008,-337,-949,3,70,-700,700,,,,,,,0x03,
3017,-335,-950,3,140,-770,770,,,,,,,0x03,
3027,-336,-949,3,140,-770,700,,,,,,,0x03,
3037,-336,-948,4,280,-770,700,,,,,,,0x03,
3046,-334,-949,4,210,-770,700,,,,,,,0x03,
3056,-335,-948,4,280,-700,560,,,,,,,0x03,
3065,-335,-948,4,490,-700,420,,,,,,,0x03,
3075,-336,-949,5,490,-630,350,,,,,,,0x03,
3085,-337,-950,5,560,-630,280,,,,,,,0x03,
3094,-335,-949,6,770,-560,210,,,,,,,0x03,
3104,-335,-947,6,770,-490,70,,,,,,,0x03,
3114,-335,-947,6,700,-420,0,,,,,,,0x03,
3123,-334,-949,6,490,-350,0,,,,,,,0x03,
3133,-333,-951,5,420,-210,0,,,,,,,0x03,
3143,-333,-953,4,630,-140,-70,,,,,,,0x03,
3152,-332,-953,3,1120,0,-210,,,,,,,0x03,
3162,-333,-953,3,1470,0,-350,,,,,,,0x03,
3171,-336,-952,4,1890,0,-350,,,,,,,0x03,
3181,-336,-949,4,2100,-70,-420,,,,,,,0x03,
3191,-336,-948,5,2100,-140,-420,,,,,,,0x03,
3200,-340,-943,6,2100,-210,-490,,,,,,,0x03,
3210,-342,-943,8,1750,-420,-490,,,,,,,0x03,
3220,-341,-945,8,910,-560,-280,,,,,,,0x03,
3229,-339,-947,7,280,-630,-210,,,,,,,0x03,
3239,-338,-949,7,70,-700,-70,,,,,,,0x03,
3249,-336,-951,7,-70,-700,140,,,,,,,0x03,
3258,-336,-953,7,-140,-770,350,,,,,,,0x03,
3268,-334,-954,7,70,-770,490,,,,,,,0x03,
3278,-335,-954,8,350,-700,770,,,,,,,0x03,
3287,-336,-954,8,630,-700,910,,,,,,,0x03,
3297,-336,-954,8,840,-700,1120,,,,,,,0x03,
3306,-337,-952,7,1120,-700,1190,,,,,,,0x03,
3316,-338,-948,7,1400,-630,1120,,,,,,,0x03,
3326,-339,-947,9,1260,-630,1190,,,,,,,0x03,
3335,-338,-945,9,910,-700,1190,,,,,,,0x03,
3345,-337,-944,7,700,-700,1050,,,,,,,0x03,
3355,-338,-942,8,490,-700,770,,,,,,,0x03,
3364,-340,-942,9,140,-630,630,,,,,,,0x03,
3374,-339,-942,10,-140,-630,490,,,,,,,0x03,
3384,-339,-943,9,-350,-700,210,,,,,,,0x03,
3393,-339,-945,9,-560,-700,0,,,,,,,0x03,
3403,-338,-948,8,-560,-630,-140,,,,,,,0x03,
3412,-337,-949,9,-210,-560,-350,,,,,,,0x03,
3422,-338,-946,8,70,-560,-490,,,,,,,0x03,
3432,-339,-945,8,140,-490,-630,,,,,,,0x03,
3441,-339,-946,9,0,-490,-700,,,,,,,0x03,
3451,-338,-946,9,-70,-420,-840,,,,,,,0x03,
3461,-336,-946,9,-70,-350,-1050,,,,,,,0x03,
3470,-336,-947,10,-210,-280,-1120,,,,,,,0x03,
3480,-336,-951,5,-490,-280,-1190,,,,,,,0x03,
3490,-334,-948,6,-350,-140,-1330,,,,,,,0x03,
3499,-338,-947,13,-70,-140,-1330,,,,,,,0x03,
3509,-340,-948,10,-420,-210,-1120,,,,,,,0x03,
3519,-338,-949,8,-840,-140,-980,,,,,,,0x03,
3528,-337,-954,7,-770,-140,-980,,,,,,,0x03,
3538,-337,-955,8,-420,-70,-910,,,,,,,0x03,
3547,-335,-953,7,-140,-70,-770,,,,,,,0x03,
3557,-335,-953,7,70,-70,-630,,,,,,,0x03,
3567,-337,-951,7,210,-140,-490,,,,,,,0x03,
3576,-337,-951,6,140,-210,-350,,,,,,,0x03,
3586,-335,-951,6,140,-210,-350,,,,,,,0x03,
3596,-337,-950,6,280,-280,-280,,,,,,,0x03,
3605,-338,-947,5,280,-350,-280,,,,,,,0x03,
3615,-337,-947,6,210,-420,-350,,,,,,,0x03,
3625,-337,-947,6,0,-560,-420,,,,,,,0x03,
3634,-337,-947,7,-70,-700,-420,,,,,,,0x03,
3644,-339,-949,6,-210,-770,-420,,,,,,,0x03,
3653,-337,-950,7,-280,-840,-490,,,,,,,0x03,
3663,-336,-949,7,-210,-840,-560,,,,,,,0x03,
3673,-336,-949,6,-70,-910,-560,,,,,,,0x03,
3682,-336,-950,6,-210,-910,-490,,,,,,,0x03,
3692,-337,-950,8,-70,-910,-490,,,,,,,0x03,
3702,-336,-952,9,-140,-980,-350,,,,,,,0x03,
3711,-334,-953,8,-70,-980,-280,,,,,,,0x03,
3721,-335,-952,8,70,-910,-210,,,,,,,0x03,
3731,-334,-950,9,140,-840,-70,,,,,,,0x03,
3740,-334,-950,9,140,-770,0,,,,,,,0x03,
3750,-334,-950,8,70,-700,0,,,,,,,0x03,
3760,-336,-952,8,70,-700,70,,,,,,,0x03,
3769,-335,-951,9,210,-630,140,,,,,,,0x03,
3779,-336,-949,8,350,-630,140,,,,,,,0x03,
3788,-337,-947,9,280,-560,140,,,,,,,0x03,
3798,-337,-946,9,70,-560,140,,,,,,,0x03,
3808,-336,-947,8,-70,-490,0,,,,,,,0x03,
3817,-335,-947,9,-140,-490,-70,,,,,,,0x03,
3827,-335,-947,8,-140,-420,-210,,,,,,,0x03,
3837,-335,-949,8,0,-420,-350,,,,,,,0x03,
3846,-334,-950,6,210,-280,-560,,,,,,,0x03,
3856,-335,-946,7,350,-280,-700,,,,,,,0x03,
3866,-336,-945,10,350,-350,-840,,,,,,,0x03,
3875,-337,-946,9,-70,-350,-840,,,,,,,0x03,
3885,-338,-948,7,-350,-490,-840,,,,,,,0x03,
3894,-337,-952,7,-420,-490,-840,,,,,,,0x03,
3904,-337,-952,8,-210,-490,-840,,,,,,,0x03,
3914,-335,-951,8,-70,-560,-700,,,,,,,0x03,
3923,-335,-951,8,-210,-560,-490,,,,,,,0x03,
3933,-335,-952,7,-350,-560,-280,,,,,,,0x03,
3943,-334,-953,7,-350,-560,-140,,,,,,,0x03,
3952,-336,-953,7,-210,-560,0,,,,,,,0x03,
3962,-335,-953,7,0,-630,140,,,,,,,0x03,
3972,-335,-951,7,210,-630,140,,,,,,,0x03,
3981,-334,-950,7,280,-630,140,,,,,,,0x03,
3991,-334,-947,7,210,-700,70,,,,,,,0x03,
4001,-335,-947,6,210,-700,0,,,,,,,0x03,
4010,-334,-947,7,280,-630,-280,,,,,,,0x03,
4020,-334,-945,6,210,-630,-420,,,,,,,0x03,
4029,-334,-945,7,210,-560,-630,,,,,,,0x03,
4039,-334,-946,6,70,-630,-980,,,,,,,0x03,
4049,-333,-948,7,140,-560,-1190,,,,,,,0x03,
4058,-335,-947,8,280,-560,-1470,,,,,,,0x03,
4068,-336,-946,7,350,-700,-1610,,,,,,,0x03,
4078,-335,-946,7,350,-770,-1820,,,,,,,0x03,
4087,-335,-948,8,70,-840,-1890,,,,,,,0x03,
4097,-334,-949,8,-70,-840,-1960,,,,,,,0x03,
4107,-333,-950,7,-350,-840,-1960,,,,,,,0x03,
4116,-333,-951,9,-280,-910,-1960,,,,,,,0x03,
4126,-335,-952,11,-560,-770,-1750,,,,,,,0x03,
4135,-332,-955,10,-770,-840,-1470,,,,,,,0x03,
4145,-332,-957,9,-630,-770,-1120,,,,,,,0x03,
4155,-331,-956,10,-350,-700,-910,,,,,,,0x03,
4164,-331,-956,10,-210,-630,-560,,,,,,,0x03,
4174,-331,-956,10,-140,-560,-210,,,,,,,0x03,
4184,-331,-954,10,-70,-490,70,,,,,,,0x03,
4193,-331,-953,9,140,-420,280,,,,,,,0x03,
4203,-331,-953,9,140,-350,420,,,,,,,0x03,
4213,-332,-954,9,140,-280,560,,,,,,,0x03,
4222,-333,-951,8,210,-280,630,,,,,,,0x03,
4232,-332,-949,7,210,-280,630,,,,,,,0x03,
4242,-333,-948,7,280,-280,560,,,,,,,0x03,
4251,-333,-947,7,210,-350,490,,,,,,,0x03,
4261,-334,-947,8,70,-420,280,,,,,,,0x03,
4270,-334,-947,8,0,-420,140,,,,,,,0x03,
4280,-334,-947,7,-140,-560,0,,,,,,,0x03,
4290,-333,-948,7,-210,-630,-210,,,,,,,0x03,
4299,-332,-947,6,-210,-630,-280,,,,,,,0x03,
4309,-333,-948,7,-140,-630,-490,,,,,,,0x03,
4319,-333,-949,7,0,-770,-560,,,,,,,0x03,
4328,-333,-949,7,0,-770,-630,,,,,,,0x03,
4338,-332,-951,7,-70,-770,-700,,,,,,,0x03,
4348,-333,-950,8,-140,-840,-700,,,,,,,0x03,
4357,-332,-951,8,-140,-770,-700,,,,,,,0x03,
4367,-334,-951,8,-280,-770,-770,,,,,,,0x03,
4376,-333,-951,8,-280,-840,-700,,,,,,,0x03,
4386,-331,-952,7,-280,-770,-700,,,,,,,0x03,
4396,-332,-952,7,-210,-770,-630,,,,,,,0x03,
4405,-332,-952,8,-140,-770,-630,,,,,,,0x03,
4415,-332,-950,9,0,-770,-630,,,,,,,0x03,
4425,-331,-952,8,0,-770,-560,,,,,,,0x03,
4434,-332,-951,8,-70,-840,-560,,,,,,,0x03,
4444,-331,-953,8,-70,-840,-490,,,,,,,0x03,
4454,-332,-951,8,0,-840,-350,,,,,,,0x03,
4463,-331,-950,8,0,-840,-280,,,,,,,0x03,
4473,-330,-952,8,-140,-840,-210,,,,,,,0x03,
4483,-331,-952,9,-140,-840,-140,,,,,,,0x03,
4492,-330,-953,8,0,-840,0,,,,,,,0x03,
4502,-330,-952,9,0,-840,0,,,,,,,0x03,
4511,-331,-951,9,70,-840,0,,,,,,,0x03,
4521,-331,-951,9,0,-840,70,,,,,,,0x03,
4531,-331,-950,9,0,-840,70,,,,,,,0x03,
4540,-331,-950,9,-70,-770,70,,,,,,,0x03,
4550,-333,-950,9,-70,-700,-70,,,,,,,0x03,
4560,-331,-950,9,-70,-700,-70,,,,,,,0x03,
4569,-332,-950,8,-140,-700,-140,,,,,,,0x03,
4579,-332,-950,8,-140,-700,-210,,,,,,,0x03,
4589,-331,-949,8,-70,-630,-280,,,,,,,0x03,
4598,-332,-950,9,-70,-630,-280,,,,,,,0x03,
4608,-331,-949,8,-70,-630,-420,,,,,,,0x03,
4617,-332,-950,8,-70,-630,-420,,,,,,,0x03,
4627,-332,-952,7,-140,-630,-420,,,,,,,0x03,
4637,-332,-952,8,-140,-700,-490,,,,,,,0x03,
4646,-332,-951,7,-70,-700,-420,,,,,,,0x03,
4656,-331,-951,7,-140,-700,-420,,,,,,,0x03,
4666,-331,-951,8,-210,-700,-420,,,,,,,0x03,
4675,-331,-951,8,-280,-700,-350,,,,,,,0x03,
4685,-332,-952,8,-280,-700,-350,,,,,,,0x03,
4695,-331,-952,7,-280,-700,-420,,,,,,,0x03,
4704,-332,-951,8,-210,-700,-350,,,,,,,0x03,
4714,-330,-952,8,-140,-700,-350,,,,,,,0x03,
4724,-331,-952,7,-140,-630,-420,,,,,,,0x03,
4733,-331,-950,7,-70,-700,-350,,,,,,,0x03,
4743,-332,-950,8,0,-700,-350,,,,,,,0x03,
4752,-331,-950,8,0,-700,-420,,,,,,,0x03,
4762,-331,-950,8,-70,-700,-420,,,,,,,0x03,
4772,-331,-950,8,-140,-700,-490,,,,,,,0x03,
4781,-330,-950,8,-210,-770,-560,,,,,,,0x03,
4791,-330,-950,8,-280,-770,-560,,,,,,,0x03,
4801,-330,-951,8,-350,-770,-630,,,,,,,0x03,
4810,-328,-954,6,-490,-700,-630,,,,,,,0x03,
4820,-326,-954,6,-140,-560,-840,,,,,,,0x03,
4830,-332,-947,13,420,-490,-770,,,,,,,0x03,
4839,-335,-948,12,-140,-700,-490,,,,,,,0x03,
4849,-330,-953,7,-630,-700,-490,,,,,,,0x03,
4858,-329,-957,7,-490,-490,-490,,,,,,,0x03,
4868,-331,-955,7,0,-560,-490,,,,,,,0x03,
4878,-329,-951,6,210,-560,-490,,,,,,,0x03,
4887,-330,-950,7,-70,-630,-350,,,,,,,0x03,
4897,-330,-952,7,-350,-630,-280,,,,,,,0x03,
4907,-330,-953,7,-350,-630,-210,,,,,,,0x03,
4916,-330,-954,8,-280,-630,-140,,,,,,,0x03,
4926,-331,-954,8,-210,-630,-70,,,,,,,0x03,
4936,-329,-953,7,-70,-700,0,,,,,,,0x03,
4945,-329,-952,7,70,-700,0,,,,,,,0x03,
4955,-329,-950,7,-70,-700,70,,,,,,,0x03,
4964,-330,-950,8,-140,-700,140,,,,,,,0x03,
4974,-329,-952,8,-70,-700,70,,,,,,,0x03,
4984,-329,-951,7,0,-700,0,,,,,,,0x03,
4993,-331,-951,8,140,-700,-70,,,,,,,0x03,
5003,-330,-950,8,140,-770,-140,,,,,,,0x03,
5013,-331,-949,7,0,-770,-210,,,,,,,0x03,
5022,-332,-949,8,0,-770,-280,,,,,,,0x03,
5032,-329,-949,8,-140,-770,-350,,,,,,,0x03,
5042,-329,-950,8,-210,-770,-490,,,,,,,0x03,
5051,-329,-951,8,-280,-840,-560,,,,,,,0x03,
5061,-330,-951,7,-280,-840,-630,,,,,,,0x03,
5071,-330,-952,7,-210,-770,-630,,,,,,,0x03,
5080,-329,-952,7,-70,-770,-560,,,,,,,0x03,
5090,-330,-953,8,-70,-770,-560,,,,,,,0x03,
5099,-329,-952,8,-70,-770,-490,,,,,,,0x03,
5109,-329,-952,9,-140,-700,-420,,,,,,,0x03,
5119,-330,-952,8,-210,-700,-420,,,,,,,0x03,
5128,-328,-952,8,-140,-700,-350,,,,,,,0x03,
5138,-329,-953,8,-140,-700,-350,,,,,,,0x03,
5148,-329,-954,8,-210,-700,-280,,,,,,,0x03,
5157,-329,-953,8,-140,-700,-140,,,,,,,0x03,
5167,-329,-951,7,-70,-630,-140,,,,,,,0x03,
5177,-328,-952,7,0,-630,-70,,,,,,,0x03,
5186,-329,-952,8,-70,-630,-70,,,,,,,0x03,
5196,-330,-952,7,-140,-700,0,,,,,,,0x03,
5205,-329,-952,7,-70,-630,70,,,,,,,0x03,
5215,-329,-952,7,0,-630,70,,,,,,,0x03,
5225,-330,-951,8,0,-630,70,,,,,,,0x03,
5234,-330,-951,7,-70,-630,0,,,,,,,0x03,
5244,-330,-952,7,0,-630,-70,,,,,,,0x03,
5254,-330,-950,7,0,-700,-70,,,,,,,0x03,
5263,-331,-950,7,0,-770,-210,,,,,,,0x03,
5273,-329,-950,7,-70,-770,-210,,,,,,,0x03,
5283,-329,-950,7,-70,-770,-280,,,,,,,0x03,
5292,-329,-951,6,-140,-770,-350,,,,,,,0x03,
5302,-330,-952,7,-210,-770,-420,,,,,,,0x03,
5312,-329,-951,7,-140,-770,-490,,,,,,,0x03,
5321,-330,-952,7,-140,-770,-490,,,,,,,0x03,
5331,-329,-953,8,-140,-770,-420,,,,,,,0x03,
5340,-329,-953,8,-140,-840,-420,,,,,,,0x03,
5350,-330,-952,8,-70,-770,-350,,,,,,,0x03,
5360,-330,-953,8,-140,-770,-350,,,,,,,0x03,
5369,-329,-952,8,-70,-770,-280,,,,,,,0x03,
5379,-329,-951,8,-70,-770,-280,,,,,,,0x03,
5389,-329,-952,8,-70,-700,-210,,,,,,,0x03,
5398,-329,-951,7,-140,-700,-140,,,,,,,0x03,
5408,-329,-952,8,-140,-700,-140,,,,,,,0x03,
5418,-329,-952,8,-140,-700,-70,,,,,,,0x03,
5427,-329,-951,8,-140,-700,-70,,,,,,,0x03,
5437,-329,-952,8,-210,-700,-70,,,,,,,0x03,
5446,-329,-952,8,-140,-630,-70,,,,,,,0x03,
5456,-330,-950,8,-70,-700,-70,,,,,,,0x03,
5466,-329,-951,8,-70,-700,-140,,,,,,,0x03,
5475,-328,-951,7,-70,-700,-140,,,,,,,0x03,
5485,-329,-951,7,-70,-630,-140,,,,,,,0x03,
5495,-328,-950,7,-70,-700,-210,,,,,,,0x03,
5504,-328,-950,8,-210,-700,-280,,,,,,,0x03,
5514,-329,-949,7,-210,-630,-210,,,,,,,0x03,
5524,-328,-951,7,-280,-630,-280,,,,,,,0x03,
5533,-330,-953,8,-280,-560,-350,,,,,,,0x03,
5543,-329,-953,7,-280,-560,-280,,,,,,,0x03,
5553,-330,-954,7,-70,-560,-280,,,,,,,0x03,
5562,-329,-952,7,0,-560,-210,,,,,,,0x03,
5572,-329,-953,7,0,-560,-210,,,,,,,0x03,
5581,-330,-952,6,0,-560,-140,,,,,,,0x03,
5591,-329,-952,7,-70,-630,-140,,,,,,,0x03,
5601,-329,-952,7,-140,-630,-70,,,,,,,0x03,
5610,-329,-952,6,-140,-700,0,,,,,,,0x03,
5620,-329,-953,7,-140,-700,0,,,,,,,0x03,
5630,-328,-951,7,-70,-770,0,,,,,,,0x03,
5639,-329,-951,6,-70,-770,0,,,,,,,0x03,
5649,-329,-951,7,-140,-840,0,,,,,,,0x03,
5659,-330,-951,7,-140,-840,0,,,,,,,0x03,
5668,-330,-952,8,-70,-770,-70,,,,,,,0x03,
5678,-328,-951,7,0,-840,-140,,,,,,,0x03,
5687,-329,-951,8,-70,-840,-140,,,,,,,0x03,
5697,-329,-952,8,-70,-840,-140,,,,,,,0x03,
5707,-329,-952,8,0,-840,-210,,,,,,,0x03,
5716,-328,-952,9,70,-840,-210,,,,,,,0x03,
5726,-329,-952,8,0,-840,-210,,,,,,,0x03,
5736,-329,-950,8,0,-770,-280,,,,,,,0x03,
5745,-330,-952,7,-70,-840,-280,,,,,,,0x03,
5755,-329,-951,8,-210,-770,-280,,,,,,,0x03,
5765,-328,-952,7,-140,-700,-280,,,,,,,0x03,
5774,-328,-951,8,-140,-700,-280,,,,,,,0x03,
5784,-328,-951,8,-140,-700,-210,,,,,,,0x03,
5794,-329,-952,8,-140,-700,-140,,,,,,,0x03,
5803,-329,-951,7,-70,-630,-140,,,,,,,0x03,
5813,-329,-952,8,-70,-700,-140,,,,,,,0x03,
5822,-329,-953,7,-70,-630,0,,,,,,,0x03,
5832,-329,-953,7,0,-630,0,,,,,,,0x03,
5842,-329,-952,7,0,-630,70,,,,,,,0x03,
5851,-327,-952,7,70,-700,70,,,,,,,0x03,
5861,-328,-953,6,0,-700,70,,,,,,,0x03,
5871,-330,-953,6,70,-700,70,,,,,,,0x03,
5880,-331,-953,6,210,-770,140,,,,,,,0x03,
5890,-329,-952,6,350,-840,210,,,,,,,0x03,
5900,-328,-952,8,350,-840,140,,,,,,,0x03,
5909,-328,-950,7,280,-910,70,,,,,,,0x03,
5919,-329,-949,8,280,-980,0,,,,,,,0x03,
5928,-330,-949,8,140,-980,-70,,,,,,,0x03,
5938,-330,-949,7,0,-1050,-140,,,,,,,0x03,
5948,-330,-948,8,-140,-1050,-280,,,,,,,0x03,
5957,-329,-949,8,-140,-1050,-350,,,,,,,0x03,
5967,-330,-949,10,-280,-980,-420,,,,,,,0x03,
5977,-329,-951,8,-490,-1050,-420,,,,,,,0x03,
5986,-329,-953,8,-490,-980,-420,,,,,,,0x03,
5996,-328,-951,7,-420,-910,-420,,,,,,,0x03,
6006,-328,-951,9,-210,-910,-420,,,,,,,0x03,
6015,-329,-951,9,-210,-840,-420,,,,,,,0x03,
6025,-330,-949,9,-350,-840,-350,,,,,,,0x03,
6035,-329,-948,9,-560,-840,-350,,,,,,,0x03,
6044,-330,-950,10,-980,-770,-280,,,,,,,0x03,
6054,-329,-951,7,-1400,-700,-280,,,,,,,0x03,
6063,-326,-949,7,-1330,-700,-280,,,,,,,0x03,
6073,-329,-949,9,-1750,-560,-280,,,,,,,0x03,
6083,-327,-954,8,-1960,-630,-210,,,,,,,0x03,
6092,-328,-956,6,-1750,-560,-210,,,,,,,0x03,
6102,-328,-955,5,-1190,-560,-210,,,,,,,0x03,
6112,-329,-954,6,-700,-560,-210,,,,,,,0x03,
6121,-329,-950,5,-490,-560,-280,,,,,,,0x03,
6131,-328,-948,4,-490,-630,-280,,,,,,,0x03,
6141,-330,-947,4,-840,-630,-350,,,,,,,0x03,
6150,-329,-949,5,-1330,-770,-350,,,,,,,0x03,
6160,-328,-950,5,-1750,-770,-350,,,,,,,0x03,
6169,-327,-953,5,-1750,-840,-420,,,,,,,0x03,
6179,-327,-953,4,-1610,-840,-420,,,,,,,0x03,
6189,-328,-955,2,-1260,-840,-420,,,,,,,0x03,
6198,-328,-954,5,-770,-840,-490,,,,,,,0x03,
6208,-329,-950,5,-560,-840,-490,,,,,,,0x03,
6218,-329,-948,4,-420,-980,-560,,,,,,,0x03,
6227,-330,-948,4,-770,-1050,-560,,,,,,,0x03,
6237,-330,-950,4,-1190,-1050,-630,,,,,,,0x03,
6247,-327,-952,4,-1470,-980,-700,,,,,,,0x03,
6256,-326,-952,4,-1610,-980,-770,,,,,,,0x03,
6266,-326,-953,4,-1540,-980,-770,,,,,,,0x03,
6276,-324,-955,3,-1330,-910,-840,,,,,,,0x03,
6285,-326,-956,4,-980,-770,-910,,,,,,,0x03,
6295,-327,-955,3,-630,-770,-910,,,,,,,0x03,
6304,-326,-955,2,-350,-700,-840,,,,,,,0x03,
6314,-327,-953,3,-140,-700,-840,,,,,,,0x03,
6324,-328,-953,2,-70,-700,-770,,,,,,,0x03,
6333,-329,-948,4,-140,-770,-700,,,,,,,0x03,
6343,-329,-949,3,-700,-840,-560,,,,,,,0x03,
6353,-326,-954,4,-1260,-770,-350,,,,,,,0x03,
6362,-325,-951,4,-1470,-700,70,,,,,,,0x03,
6372,-326,-959,4,-1540,-630,630,,,,,,,0x03,
6382,-327,-961,3,-1470,-700,140,,,,,,,0x03,
6391,-327,-955,2,-840,-630,140,,,,,,,0x03,
6401,-326,-955,3,-420,-560,280,,,,,,,0x03,
6410,-325,-953,2,-420,-630,350,,,,,,,0x03,
6420,-326,-952,2,-350,-490,420,,,,,,,0x03,
6430,-327,-952,1,-350,-490,280,,,,,,,0x03,
6439,-326,-949,1,-210,-420,140,,,,,,,0x03,
6449,-328,-948,1,-350,-420,140,,,,,,,0x03,
6459,-327,-949,0,-560,-560,0,,,,,,,0x03,
6468,-327,-950,0,-840,-630,-210,,,,,,,0x03,
6478,-328,-952,0,-840,-630,-350,,,,,,,0x03,
6488,-328,-951,0,-630,-700,-560,,,,,,,0x03,
6497,-329,-950,0,-560,-770,-630,,,,,,,0x03,
6507,-329,-953,0,-770,-910,-630,,,,,,,0x03,
6517,-327,-956,0,-700,-980,-700,,,,,,,0x03,
6526,-327,-954,0,-280,-1050,-770,,,,,,,0x03,
6536,-328,-954,0,-70,-1190,-700,,,,,,,0x03,
6545,-327,-953,0,-140,-1260,-630,,,,,,,0x03,
6555,-326,-955,2,-210,-1330,-490,,,,,,,0x03,
6565,-327,-955,0,-490,-1470,-350,,,,,,,0x03,
6574,-324,-957,0,-350,-1400,-210,,,,,,,0x03,
6584,-325,-957,2,-70,-1260,-140,,,,,,,0x03,
6594,-326,-955,3,70,-1260,70,,,,,,,0x03,
6603,-326,-954,3,0,-1260,210,,,,,,,0x03,
6613,-326,-954,3,-70,-1120,350,,,,,,,0x03,
6623,-326,-956,4,-70,-1050,420,,,,,,,0x03,
6632,-324,-953,3,140,-910,490,,,,,,,0x03,
6642,-326,-951,4,350,-700,490,,,,,,,0x03,
6651,-328,-950,3,280,-700,420,,,,,,,0x03,
6661,-326,-950,3,140,-560,420,,,,,,,0x03,
6671,-326,-951,2,70,-490,280,,,,,,,0x03,
6680,-327,-950,1,210,-350,140,,,,,,,0x03,
6690,-330,-950,1,280,-280,70,,,,,,,0x03,
6700,-329,-949,1,70,-280,0,,,,,,,0x03,
6709,-327,-948,2,-140,-210,-140,,,,,,,0x03,
6719,-328,-948,2,-280,-210,-210,,,,,,,0x03,
6729,-328,-950,2,-420,-140,-420,,,,,,,0x03,
6738,-328,-951,2,-420,-140,-490,,,,,,,0x03,
6748,-327,-953,0,-490,-210,-560,,,,,,,0x03,
6758,-326,-953,0,-490,-280,-490,,,,,,,0x03,
6767,-327,-952,0,-420,-280,-630,,,,,,,0x03,
6777,-328,-951,0,-350,-350,-700,,,,,,,0x03,
6786,-329,-954,0,-560,-420,-560,,,,,,,0x03,
6796,-327,-953,0,-420,-490,-560,,,,,,,0x03,
6806,-327,-952,0,-210,-560,-630,,,,,,,0x03,
6815,-328,-952,0,-350,-630,-560,,,,,,,0x03,
6825,-327,-953,0,-420,-700,-560,,,,,,,0x03,
6835,-326,-953,0,-420,-770,-560,,,,,,,0x03,
6844,-327,-954,0,-350,-700,-560,,,,,,,0x03,
6854,-325,-956,0,-280,-700,-490,,,,,,,0x03,
6864,-325,-955,1,-140,-700,-420,,,,,,,0x03,
6873,-325,-956,1,70,-700,-350,,,,,,,0x03,
6883,-325,-955,0,210,-630,-350,,,,,,,0x03,
6892,-325,-955,0,420,-630,-280,,,,,,,0x03,
6902,-325,-954,0,630,-560,-350,,,,,,,0x03,
6912,-326,-952,0,770,-560,-280,,,,,,,0x03,
6921,-326,-953,1,630,-630,-350,,,,,,,0x03,
6931,-327,-952,0,560,-700,-350,,,,,,,0x03,
6941,-327,-951,1,560,-630,-350,,,,,,,0x03,
6950,-326,-951,1,420,-700,-420,,,,,,,0x03,
6960,-328,-952,2,140,-700,-350,,,,,,,0x03,
6970,-327,-953,2,70,-700,-350,,,,,,,0x03,
6979,-328,-954,1,140,-770,-350,,,,,,,0x03,
6989,-327,-955,1,70,-770,-210,,,,,,,0x03,
6998,-327,-955,2,140,-770,-70,,,,,,,0x03,
7008,-326,-954,2,70,-840,0,,,,,,,0x03,
7018,-325,-954,2,70,-770,70,,,,,,,0x03,
7027,-326,-955,2,140,-770,210,,,,,,,0x03,
7037,-325,-954,1,140,-700,280,,,,,,,0x03,
7047,-325,-953,0,420,-700,280,,,,,,,0x03,
7056,-326,-952,1,490,-770,280,,,,,,,0x03,
7066,-326,-952,1,420,-770,280,,,,,,,0x03,
7076,-325,-951,2,420,-770,280,,,,,,,0x03,
7085,-325,-951,1,280,-840,210,,,,,,,0x03,
7095,-327,-952,1,210,-840,140,,,,,,,0x03,
7105,-326,-953,1,210,-910,70,,,,,,,0x03,
7114,-326,-952,2,420,-910,-70,,,,,,,0x03,
7124,-324,-952,1,630,-910,-140,,,,,,,0x03,
7133,-325,-952,2,770,-840,-280,,,,,,,0x03,
7143,-326,-952,1,910,-910,-350,,,,,,,0x03,
7153,-328,-949,1,980,-980,-490,,,,,,,0x03,
7162,-327,-949,2,1120,-980,-630,,,,,,,0x03,
7172,-329,-949,2,910,-1050,-700,,,,,,,0x03,
7182,-327,-949,2,630,-1120,-770,,,,,,,0x03,
7191,-327,-949,3,350,-1120,-840,,,,,,,0x03,
7201,-327,-951,4,-70,-1190,-700,,,,,,,0x03,
7211,-326,-953,3,-350,-1190,-700,,,,,,,0x03,
7220,-326,-954,4,-420,-1120,-630,,,,,,,0x03,
7230,-326,-956,5,-490,-1120,-490,,,,,,,0x03,
7239,-325,-957,4,-350,-1050,-350,,,,,,,0x03,
7249,-324,-956,4,-140,-980,-210,,,,,,,0x03,
7259,-324,-955,4,0,-910,-70,,,,,,,0x03,
7268,-325,-955,4,70,-840,70,,,,,,,0x03,
7278,-325,-954,4,70,-700,210,,,,,,,0x03,
7288,-323,-954,4,70,-700,210,,,,,,,0x03,
7297,-326,-952,5,0,-630,280,,,,,,,0x03,
7307,-326,-952,5,-140,-560,280,,,,,,,0x03,
7317,-326,-951,4,-210,-630,280,,,,,,,0x03,
7326,-327,-951,3,-280,-560,210,,,,,,,0x03,
7336,-325,-952,3,-350,-560,140,,,,,,,0x03,
7346,-326,-954,2,-280,-560,0,,,,,,,0x03,
7355,-326,-952,2,-70,-560,0,,,,,,,0x03,
7365,-327,-951,1,70,-630,-140,,,,,,,0x03,
7374,-328,-952,0,70,-700,-140,,,,,,,0x03,
7384,-329,-953,0,140,-910,-210,,,,,,,0x03,
7394,-329,-953,-1,210,-1190,-280,,,,,,,0x03,
7403,-328,-952,-1,210,-1400,-350,,,,,,,0x03,
7413,-328,-951,0,70,-1540,-350,,,,,,,0x03,
7423,-328,-950,2,-210,-1750,-350,,,,,,,0x03,
7432,-328,-952,2,-490,-1820,-280,,,,,,,0x03,
7442,-325,-954,4,-840,-1820,-210,,,,,,,0x03,
7452,-324,-955,5,-840,-1750,-140,,,,,,,0x03,
7461,-324,-957,6,-560,-1680,-70,,,,,,,0x03,
7471,-323,-956,6,-280,-1610,70,,,,,,,0x03,
7480,-324,-957,6,70,-1470,210,,,,,,,0x03,
7490,-325,-956,7,280,-1330,350,,,,,,,0x03,
7500,-323,-955,6,280,-1120,420,,,,,,,0x03,
7509,-325,-954,6,210,-980,630,,,,,,,0x03,
7519,-325,-952,6,210,-770,700,,,,,,,0x03,
7529,-325,-951,6,70,-700,770,,,,,,,0x03,
7538,-326,-952,4,140,-560,700,,,,,,,0x03,
7548,-326,-952,5,140,-420,700,,,,,,,0x03,
7558,-327,-951,4,210,-350,630,,,,,,,0x03,
7567,-326,-950,4,280,-280,560,,,,,,,0x03,
7577,-328,-949,4,210,-280,350,,,,,,,0x03,
7587,-328,-950,2,210,-280,210,,,,,,,0x03,
7596,-329,-950,2,210,-280,0,,,,,,,0x03,
7606,-329,-950,3,280,-350,-210,,,,,,,0x03,
7615,-330,-949,2,420,-490,-420,,,,,,,0x03,
7625,-328,-950,2,420,-630,-630,,,,,,,0x03,
7635,-329,-950,2,350,-700,-770,,,,,,,0x03,
7644,-328,-950,2,210,-840,-910,,,,,,,0x03,
7654,-327,-952,3,140,-910,-980,,,,,,,0x03,
7664,-327,-952,4,0,-910,-980,,,,,,,0x03,
7673,-327,-953,3,-70,-1050,-1050,,,,,,,0x03,
7683,-326,-954,4,-140,-1120,-980,,,,,,,0x03,
7693,-326,-957,4,-70,-1120,-840,,,,,,,0x03,
7702,-326,-957,4,70,-1190,-770,,,,,,,0x03,
7712,-326,-956,2,280,-1260,-560,,,,,,,0x03,
7721,-325,-956,4,350,-1260,-350,,,,,,,0x03,
7731,-327,-953,4,350,-1330,-210,,,,,,,0x03,
7741,-327,-954,5,280,-1400,0,,,,,,,0x03,
7750,-326,-953,6,70,-1400,140,,,,,,,0x03,
7760,-327,-953,7,-140,-1400,210,,,,,,,0x03,
7770,-326,-953,6,-280,-1190,350,,,,,,,0x03,
7779,-325,-952,6,-140,-1260,210,,,,,,,0x03,
7789,-325,-953,9,-210,-980,280,,,,,,,0x03,
7799,-325,-950,9,-350,-840,280,,,,,,,0x03,
7808,-326,-951,9,-350,-700,350,,,,,,,0x03,
7818,-324,-951,9,-490,-420,350,,,,,,,0x03,
7828,-324,-953,8,-490,-210,350,,,,,,,0x03,
7837,-325,-952,8,-420,0,350,,,,,,,0x03,
7847,-326,-952,6,-420,140,350,,,,,,,0x03,
7856,-326,-952,7,-490,350,420,,,,,,,0x03,
7866,-326,-951,6,-490,420,420,,,,,,,0x03,
7876,-327,-953,4,-490,490,420,,,,,,,0x03,
7885,-327,-954,3,-490,560,490,,,,,,,0x03,
7895,-328,-955,2,-350,490,420,,,,,,,0x03,
7905,-330,-954,1,-210,350,420,,,,,,,0x03,
7914,-330,-952,0,70,210,420,,,,,,,0x03,
7924,-330,-952,-1,140,0,350,,,,,,,0x03,
7934,-329,-952,0,-70,-280,280,,,,,,,0x03,
7943,-330,-950,-1,-140,-490,140,,,,,,,0x03,
7953,-329,-948,-1,-140,-770,70,,,,,,,0x03,
7962,-330,-949,-1,-350,-1050,-140,,,,,,,0x03,
7972,-330,-951,0,-420,-1260,-280,,,,,,,0x03,
7982,-330,-951,0,-350,-1470,-490,,,,,,,0x03,
7991,-329,-950,1,-280,-1610,-630,,,,,,,0x03,
8001,-328,-950,2,-210,-1750,-840,,,,,,,0x03,
8011,-327,-951,3,-210,-1890,-910,,,,,,,0x03,
8020,-327,-953,4,-350,-1890,-1050,,,,,,,0x03,
8030,-327,-952,5,-350,-1820,-1050,,,,,,,0x03,
8040,-326,-952,6,-280,-1680,-1050,,,,,,,0x03,
8049,-323,-953,8,-280,-1540,-1050,,,,,,,0x03,
8059,-323,-955,9,-280,-1330,-1050,,,,,,,0x03,
8069,-322,-955,9,-210,-980,-910,,,,,,,0x03,
8078,-322,-955,9,-210,-700,-770,,,,,,,0x03,
8088,-323,-956,9,-70,-420,-630,,,,,,,0x03,
8097,-322,-955,9,0,-70,-560,,,,,,,0x03,
8107,-323,-955,9,210,210,-490,,,,,,,0x03,
8117,-325,-952,7,210,420,-350,,,,,,,0x03,
8126,-326,-953,5,-70,560,-210,,,,,,,0x03,
8136,-327,-955,4,-140,630,-140,,,,,,,0x03,
8146,-326,-955,2,0,700,-70,,,,,,,0x03,
8155,-326,-955,0,210,630,-70,,,,,,,0x03,
8165,-329,-953,0,420,420,-70,,,,,,,0x03,
8175,-330,-952,0,490,280,-70,,,,,,,0x03,
8184,-328,-949,-1,420,0,-140,,,,,,,0x03,
8194,-328,-948,0,140,-280,-280,,,,,,,0x03,
8203,-329,-949,1,-280,-490,-350,,,,,,,0x03,
8213,-327,-949,2,-700,-630,-420,,,,,,,0x03,
8223,-325,-949,2,-980,-700,-560,,,,,,,0x03,
8232,-323,-951,3,-1120,-700,-630,,,,,,,0x03,
8242,-323,-955,3,-1190,-630,-770,,,,,,,0x03,
8252,-323,-956,5,-980,-560,-770,,,,,,,0x03,
8261,-323,-955,6,-630,-420,-770,,,,,,,0x03,
8271,-321,-955,5,-280,-280,-630,,,,,,,0x03,
8281,-324,-956,6,-140,-140,-560,,,,,,,0x03,
8290,-323,-955,5,70,70,-490,,,,,,,0x03,
8300,-324,-954,5,280,280,-350,,,,,,,0x03,
8310,-324,-956,4,140,420,-210,,,,,,,0x03,
8319,-324,-955,4,70,490,-70,,,,,,,0x03,
8329,-324,-955,5,210,630,70,,,,,,,0x03,
8338,-324,-955,2,210,700,70,,,,,,,0x03,
8348,-323,-955,3,210,840,140,,,,,,,0x03,
8358,-325,-955,1,350,840,350,,,,,,,0x03,
8367,-325,-953,2,490,770,350,,,,,,,0x03,
8377,-327,-953,1,420,700,490,,,,,,,0x03,
8387,-326,-954,0,560,560,490,,,,,,,0x03,
8396,-327,-953,0,490,420,490,,,,,,,0x03,
8406,-328,-953,0,490,280,420,,,,,,,0x03,
8416,-328,-953,0,350,140,490,,,,,,,0x03,
8425,-327,-951,0,140,-70,560,,,,,,,0x03,
8435,-329,-954,0,70,-280,560,,,,,,,0x03,
8444,-328,-954,0,140,-490,490,,,,,,,0x03,
8454,-328,-954,-1,210,-770,490,,,,,,,0x03,
8464,-327,-955,-2,350,-980,560,,,,,,,0x03,
8473,-329,-954,-1,420,-1120,560,,,,,,,0x03,
8483,-328,-952,0,490,-1330,560,,,,,,,0x03,
8493,-328,-951,0,420,-1540,560,,,,,,,0x03,
8502,-329,-951,0,350,-1820,490,,,,,,,0x03,
8512,-329,-952,1,210,-1890,490,,,,,,,0x03,
8522,-328,-952,1,140,-2030,490,,,,,,,0x03,
8531,-327,-952,2,140,-2100,420,,,,,,,0x03,
8541,-327,-953,2,210,-2170,420,,,,,,,0x03,
8551,-327,-952,3,420,-2170,350,,,,,,,0x03,
8560,-328,-953,4,490,-2170,420,,,,,,,0x03,
8570,-327,-951,5,560,-2170,350,,,,,,,0x03,
8579,-327,-951,6,560,-2170,350,,,,,,,0x03,
8589,-326,-951,7,560,-2030,280,,,,,,,0x03,
8599,-328,-950,7,560,-1960,140,,,,,,,0x03,
8608,-327,-949,7,560,-1890,70,,,,,,,0x03,
8618,-327,-949,8,490,-1680,0,,,,,,,0x03,
8628,-327,-949,8,210,-1540,-140,,,,,,,0x03,
8637,-326,-949,8,70,-1400,-210,,,,,,,0x03,
8647,-327,-949,7,0,-1260,-280,,,,,,,0x03,
8657,-328,-952,8,-210,-1120,-350,,,,,,,0x03,
8666,-327,-950,8,-140,-980,-350,,,,,,,0x03,
8676,-326,-952,9,-140,-770,-350,,,,,,,0x03,
8685,-325,-953,9,-140,-630,-350,,,,,,,0x03,
8695,-325,-952,7,70,-490,-420,,,,,,,0x03,
8705,-326,-952,6,210,-350,-420,,,,,,,0x03,
8714,-328,-952,5,280,-280,-420,,,,,,,0x03,
8724,-327,-952,6,280,-210,-490,,,,,,,0x03,
8734,-328,-950,6,210,-280,-490,,,,,,,0x03,
8743,-328,-950,6,0,-210,-490,,,,,,,0x03,
8753,-328,-952,6,-210,-210,-490,,,,,,,0x03,
8763,-327,-952,6,-350,-210,-490,,,,,,,0x03,
8772,-327,-952,5,-420,-140,-490,,,,,,,0x03,
8782,-328,-952,5,-350,-210,-490,,,,,,,0x03,
8792,-326,-953,5,-140,-210,-490,,,,,,,0x03,
8801,-326,-954,4,-70,-210,-490,,,,,,,0x03,
8811,-327,-954,4,0,-280,-420,,,,,,,0x03,
8820,-327,-953,5,0,-280,-420,,,,,,,0x03,
8830,-326,-953,4,-140,-280,-350,,,,,,,0x03,
8840,-326,-953,4,-210,-280,-350,,,,,,,0x03,
8849,-327,-954,5,-280,-280,-280,,,,,,,0x03,
8859,-326,-955,4,-350,-280,-210,,,,,,,0x03,
8869,-326,-955,4,-140,-350,-140,,,,,,,0x03,
8878,-327,-955,4,-70,-350,0,,,,,,,0x03,
8888,-328,-953,4,0,-350,70,,,,,,,0x03,
8898,-327,-954,5,0,-350,210,,,,,,,0x03,
8907,-326,-953,5,-140,-350,280,,,,,,,0x03,
8917,-327,-953,6,-210,-280,350,,,,,,,0x03,
8926,-327,-955,5,-210,-210,350,,,,,,,0x03,
8936,-326,-954,5,-70,-280,350,,,,,,,0x03,
8946,-326,-952,4,70,-210,420,,,,,,,0x03,
8955,-328,-952,4,140,-210,350,,,,,,,0x03,
8965,-329,-951,4,210,-210,350,,,,,,,0x03,
8975,-329,-950,4,140,-280,350,,,,,,,0x03,
8984,-329,-950,3,-70,-280,350,,,,,,,0x03,
8994,-329,-951,2,-210,-350,280,,,,,,,0x03,
9004,-329,-951,2,-140,-490,210,,,,,,,0x03,
9013,-330,-952,2,-70,-630,140,,,,,,,0x03,
9023,-329,-954,-1,0,-770,0,,,,,,,0x03,
9032,-327,-955,4,420,-840,-140,,,,,,,0x03,
9042,-331,-950,5,490,-980,-70,,,,,,,0x03,
9052,-331,-948,5,140,-1120,0,,,,,,,0x03,
9061,-328,-950,5,-280,-1120,-70,,,,,,,0x03,
9071,-326,-953,4,-350,-1120,-210,,,,,,,0x03,
9081,-327,-952,5,-140,-1120,-210,,,,,,,0x03,
9090,-327,-951,5,0,-1120,-280,,,,,,,0x03,
9100,-326,-953,6,70,-1050,-280,,,,,,,0x03,
9110,-327,-952,6,70,-980,-350,,,,,,,0x03,
9119,-326,-950,7,140,-910,-420,,,,,,,0x03,
9129,-327,-950,8,70,-770,-490,,,,,,,0x03,
9139,-328,-950,7,-140,-700,-560,,,,,,,0x03,
9148,-327,-952,7,-280,-560,-560,,,,,,,0x03,
9158,-327,-952,7,-350,-420,-560,,,,,,,0x03,
9167,-327,-953,7,-350,-280,-490,,,,,,,0x03,
9177,-326,-953,6,-280,-210,-420,,,,,,,0x03,
9187,-326,-953,5,-140,-210,-420,,,,,,,0x03,
9196,-327,-955,4,-70,-210,-350,,,,,,,0x03,
9206,-329,-956,3,-70,-350,-210,,,,,,,0x03,
9216,-328,-956,3,70,-420,-70,,,,,,,0x03,
9225,-329,-953,2,70,-490,140,,,,,,,0x03,
9235,-329,-954,3,-70,-560,280,,,,,,,0x03,
9245,-328,-954,3,-140,-700,350,,,,,,,0x03,
9254,-329,-954,2,-140,-770,420,,,,,,,0x03,
9264,-328,-953,3,-140,-910,490,,,,,,,0x03,
9273,-328,-953,3,0,-980,560,,,,,,,0x03,
9283,-329,-952,3,0,-1120,490,,,,,,,0x03,
9293,-328,-951,4,0,-1120,560,,,,,,,0x03,
9302,-328,-950,5,0,-1120,420,,,,,,,0x03,
9312,-328,-950,4,0,-1190,350,,,,,,,0x03,
9322,-328,-950,6,0,-1190,210,,,,,,,0x03,
9331,-327,-950,6,-70,-1190,70,,,,,,,0x03,
9341,-327,-949,7,0,-1120,-70,,,,,,,0x03,
9351,-326,-951,6,140,-980,-140,,,,,,,0x03,
9360,-327,-952,7,140,-910,-350,,,,,,,0x03,
9370,-328,-951,7,210,-840,-420,,,,,,,0x03,
9380,-327,-952,7,210,-700,-420,,,,,,,0x03,
9389,-327,-952,7,210,-630,-420,,,,,,,0x03,
9399,-327,-953,7,210,-560,-420,,,,,,,0x03,
9408,-328,-953,6,280,-560,-420,,,,,,,0x03,
9418,-328,-954,5,420,-490,-350,,,,,,,0x03,
9428,-328,-953,4,350,-490,-280,,,,,,,0x03,
9437,-327,-952,6,280,-490,-210,,,,,,,0x03,
9447,-329,-953,5,140,-560,-140,,,,,,,0x03,
9457,-327,-955,4,140,-630,0,,,,,,,0x03,
9466,-329,-956,4,210,-560,0,,,,,,,0x03,
9476,-328,-956,4,350,-560,70,,,,,,,0x03,
9486,-326,-955,6,490,-630,140,,,,,,,0x03,
9495,-328,-954,5,700,-630,280,,,,,,,0x03,
9505,-330,-953,5,700,-700,420,,,,,,,0x03,
9514,-330,-952,4,630,-770,420,,,,,,,0x03,
9524,-328,-951,4,630,-840,350,,,,,,,0x03,
9534,-328,-949,3,630,-980,350,,,,,,,0x03,
9543,-331,-950,4,350,-1050,350,,,,,,,0x03,
9553,-330,-951,5,70,-1120,350,,,,,,,0x03,
9563,-329,-951,6,-70,-1190,420,,,,,,,0x03,
9572,-328,-949,6,-70,-1190,350,,,,,,,0x03,
9582,-328,-949,8,-140,-1190,350,,,,,,,0x03,
9592,-329,-954,9,-420,-1190,420,,,,,,,0x03,
9601,-327,-957,8,-350,-1120,560,,,,,,,0x03,
9611,-327,-956,8,70,-980,700,,,,,,,0x03,
9621,-328,-954,7,350,-910,840,,,,,,,0x03,
9630,-328,-954,9,350,-840,980,,,,,,,0x03,
9640,-328,-953,8,280,-770,1120,,,,,,,0x03,
9649,-328,-953,8,140,-630,1190,,,,,,,0x03,
9659,-330,-953,9,0,-560,1330,,,,,,,0x03,
9669,-330,-954,9,0,-560,1400,,,,,,,0x03,
9678,-330,-952,8,70,-420,1400,,,,,,,0x03,
9688,-330,-952,7,280,-420,1400,,,,,,,0x03,
9698,-331,-950,6,490,-350,1330,,,,,,,0x03,
9707,-332,-949,6,630,-350,1260,,,,,,,0x03,
9717,-332,-946,6,700,-350,1050,,,,,,,0x03,
9727,-333,-945,7,560,-420,910,,,,,,,0x03,
9736,-334,-944,6,350,-490,630,,,,,,,0x03,
9746,-332,-945,5,0,-560,420,,,,,,,0x03,
9755,-333,-946,5,-140,-560,210,,,,,,,0x03,
9765,-333,-947,5,-140,-630,-70,,,,,,,0x03,
9775,-333,-946,5,0,-770,-350,,,,,,,0x03,
9784,-331,-946,6,0,-840,-560,,,,,,,0x03,
9794,-334,-947,7,-140,-840,-840,,,,,,,0x03,
9804,-333,-948,7,-210,-910,-980,,,,,,,0x03,
9813,-332,-950,8,-350,-910,-1050,,,,,,,0x03,
9823,-331,-951,8,-350,-910,-1120,,,,,,,0x03,
9833,-331,-952,8,-350,-840,-1050,,,,,,,0x03,
9842,-330,-954,8,-280,-840,-910,,,,,,,0x03,
9852,-330,-955,8,-140,-770,-840,,,,,,,0x03,
9862,-330,-955,8,-70,-700,-630,,,,,,,0x03,
9871,-331,-956,9,0,-700,-420,,,,,,,0x03,
9881,-331,-955,7,70,-630,-210,,,,,,,0x03,
9890,-331,-953,8,70,-560,0,,,,,,,0x03,
9900,-331,-953,7,70,-560,140,,,,,,,0x03,
9910,-332,-952,8,70,-560,280,,,,,,,0x03,
9919,-331,-952,7,0,-560,350,,,,,,,0x03,
9929,-331,-950,8,-70,-560,420,,,,,,,0x03,
9939,-330,-950,8,-140,-560,420,,,,,,,0x03,
9948,-332,-950,8,-210,-560,420,,,,,,,0x03,
9958,-332,-950,7,-210,-560,350,,,,,,,0x03,
9968,-331,-948,7,-210,-560,280,,,,,,,0x03,
9977,-332,-947,6,-210,-630,140,,,,,,,0x03,
9987,-332,-948,7,-140,-630,-70,,,,,,,0x03,
9996,-332,-949,6,-140,-630,-280,,,,,,,0x03,
10006,-331,-949,6,-140,-630,-420,,,,,,,0x03,
10016,-332,-949,6,-210,-700,-490,,,,,,,0x03,
10025,-332,-951,7,-140,-770,-560,,,,,,,0x03,
10035,-332,-952,6,-70,-770,-630,,,,,,,0x03,
10045,-331,-951,6,0,-840,-630,,,,,,,0x03,
10054,-331,-952,7,-70,-910,-700,,,,,,,0x03,
10064,-331,-951,6,-70,-910,-630,,,,,,,0x03,
10074,-332,-952,7,-210,-910,-630,,,,,,,0x03,
10083,-331,-952,7,-210,-980,-560,,,,,,,0x03,
10093,-330,-952,8,-280,-910,-490,,,,,,,0x03,
10103,-331,-953,7,-350,-910,-420,,,,,,,0x03,
10112,-330,-953,7,-280,-910,-280,,,,,,,0x03,
10122,-330,-954,8,-140,-840,-210,,,,,,,0x03,
10131,-329,-952,7,0,-770,-140,,,,,,,0x03,
10141,-330,-951,8,140,-770,-70,,,,,,,0x03,
10151,-330,-951,7,210,-770,-70,,,,,,,0x03,
10160,-330,-951,8,210,-700,-70,,,,,,,0x03,
10170,-331,-950,7,140,-630,-70,,,,,,,0x03,
10180,-331,-950,7,70,-630,0,,,,,,,0x03,
10189,-330,-951,7,0,-630,-140,,,,,,,0x03,
10199,-330,-949,6,0,-700,-210,,,,,,,0x03,
10209,-332,-950,7,-70,-700,-210,,,,,,,0x03,
10218,-331,-950,7,-140,-770,-280,,,,,,,0x03,
10228,-331,-953,7,-210,-770,-350,,,,,,,0x03,
10237,-332,-951,7,-140,-770,-280,,,,,,,0x03,
10247,-331,-952,8,-140,-840,-350,,,,,,,0x03,
10257,-331,-951,7,-70,-770,-280,,,,,,,0x03,
10266,-330,-951,7,-70,-770,-280,,,,,,,0x03,
10276,-330,-952,7,0,-770,-280,,,,,,,0x03,
10286,-330,-952,8,70,-770,-280,,,,,,,0x03,
10295,-330,-951,8,0,-770,-280,,,,,,,0x03,
10305,-330,-950,7,0,-770,-350,,,,,,,0x03,
10315,-331,-950,8,-70,-770,-280,,,,,,,0x03,
10324,-331,-951,7,-210,-770,-350,,,,,,,0x03,
10334,-331,-951,8,-140,-770,-280,,,,,,,0x03,
10344,-330,-951,7,-140,-700,-280,,,,,,,0x03,
10353,-330,-951,8,-140,-770,-280,,,,,,,0x03,
10363,-330,-952,8,-210,-770,-280,,,,,,,0x03,
10372,-329,-952,8,-210,-700,-280,,,,,,,0x03,
10382,-329,-951,8,-140,-700,-280,,,,,,,0x03,
10392,-330,-951,7,-70,-630,-210,,,,,,,0x03,
10401,-330,-951,7,-70,-630,-140,,,,,,,0x03,
10411,-330,-952,7,-140,-630,-140,,,,,,,0x03,
10421,-329,-952,7,-140,-630,-70,,,,,,,0x03,
10430,-330,-950,7,-210,-630,-70,,,,,,,0x03,
10440,-329,-951,8,-350,-630,-70,,,,,,,0x03,
10450,-329,-952,7,-420,-560,70,,,,,,,0x03,
10459,-330,-951,8,-350,-560,0,,,,,,,0x03,
10469,-331,-952,7,-210,-560,0,,,,,,,0x03,
10478,-331,-952,7,-140,-490,0,,,,,,,0x03,
10488,-330,-952,6,0,-560,0,,,,,,,0x03,
10498,-330,-951,6,0,-560,70,,,,,,,0x03,
10507,-331,-952,7,-70,-630,70,,,,,,,0x03,
10517,-330,-951,6,-70,-630,70,,,,,,,0x03,
10527,-330,-951,6,-140,-700,70,,,,,,,0x03,
10536,-331,-952,5,-140,-700,70,,,,,,,0x03,
10546,-331,-953,5,-70,-770,140,,,,,,,0x03,
10556,-332,-952,7,0,-840,70,,,,,,,0x03,
10565,-330,-952,7,-70,-840,140,,,,,,,0x03,
10575,-331,-951,7,-70,-910,140,,,,,,,0x03,
10585,-331,-951,7,-140,-980,140,,,,,,,0x03,
10594,-330,-952,7,-140,-980,140,,,,,,,0x03,
10604,-330,-952,7,-140,-980,210,,,,,,,0x03,
10613,-330,-953,8,0,-980,210,,,,,,,0x03,
10623,-330,-951,8,140,-980,140,,,,,,,0x03,
10633,-331,-951,7,140,-910,140,,,,,,,0x03,
10642,-332,-950,7,140,-910,140,,,,,,,0x03,
10652,-331,-950,7,140,-910,70,,,,,,,0x03,
10662,-332,-950,8,70,-910,0,,,,,,,0x03,
10671,-330,-948,7,0,-840,-70,,,,,,,0x03,
10681,-330,-949,8,-70,-840,-140,,,,,,,0x03,
10691,-331,-949,8,-140,-770,-210,,,,,,,0x03,
10700,-332,-950,8,-140,-700,-280,,,,,,,0x03,
10710,-331,-950,8,-210,-700,-350,,,,,,,0x03,
10719,-331,-950,8,-210,-700,-420,,,,,,,0x03,
10729,-331,-951,8,-140,-630,-490,,,,,,,0x03,
10739,-331,-950,7,-140,-560,-490,,,,,,,0x03,
10748,-330,-950,7,-140,-490,-490,,,,,,,0x03,
10758,-330,-951,7,-140,-560,-490,,,,,,,0x03,
10768,-330,-952,7,-140,-560,-490,,,,,,,0x03,
10777,-330,-951,8,-140,-560,-490,,,,,,,0x03,
10787,-331,-950,7,-280,-630,-490,,,,,,,0x03,
10797,-331,-952,7,-350,-630,-490,,,,,,,0x03,
10806,-332,-953,6,-420,-630,-420,,,,,,,0x03,
10816,-331,-952,7,-350,-700,-420,,,,,,,0x03,
10826,-330,-952,6,-210,-700,-350,,,,,,,0x03,
10835,-330,-952,6,-140,-700,-350,,,,,,,0x03,
10845,-331,-952,7,-140,-770,-350,,,,,,,0x03,
10854,-330,-952,7,-70,-770,-350,,,,,,,0x03,
10864,-330,-950,7,-140,-770,-350,,,,,,,0x03,
10874,-329,-950,7,-140,-770,-420,,,,,,,0x03,
10883,-330,-950,6,-70,-770,-420,,,,,,,0x03,
10893,-330,-950,6,-70,-840,-490,,,,,,,0x03,
10903,-330,-950,7,-70,-840,-560,,,,,,,0x03,
10912,-329,-950,7,-140,-840,-700,,,,,,,0x03,
10922,-330,-949,6,-210,-840,-770,,,,,,,0x03,
10932,-331,-950,6,-210,-840,-840,,,,,,,0x03,
10941,-330,-951,6,-280,-840,-910,,,,,,,0x03,
10951,-329,-951,7,-280,-910,-980,,,,,,,0x03,
10960,-328,-951,7,-210,-840,-980,,,,,,,0x03,
10970,-328,-953,7,-210,-910,-980,,,,,,,0x03,
10980,-327,-952,6,-140,-840,-980,,,,,,,0x03,
10989,-328,-954,6,-140,-840,-910,,,,,,,0x03,
10999,-328,-954,6,-210,-910,-910,,,,,,,0x03,
11009,-328,-954,7,-140,-910,-770,,,,,,,0x03,
11018,-328,-955,7,-210,-840,-560,,,,,,,0x03,
11028,-329,-955,9,-210,-840,-350,,,,,,,0x03,
11038,-329,-956,8,-210,-840,-140,,,,,,,0x03,
11047,-327,-956,7,-140,-770,70,,,,,,,0x03,
11057,-327,-955,8,-70,-700,210,,,,,,,0x03,
11066,-327,-955,7,0,-700,350,,,,,,,0x03,
11076,-327,-953,8,140,-630,420,,,,,,,0x03,
11086,-328,-952,7,140,-560,490,,,,,,,0x03,
11095,-329,-950,7,140,-560,560,,,,,,,0x03,
11105,-330,-949,7,70,-630,420,,,,,,,0x03,
11115,-330,-949,7,0,-630,350,,,,,,,0x03,
11124,-330,-950,6,-70,-560,210,,,,,,,0x03,
11134,-330,-949,6,-70,-630,70,,,,,,,0x03,
11144,-330,-950,6,-140,-630,-70,,,,,,,0x03,
11153,-330,-950,7,-140,-700,-210,,,,,,,0x03,
11163,-329,-950,7,0,-700,-210,,,,,,,0x03,
11173,-329,-951,6,-140,-770,-280,,,,,,,0x03,
11182,-330,-951,6,-70,-770,-420,,,,,,,0x03,
11192,-330,-951,7,-70,-910,-420,,,,,,,0x03,
11201,-328,-952,6,-70,-910,-490,,,,,,,0x03,
11211,-328,-952,6,-70,-840,-490,,,,,,,0x03,
11221,-329,-953,8,0,-840,-420,,,,,,,0x03,
11230,-329,-952,7,0,-910,-420,,,,,,,0x03,
11240,-330,-953,7,-70,-910,-420,,,,,,,0x03,
11250,-329,-951,6,-70,-910,-350,,,,,,,0x03,
11259,-328,-952,8,-70,-910,-350,,,,,,,0x03,
11269,-328,-952,8,-140,-910,-280,,,,,,,0x03,
11279,-329,-952,7,-140,-840,-280,,,,,,,0x03,
11288,-328,-951,7,-140,-840,-280,,,,,,,0x03,
11298,-329,-952,8,-140,-770,-280,,,,,,,0x03,
11307,-329,-951,7,-70,-770,-280,,,,,,,0x03,
11317,-329,-950,8,0,-770,-280,,,,,,,0x03,
11327,-330,-951,8,-140,-770,-210,,,,,,,0x03,
11336,-329,-950,8,-210,-770,-210,,,,,,,0x03,
11346,-331,-950,8,-350,-770,-70,,,,,,,0x03,
11356,-329,-952,8,-770,-840,70,,,,,,,0x03,
11365,-329,-952,10,-1120,-770,210,,,,,,,0x03,
11375,-329,-955,8,-1470,-770,350,,,,,,,0x03,
11385,-327,-952,4,-1400,-840,560,,,,,,,0x03,
11394,-327,-955,7,-1680,-630,700,,,,,,,0x03,
11404,-327,-957,8,-1610,-560,770,,,,,,,0x03,
11414,-327,-957,5,-1190,-560,910,,,,,,,0x03,
11423,-327,-958,5,-700,-490,910,,,,,,,0x03,
11433,-329,-955,5,-210,-350,910,,,,,,,0x03,
11442,-329,-952,5,280,-420,910,,,,,,,0x03,
11452,-330,-949,5,490,-490,840,,,,,,,0x03,
11462,-330,-947,4,420,-490,700,,,,,,,0x03,
11471,-331,-945,4,210,-560,420,,,,,,,0x03,
11481,-332,-942,4,-70,-700,140,,,,,,,0x03,
11491,-331,-943,5,-420,-770,-140,,,,,,,0x03,
11500,-333,-945,3,-700,-910,-420,,,,,,,0x03,
11510,-331,-949,4,-980,-980,-630,,,,,,,0x03,
11520,-329,-949,4,-980,-1050,-840,,,,,,,0x03,
11529,-329,-951,4,-840,-1120,-980,,,,,,,0x03,
11539,-330,-953,4,-700,-1050,-1190,,,,,,,0x03,
11548,-330,-953,5,-490,-1120,-1190,,,,,,,0x03,
11558,-329,-955,5,-280,-1120,-1190,,,,,,,0x03,
11568,-329,-956,5,-210,-1120,-1050,,,,,,,0x03,
11577,-328,-956,5,-70,-980,-910,,,,,,,0x03,
11587,-328,-957,6,0,-1050,-700,,,,,,,0x03,
11597,-328,-954,6,0,-980,-490,,,,,,,0x03,
11606,-329,-955,5,-280,-1050,-210,,,,,,,0x03,
11616,-327,-958,6,-210,-980,-70,,,,,,,0x03,
11626,-327,-957,6,0,-840,140,,,,,,,0x03,
11635,-328,-955,7,210,-910,350,,,,,,,0x03,
11645,-329,-955,6,210,-840,560,,,,,,,0x03,
11655,-327,-954,6,210,-770,770,,,,,,,0x03,
11664,-328,-953,6,350,-770,770,,,,,,,0x03,
11674,-330,-950,6,490,-700,770,,,,,,,0x03,
11683,-330,-949,6,420,-700,700,,,,,,,0x03,
11693,-330,-948,6,420,-630,490,,,,,,,0x03,
11703,-330,-947,6,280,-630,350,,,,,,,0x03,
11712,-331,-947,6,210,-630,140,,,,,,,0x03,
11722,-331,-945,5,140,-630,-70,,,,,,,0x03,
11732,-331,-947,6,0,-700,-280,,,,,,,0x03,
11741,-331,-949,7,-70,-700,-560,,,,,,,0x03,
11751,-329,-948,6,-210,-700,-700,,,,,,,0x03,
11761,-330,-948,5,-210,-700,-840,,,,,,,0x03,
11770,-329,-950,7,-140,-700,-980,,,,,,,0x03,
11780,-329,-953,6,-210,-700,-980,,,,,,,0x03,
11789,-329,-953,5,-140,-630,-980,,,,,,,0x03,
11799,-328,-953,5,0,-630,-910,,,,,,,0x03,
11809,-328,-953,5,-70,-630,-910,,,,,,,0x03,
11818,-328,-952,5,-70,-700,-840,,,,,,,0x03,
11828,-329,-952,5,-140,-700,-770,,,,,,,0x03,
11838,-330,-954,6,-280,-700,-630,,,,,,,0x03,
11847,-329,-954,5,-350,-700,-490,,,,,,,0x03,
11857,-329,-954,5,-280,-700,-420,,,,,,,0x03,
11867,-328,-956,6,-210,-700,-280,,,,,,,0x03,
11876,-328,-956,6,-140,-700,-210,,,,,,,0x03,
11886,-328,-954,6,70,-700,-70,,,,,,,0x03,
11896,-329,-952,5,210,-700,0,,,,,,,0x03,
11905,-330,-953,6,140,-700,140,,,,,,,0x03,
11915,-328,-953,6,70,-700,140,,,,,,,0x03,
11924,-330,-951,5,70,-700,140,,,,,,,0x03,
11934,-330,-949,6,-70,-770,140,,,,,,,0x03,
11944,-330,-951,6,-280,-770,210,,,,,,,0x03,
11953,-329,-952,6,-490,-770,280,,,,,,,0x03,
11963,-327,-953,5,-560,-770,280,,,,,,,0x03,
11973,-327,-953,5,-420,-700,210,,,,,,,0x03,
11982,-329,-954,5,-210,-770,210,,,,,,,0x03,
11992,-329,-952,6,-140,-700,210,,,,,,,0x03,
12002,-329,-953,6,0,-700,210,,,,,,,0x03,
12011,-329,-951,5,70,-700,70,,,,,,,0x03,
12021,-329,-950,6,70,-630,0,,,,,,,0x03,
12030,-329,-948,5,0,-700,-140,,,,,,,0x03,
12040,-330,-949,5,-70,-700,-210,,,,,,,0x03,
12050,-332,-949,4,-140,-770,-280,,,,,,,0x03,
12059,-329,-951,5,-210,-770,-350,,,,,,,0x03,
12069,-329,-950,6,-210,-840,-420,,,,,,,0x03,
12079,-328,-949,6,-210,-840,-490,,,,,,,0x03,
12088,-329,-951,6,-350,-840,-490,,,,,,,0x03,
12098,-328,-954,5,-490,-840,-490,,,,,,,0x03,
12108,-328,-954,5,-280,-770,-490,,,,,,,0x03,
12117,-327,-953,5,-70,-770,-420,,,,,,,0x03,
12127,-328,-954,5,-70,-770,-280,,,,,,,0x03,
12137,-329,-954,5,70,-700,-210,,,,,,,0x03,
12146,-329,-953,5,70,-700,-140,,,,,,,0x03,
12156,-329,-953,5,140,-630,-70,,,,,,,0x03,
12165,-329,-953,5,210,-630,-70,,,,,,,0x03,
12175,-328,-953,5,140,-630,0,,,,,,,0x03,
12185,-329,-952,6,70,-630,70,,,,,,,0x03,
12194,-329,-951,5,70,-700,70,,,,,,,0x03,
12204,-329,-951,5,70,-700,0,,,,,,,0x03,
12214,-330,-951,5,0,-700,0,,,,,,,0x03,
12223,-329,-950,6,0,-770,0,,,,,,,0x03,
12233,-329,-951,6,0,-770,0,,,,,,,0x03,
12243,-328,-951,6,0,-770,-70,,,,,,,0x03,
12252,-329,-950,6,70,-770,-70,,,,,,,0x03,
12262,-329,-950,6,140,-700,-140,,,,,,,0x03,
12271,-328,-952,6,70,-630,-210,,,,,,,0x03,
12281,-329,-951,6,0,-700,-140,,,,,,,0x03,
12291,-329,-951,6,0,-700,-210,,,,,,,0x03,
12300,-329,-952,6,0,-630,-280,,,,,,,0x03,
12310,-327,-952,5,-70,-630,-280,,,,,,,0x03,
12320,-328,-952,6,-140,-630,-210,,,,,,,0x03,
12329,-328,-953,6,-210,-630,-210,,,,,,,0x03,
12339,-328,-954,5,-210,-630,-210,,,,,,,0x03,
12349,-328,-953,6,-140,-630,-140,,,,,,,0x03,
12358,-329,-953,5,0,-630,-140,,,,,,,0x03,
12368,-329,-952,5,70,-630,-70,,,,,,,0x03,
12378,-328,-952,5,70,-700,-70,,,,,,,0x03,
12387,-330,-953,5,0,-700,0,,,,,,,0x03,
12397,-329,-953,5,70,-700,0,,,,,,,0x03,
12406,-328,-951,5,0,-700,0,,,,,,,0x03,
12416,-329,-952,5,0,-770,0,,,,,,,0x03,
12426,-330,-951,6,70,-770,0,,,,,,,0x03,
12435,-327,-952,5,70,-770,0,,,,,,,0x03,
12445,-329,-951,5,70,-770,-70,,,,,,,0x03,
12455,-328,-952,5,140,-770,-140,,,,,,,0x03,
12464,-329,-950,5,70,-770,-140,,,,,,,0x03,
12474,-330,-950,6,70,-770,-140,,,,,,,0x03,
12484,-329,-949,6,0,-840,-280,,,,,,,0x03,
12493,-329,-950,6,0,-840,-350,,,,,,,0x03,
12503,-329,-952,6,0,-910,-350,,,,,,,0x03,
12512,-329,-951,6,0,-910,-420,,,,,,,0x03,
12522,-330,-952,6,0,-910,-420,,,,,,,0x03,
12532,-329,-953,7,-140,-840,-350,,,,,,,0x03,
12541,-328,-954,7,-140,-840,-280,,,,,,,0x03,
12551,-328,-953,7,-70,-770,-210,,,,,,,0x03,
12561,-328,-953,6,0,-700,-140,,,,,,,0x03,
12570,-328,-953,6,70,-700,-70,,,,,,,0x03,
12580,-328,-953,6,70,-630,-70,,,,,,,0x03,
12590,-328,-953,6,70,-630,-70,,,,,,,0x03,
12599,-327,-953,6,70,-630,-70,,,,,,,0x03,
12609,-329,-950,6,280,-560,-140,,,,,,,0x03,
12619,-330,-951,6,210,-630,-210,,,,,,,0x03,
12628,-329,-952,5,140,-630,-280,,,,,,,0x03,
12638,-329,-952,6,280,-560,-420,,,,,,,0x03,
12647,-329,-950,6,420,-630,-490,,,,,,,0x03,
12657,-330,-950,6,490,-700,-630,,,,,,,0x03,
12667,-330,-949,6,420,-770,-770,,,,,,,0x03,
12676,-329,-948,5,350,-840,-770,,,,,,,0x03,
12686,-330,-948,6,210,-910,-910,,,,,,,0x03,
12696,-330,-952,6,-140,-980,-840,,,,,,,0x03,
12705,-328,-954,7,-280,-1050,-770,,,,,,,0x03,
12715,-328,-954,7,-210,-980,-700,,,,,,,0x03,
12725,-326,-954,7,-210,-910,-560,,,,,,,0x03,
12734,-327,-955,8,-280,-910,-420,,,,,,,0x03,
12744,-326,-956,8,-210,-770,-210,,,,,,,0x03,
12753,-327,-956,7,-70,-770,-140,,,,,,,0x03,
12763,-328,-955,8,210,-700,70,,,,,,,0x03,
12773,-327,-955,8,420,-630,210,,,,,,,0x03,
12782,-328,-954,8,280,-630,350,,,,,,,0x03,
12792,-328,-952,7,70,-560,420,,,,,,,0x03,
12802,-327,-953,7,-70,-560,490,,,,,,,0x03,
12811,-327,-951,6,0,-490,490,,,,,,,0x03,
12821,-328,-952,7,0,-560,560,,,,,,,0x03,
12831,-329,-950,6,140,-560,350,,,,,,,0x03,
12840,-329,-950,7,140,-560,350,,,,,,,0x03,
12850,-329,-949,6,70,-630,210,,,,,,,0x03,
12859,-329,-950,7,70,-630,70,,,,,,,0x03,
12869,-329,-949,7,0,-700,-70,,,,,,,0x03,
12879,-330,-951,6,-140,-630,-140,,,,,,,0x03,
12888,-329,-951,6,-70,-700,-210,,,,,,,0x03,
12898,-329,-951,6,-70,-770,-280,,,,,,,0x03,
12908,-328,-951,7,0,-770,-420,,,,,,,0x03,
12917,-328,-951,7,70,-770,-490,,,,,,,0x03,
12927,-329,-953,6,0,-840,-420,,,,,,,0x03,
12937,-328,-953,7,-70,-840,-420,,,,,,,0x03,
12946,-328,-952,7,-70,-840,-350,,,,,,,0x03,
12956,-329,-952,7,-140,-840,-350,,,,,,,0x03,
12966,-328,-952,8,-140,-910,-280,,,,,,,0x03,
12975,-328,-952,7,-140,-840,-210,,,,,,,0x03,
12985,-328,-953,8,-140,-840,-140,,,,,,,0x03,
12994,-327,-952,8,-140,-770,-140,,,,,,,0x03,
13004,-327,-952,8,-70,-770,-140,,,,,,,0x03,
13014,-327,-951,8,-70,-700,-70,,,,,,,0x03,
13023,-328,-951,8,-70,-700,-140,,,,,,,0x03,
13033,-328,-954,8,-140,-700,-70,,,,,,,0x03,
13043,-327,-953,6,-70,-630,-70,,,,,,,0x03,
13052,-328,-952,7,70,-560,0,,,,,,,0x03,
13062,-328,-951,6,140,-560,-70,,,,,,,0x03,
13072,-330,-951,6,140,-560,-70,,,,,,,0x03,
13081,-328,-950,6,70,-630,-70,,,,,,,0x03,
13091,-329,-951,7,-70,-630,-140,,,,,,,0x03,
13100,-329,-951,7,-140,-700,-210,,,,,,,0x03,
13110,-329,-950,7,-140,-700,-280,,,,,,,0x03,
13120,-329,-950,7,-210,-700,-280,,,,,,,0x03,
13129,-328,-951,6,-140,-700,-350,,,,,,,0x03,
13139,-328,-950,7,-70,-770,-490,,,,,,,0x03,
13149,-329,-953,8,-140,-770,-560,,,,,,,0x03,
13158,-326,-953,6,0,-840,-560,,,,,,,0x03,
13168,-328,-950,7,210,-770,-630,,,,,,,0x03,
13178,-328,-949,7,140,-770,-700,,,,,,,0x03,
13187,-328,-950,7,-140,-840,-770,,,,,,,0x03,
13197,-328,-953,7,-210,-840,-700,,,,,,,0x03,
13207,-329,-954,7,-140,-840,-700,,,,,,,0x03,
13216,-327,-953,7,-70,-840,-630,,,,,,,0x03,
13226,-327,-952,9,-70,-840,-630,,,,,,,0x03,
13235,-327,-952,8,-140,-840,-560,,,,,,,0x03,
13245,-329,-955,8,-280,-840,-560,,,,,,,0x03,
13255,-328,-955,7,-140,-840,-490,,,,,,,0x03,
13264,-326,-953,9,70,-770,-420,,,,,,,0x03,
13274,-325,-955,8,-70,-770,-280,,,,,,,0x03,
13284,-327,-953,8,-70,-700,-210,,,,,,,0x03,
13293,-327,-953,7,70,-700,-140,,,,,,,0x03,
13303,-327,-953,8,0,-630,-70,,,,,,,0x03,
13313,-326,-953,8,0,-630,0,,,,,,,0x03,
13322,-327,-951,8,0,-630,0,,,,,,,0x03,
13332,-327,-951,7,-140,-630,0,,,,,,,0x03,
13341,-327,-952,7,-140,-630,0,,,,,,,0x03,
13351,-328,-952,7,-140,-630,-140,,,,,,,0x03,
13361,-326,-950,7,-140,-630,-140,,,,,,,0x03,
13370,-327,-950,7,-140,-630,-210,,,,,,,0x03,
13380,-327,-950,7,-210,-630,-280,,,,,,,0x03,
13390,-328,-952,7,-280,-630,-350,,,,,,,0x03,
13399,-329,-953,6,-210,-630,-350,,,,,,,0x03,
13409,-327,-953,7,-70,-630,-350,,,,,,,0x03,
13419,-327,-953,7,0,-560,-420,,,,,,,0x03,
13428,-327,-952,7,0,-630,-420,,,,,,,0x03,
13438,-327,-952,7,0,-630,-420,,,,,,,0x03,
13448,-326,-953,8,0,-700,-420,,,,,,,0x03,
13457,-326,-953,7,0,-700,-350,,,,,,,0x03,
13467,-327,-954,7,-70,-700,-350,,,,,,,0x03,
13476,-326,-953,7,-70,-700,-280,,,,,,,0x03,
13486,-328,-954,8,-70,-770,-280,,,,,,,0x03,
13496,-327,-954,7,-140,-770,-140,,,,,,,0x03,
13505,-327,-954,7,-70,-770,-140,,,,,,,0x03,
13515,-327,-953,7,0,-700,-70,,,,,,,0x03,
13525,-327,-953,7,0,-700,-70,,,,,,,0x03,
13534,-326,-953,7,70,-770,0,,,,,,,0x03,
13544,-327,-953,7,70,-770,70,,,,,,,0x03,
13554,-327,-952,7,70,-770,70,,,,,,,0x03,
13563,-326,-951,7,70,-840,0,,,,,,,0x03,
13573,-328,-950,7,0,-770,-70,,,,,,,0x03,
13582,-325,-950,8,-70,-770,-70,,,,,,,0x03,
13592,-327,-951,8,-210,-770,-70,,,,,,,0x03,
13602,-326,-950,8,-280,-700,-210,,,,,,,0x03,
13611,-326,-953,7,-280,-700,-280,,,,,,,0x03,
13621,-325,-953,7,-210,-630,-350,,,,,,,0x03,
13631,-327,-952,8,-210,-630,-420,,,,,,,0x03,
13640,-326,-952,7,-140,-630,-420,,,,,,,0x03,
13650,-328,-954,7,-140,-630,-420,,,,,,,0x03,
13660,-326,-953,7,-140,-630,-420,,,,,,,0x03,
13669,-328,-954,7,-70,-630,-420,,,,,,,0x03,
13679,-328,-953,7,-140,-630,-350,,,,,,,0x03,
13689,-327,-953,7,-70,-700,-350,,,,,,,0x03,
13698,-327,-953,7,70,-700,-350,,,,,,,0x03,
13708,-327,-954,7,0,-630,-350,,,,,,,0x03,
13717,-325,-954,7,0,-630,-350,,,,,,,0x03,
13727,-326,-952,8,0,-630,-280,,,,,,,0x03,
13737,-326,-953,7,-70,-630,-210,,,,,,,0x03,
13746,-325,-953,8,-140,-630,-210,,,,,,,0x03,
13756,-326,-953,8,-210,-630,-210,,,,,,,0x03,
13766,-326,-953,6,-140,-560,-140,,,,,,,0x03,
13775,-325,-954,7,0,-560,-140,,,,,,,0x03,
13785,-327,-954,7,140,-630,-70,,,,,,,0x03,
13795,-327,-953,6,140,-630,-70,,,,,,,0x03,
13804,-326,-954,6,0,-630,-70,,,,,,,0x03,
13814,-328,-951,6,70,-700,-70,,,,,,,0x03,
13823,-327,-950,7,0,-700,-140,,,,,,,0x03,
13833,-327,-951,7,-210,-770,-210,,,,,,,0x03,
13843,-326,-953,7,-350,-770,-210,,,,,,,0x03,
13852,-327,-953,7,-280,-840,-280,,,,,,,0x03,
13862,-326,-953,8,-210,-840,-280,,,,,,,0x03,
13872,-326,-953,7,-70,-770,-350,,,,,,,0x03,
13881,-326,-952,7,0,-840,-350,,,,,,,0x03,
13891,-325,-952,7,-70,-770,-350,,,,,,,0x03,
13901,-325,-953,7,-70,-770,-420,,,,,,,0x03,
13910,-327,-953,7,-70,-770,-420,,,,,,,0x03,
13920,-326,-953,9,-140,-700,-420,,,,,,,0x03,
13930,-325,-954,7,-140,-770,-420,,,,,,,0x03,
13939,-326,-954,7,0,-770,-420,,,,,,,0x03,
13949,-327,-954,7,0,-700,-350,,,,,,,0x03,
13958,-326,-953,7,0,-770,-280,,,,,,,0x03,
13968,-326,-953,8,-70,-770,-280,,,,,,,0x03,
13978,-326,-953,8,-70,-700,-280,,,,,,,0x03,
13987,-326,-954,7,-70,-700,-210,,,,,,,0x03,
13997,-326,-952,7,-70,-700,-210,,,,,,,0x03,
14007,-325,-953,7,-70,-630,-210,,,,,,,0x03,
14016,-326,-952,7,-70,-700,-140,,,,,,,0x03,
14026,-326,-952,8,-70,-700,-210,,,,,,,0x03,
14036,-325,-953,7,-70,-630,-210,,,,,,,0x03,
14045,-326,-952,8,-70,-630,-140,,,,,,,0x03,
14055,-326,-953,7,-70,-630,-140,,,,,,,0x03,
14064,-325,-953,7,-70,-630,-140,,,,,,,0x03,
14074,-325,-953,7,-70,-630,-140,,,,,,,0x03,
14084,-326,-953,7,-70,-630,-210,,,,,,,0x03,
14093,-326,-952,7,-70,-630,-140,,,,,,,0x03,
14103,-326,-954,7,-70,-630,-210,,,,,,,0x03,
14113,-326,-953,6,0,-700,-140,,,,,,,0x03,
14122,-327,-953,6,0,-770,-140,,,,,,,0x03,
14132,-326,-954,6,0,-770,-140,,,,,,,0x03,
14142,-326,-954,7,0,-770,-70,,,,,,,0x03,
14151,-325,-953,8,-70,-770,-70,,,,,,,0x03,
14161,-325,-955,7,-70,-770,0,,,,,,,0x03,
14171,-325,-953,7,-70,-840,0,,,,,,,0x03,
14180,-326,-953,7,0,-840,70,,,,,,,0x03,
14190,-326,-953,7,0,-840,0,,,,,,,0x03,
14199,-327,-953,7,0,-840,70,,,,,,,0x03,
14209,-326,-953,7,70,-840,70,,,,,,,0x03,
14219,-326,-952,8,70,-840,0,,,,,,,0x03,
14228,-326,-953,8,0,-770,0,,,,,,,0x03,
14238,-326,-953,8,0,-840,0,,,,,,,0x03,
14248,-326,-952,8,70,-770,0,,,,,,,0x03,
14257,-326,-952,8,70,-770,0,,,,,,,0x03,
14267,-327,-952,8,0,-770,0,,,,,,,0x03,
14277,-325,-951,7,140,-770,-70,,,,,,,0x03,
14286,-327,-952,8,0,-770,-70,,,,,,,0x03,
14296,-325,-952,7,-140,-770,-140,,,,,,,0x03,
14305,-327,-952,8,-70,-770,-140,,,,,,,0x03,
14315,-326,-953,8,-210,-700,-210,,,,,,,0x03,
14325,-326,-951,8,-140,-700,-210,,,,,,,0x03,
14334,-327,-953,8,-140,-630,-280,,,,,,,0x03,
14344,-325,-952,7,-70,-630,-350,,,,,,,0x03,
14354,-326,-953,8,-70,-630,-350,,,,,,,0x03,
14363,-327,-953,7,0,-630,-280,,,,,,,0x03,
14373,-327,-953,8,-70,-630,-350,,,,,,,0x03,
14383,-326,-953,7,0,-630,-350,,,,,,,0x03,
14392,-325,-954,7,0,-630,-280,,,,,,,0x03,
14402,-326,-952,7,0,-630,-280,,,,,,,0x03,
14412,-326,-953,7,70,-700,-210,,,,,,,0x03,
14421,-326,-952,8,0,-630,-210,,,,,,,0x03,
14431,-325,-953,7,-140,-700,-210,,,,,,,0x03,
14440,-326,-953,7,-140,-700,-210,,,,,,,0x03,
14450,-326,-953,8,-210,-700,-210,,,,,,,0x03,
14460,-325,-953,8,-280,-700,-210,,,,,,,0x03,
14469,-326,-954,8,-350,-700,-210,,,,,,,0x03,
14479,-325,-954,8,-280,-630,-210,,,,,,,0x03,
14489,-326,-955,7,-210,-700,-210,,,,,,,0x03,
14498,-326,-956,7,0,-630,-70,,,,,,,0x03,
14508,-324,-955,7,140,-630,-70,,,,,,,0x03,
14518,-325,-955,6,280,-630,0,,,,,,,0x03,
14527,-326,-953,7,350,-630,0,,,,,,,0x03,
14537,-325,-952,7,210,-630,70,,,,,,,0x03,
14546,-328,-953,5,0,-700,70,,,,,,,0x03,
14556,-326,-949,11,0,-770,70,,,,,,,0x03,
14566,-330,-952,10,-560,-770,140,,,,,,,0x03,
14575,-321,-957,4,-350,-980,70,,,,,,,0x03,
14585,-327,-953,7,140,-770,-70,,,,,,,0x03,
14595,-329,-951,8,280,-840,-70,,,,,,,0x03,
14604,-324,-951,8,70,-840,0,,,,,,,0x03,
14614,-325,-952,8,-140,-910,-70,,,,,,,0x03,
14624,-327,-954,8,-70,-910,-140,,,,,,,0x03,
14633,-325,-953,8,0,-840,-210,,,,,,,0x03,
14643,-325,-953,9,-70,-840,-140,,,,,,,0x03,
14653,-326,-953,8,-70,-840,-140,,,,,,,0x03,
14662,-326,-953,8,70,-840,-140,,,,,,,0x03,
14672,-326,-953,8,140,-840,-140,,,,,,,0x03,
14681,-326,-953,8,140,-770,-140,,,,,,,0x03,
14691,-326,-952,7,70,-770,-140,,,,,,,0x03,
14701,-326,-952,8,-70,-770,-140,,,,,,,0x03,
14710,-326,-952,8,-140,-700,-140,,,,,,,0x03,
14720,-325,-952,8,-140,-700,-140,,,,,,,0x03,
14730,-326,-953,8,-140,-700,-210,,,,,,,0x03,
14739,-327,-952,8,-140,-700,-140,,,,,,,0x03,
14749,-327,-953,8,-70,-700,-210,,,,,,,0x03,
14759,-326,-953,8,-70,-630,-210,,,,,,,0x03,
14768,-326,-953,8,-70,-630,-210,,,,,,,0x03,
14778,-326,-952,8,0,-630,-280,,,,,,,0x03,
14787,-325,-952,7,-70,-630,-210,,,,,,,0x03,
14797,-324,-952,7,-70,-630,-210,,,,,,,0x03,
14807,-326,-953,8,-140,-630,-210,,,,,,,0x03,
14816,-325,-953,7,-140,-560,-210,,,,,,,0x03,
14826,-325,-953,8,-140,-630,-280,,,,,,,0x03,
14836,-326,-953,9,-70,-630,-210,,,,,,,0x03,
14845,-326,-953,8,-140,-630,-280,,,,,,,0x03,
14855,-326,-953,8,-140,-560,-210,,,,,,,0x03,
14865,-326,-953,8,-70,-630,-210,,,,,,,0x03,
14874,-326,-953,7,-140,-630,-140,,,,,,,0x03,
14884,-326,-953,7,-140,-700,-210,,,,,,,0x03,
14893,-325,-953,8,0,-700,-210,,,,,,,0x03,
14903,-325,-952,7,0,-700,-210,,,,,,,0x03,
14913,-326,-953,8,-70,-700,-280,,,,,,,0x03,
14922,-326,-952,7,-70,-700,-210,,,,,,,0x03,
14932,-325,-953,7,-140,-700,-280,,,,,,,0x03,
14942,-326,-952,7,-140,-700,-280,,,,,,,0x03,
14951,-326,-953,9,-140,-700,-280,,,,,,,0x03,
14961,-325,-954,7,-70,-770,-210,,,,,,,0x03,
14971,-325,-953,8,0,-700,-140,,,,,,,0x03,
14980,-326,-954,7,0,-700,-140,,,,,,,0x03,
14990,-325,-953,7,0,-770,-210,,,,,,,0x03,
15000,-325,-953,8,-70,-770,-210,,,,,,,0x03,
15009,-326,-954,7,-70,-770,-140,,,,,,,0x03,
15019,-325,-953,8,0,-770,-140,,,,,,,0x03,
15028,-326,-954,8,0,-770,-140,,,,,,,0x03,
15038,-326,-953,7,0,-770,-70,,,,,,,0x03,
15048,-326,-953,8,0,-770,-140,,,,,,,0x03,
15057,-326,-953,8,-70,-700,-70,,,,,,,0x03,
15067,-325,-954,7,-70,-700,-70,,,,,,,0x03,
15077,-325,-953,8,-70,-770,-70,,,,,,,0x03,
15086,-326,-953,9,0,-700,0,,,,,,,0x03,
15096,-326,-953,7,-70,-700,0,,,,,,,0x03,
15106,-326,-954,7,-70,-700,-70,,,,,,,0x03,
15115,-325,-951,7,0,-700,-70,,,,,,,0x03,
15125,-325,-953,7,0,-700,-70,,,,,,,0x03,
15134,-326,-953,7,-70,-700,-70,,,,,,,0x03,
15144,-325,-954,8,0,-700,-70,,,,,,,0x03,
15154,-327,-952,7,0,-770,-140,,,,,,,0x03,
15163,-326,-953,8,0,-700,-140,,,,,,,0x03,
15173,-326,-952,8,0,-700,-140,,,,,,,0x03,
15183,-324,-953,8,-70,-700,-140,,,,,,,0x03,
15192,-325,-953,8,-70,-700,-140,,,,,,,0x03,
15202,-327,-953,8,-70,-770,-210,,,,,,,0x03,
15212,-326,-952,9,-140,-700,-140,,,,,,,0x03,
15221,-325,-953,8,-210,-700,-70,,,,,,,0x03,
15231,-326,-954,8,-210,-700,-70,,,,,,,0x03,
15241,-325,-955,8,-70,-700,0,,,,,,,0x03,
15250,-325,-954,8,0,-630,0,,,,,,,0x03,
15260,-325,-953,8,0,-630,70,,,,,,,0x03,
15269,-326,-953,8,0,-630,70,,,,,,,0x03,
15279,-325,-953,7,70,-630,70,,,,,,,0x03,
15289,-325,-952,8,70,-630,140,,,,,,,0x03,
15298,-327,-953,8,0,-630,140,,,,,,,0x03,
15308,-326,-953,7,-70,-630,140,,,,,,,0x03,
15318,-327,-953,7,-70,-700,140,,,,,,,0x03,
15327,-327,-953,7,-70,-700,70,,,,,,,0x03,
15337,-326,-952,7,-140,-700,0,,,,,,,0x03,
15347,-325,-952,8,0,-770,0,,,,,,,0x03,
15356,-326,-952,7,0,-770,0,,,,,,,0x03,
15366,-325,-952,8,0,-770,-140,,,,,,,0x03,
15375,-326,-952,9,0,-770,-140,,,,,,,0x03,
15385,-327,-953,7,-70,-770,-140,,,,,,,0x03,
15395,-325,-954,8,0,-770,-210,,,,,,,0x03,
15404,-327,-953,7,0,-770,-210,,,,,,,0x03,
15414,-326,-953,8,70,-770,-210,,,,,,,0x03,
15424,-326,-953,8,70,-770,-210,,,,,,,0x03,
15433,-326,-952,8,70,-770,-280,,,,,,,0x03,
15443,-326,-953,8,0,-770,-210,,,,,,,0x03,
15453,-326,-953,8,-70,-840,-210,,,,,,,0x03,
15462,-326,-952,8,-70,-770,-210,,,,,,,0x03,
15472,-327,-954,7,-140,-700,-210,,,,,,,0x03,
15482,-326,-954,7,-140,-770,-140,,,,,,,0x03,
15491,-326,-953,8,-140,-770,-140,,,,,,,0x03,
15501,-325,-954,8,-70,-700,-140,,,,,,,0x03,
15510,-325,-953,9,0,-700,-70,,,,,,,0x03,
15520,-326,-953,7,0,-700,-70,,,,,,,0x03,
15530,-327,-953,9,0,-700,-70,,,,,,,0x03,
15539,-326,-953,8,0,-700,-70,,,,,,,0x03,
15549,-326,-953,9,0,-630,-70,,,,,,,0x03,
15559,-326,-952,7,0,-630,-70,,,,,,,0x03,
15568,-326,-953,8,-70,-630,-70,,,,,,,0x03,
15578,-327,-954,8,-140,-700,-70,,,,,,,0x03,
15588,-327,-954,8,-140,-700,-70,,,,,,,0x03,
15597,-327,-953,8,-70,-700,-70,,,,,,,0x03,
15607,-327,-953,8,-70,-700,-70,,,,,,,0x03,
15616,-327,-953,8,0,-700,-70,,,,,,,0x03,
15626,-326,-952,8,0,-700,-70,,,,,,,0x03,
15636,-326,-953,8,-70,-700,-140,,,,,,,0x03,
15645,-327,-952,8,-70,-700,-70,,,,,,,0x03,
15655,-326,-953,8,-140,-770,-140,,,,,,,0x03,
15665,-327,-953,8,-70,-770,-210,,,,,,,0x03,
15674,-326,-953,8,0,-700,-210,,,,,,,0x03,
15684,-325,-952,9,-70,-700,-210,,,,,,,0x03,
15694,-325,-955,9,-210,-770,-280,,,,,,,0x03,
15703,-325,-949,8,-70,-770,-280,,,,,,,0x03,
15713,-326,-955,9,-70,-700,-210,,,,,,,0x03,
15723,-326,-954,8,-140,-770,-280,,,,,,,0x03,
15732,-326,-953,8,0,-770,-210,,,,,,,0x03,
15742,-325,-953,9,-70,-770,-210,,,,,,,0x03,
15751,-326,-953,9,-70,-770,-210,,,,,,,0x03,
15761,-326,-953,8,-70,-770,-140,,,,,,,0x03,
15771,-326,-953,8,-70,-700,-140,,,,,,,0x03,
15780,-327,-954,8,-140,-700,-70,,,,,,,0x03,
15790,-325,-953,8,-70,-700,-70,,,,,,,0x03,
