#Format version: 1.0
time[ms],accX[mg],accY[mg],accZ[mg],gyroX[mdps],gyroY[mdps],gyroZ[mdps],magnX[mG],magnY[mG],magnZ[mG],press[hPa],temp[°C],hum[0,-51,41,-981,1540,280,630,,,,,,,0x03,
10,-53,57,-992,-1540,420,910,,,,,,,0x03,
19,-48,47,-996,-5180,700,1050,,,,,,,0x03,
29,-49,18,-995,-6930,1050,1260,,,,,,,0x03,
39,-50,2,-993,-5530,1260,1540,,,,,,,0x03,
48,-45,7,-999,-2030,1260,1750,,,,,,,0x03,
58,-32,24,-1014,1120,1120,1470,,,,,,,0x03,
67,-33,47,-1014,1960,1330,1260,,,,,,,0x03,
77,-47,55,-1018,630,1680,1470,,,,,,,0x03,
87,-41,41,-1018,-350,2100,1190,,,,,,,0x03,
96,-45,25,-1017,-560,1890,1050,,,,,,,0x03,
106,-50,18,-1019,-70,1330,560,,,,,,,0x03,
116,-40,17,-1011,630,1190,-140,,,,,,,0x03,
125,-29,19,-1006,350,1680,-980,,,,,,,0x03,
135,-27,20,-1005,280,1820,-1120,,,,,,,0x03,
145,-35,15,-1007,700,1680,-840,,,,,,,0x03,
154,-33,28,-1016,1890,1330,-840,,,,,,,0x03,
164,-27,40,-1022,1820,980,-630,,,,,,,0x03,
173,-26,48,-1024,980,630,-280,,,,,,,0x03,
183,-35,44,-1020,-840,210,-280,,,,,,,0x03,
193,-43,21,-1017,-2310,140,-420,,,,,,,0x03,
202,-35,4,-1018,-1750,280,-910,,,,,,,0x03,
212,-22,11,-1011,350,560,-1190,,,,,,,0x03,
222,-18,31,-995,1330,700,-980,,,,,,,0x03,
231,-27,40,-984,350,280,-70,,,,,,,0x03,
241,-36,42,-994,-840,-280,490,,,,,,,0x03,
251,-39,37,-1010,-1400,-980,770,,,,,,,0x03,
260,-38,34,-1023,-1540,-1260,770,,,,,,,0x03,
270,-32,24,-1027,-1890,-1330,350,,,,,,,0x03,
280,-34,13,-1017,-2590,-910,-70,,,,,,,0x03,
289,-30,1,-1019,-1400,-770,-560,,,,,,,0x03,
299,-22,3,-1014,560,-1190,-840,,,,,,,0x03,
308,-32,9,-1029,1750,-1190,-840,,,,,,,0x03,
318,-32,10,-1046,2730,-1050,-770,,,,,,,0x03,
328,-24,16,-1040,3850,-770,-840,,,,,,,0x03,
337,-14,30,-1030,5390,-910,-910,,,,,,,0x03,
347,-17,32,-1019,6090,-1750,-560,,,,,,,0x03,
357,-46,34,-1031,6160,-2660,-490,,,,,,,0x03,
366,-62,45,-1033,5180,-3150,-490,,,,,,,0x03,
376,-61,47,-1018,1960,-3360,-280,,,,,,,0x03,
386,-69,28,-990,-1890,-3360,-140,,,,,,,0x03,
395,-66,11,-978,-3850,-3080,-350,,,,,,,0x03,
405,-34,20,-985,-1960,-2940,-770,,,,,,,0x03,
414,-3,33,-986,1610,-2660,-840,,,,,,,0x03,
424,-18,40,-1006,4200,-2310,-350,,,,,,,0x03,
434,-49,91,-1011,7420,-1890,-420,,,,,,,0x03,
443,-27,66,-1005,6720,-2870,-2730,,,,,,,0x03,
453,-45,47,-995,5180,-2100,3080,,,,,,,0x03,
463,-85,17,-1007,5040,-2170,-140,,,,,,,0x03,
472,-24,0,-1008,6090,-3290,-1610,,,,,,,0x03,
482,-30,-10,-1005,5600,-2380,1960,,,,,,,0x03,
492,-49,-19,-1018,4410,-3010,630,,,,,,,0x03,
501,-47,-7,-1021,2800,-3430,-1610,,,,,,,0x03,
511,-69,-6,-1008,-2590,-3010,-1820,,,,,,,0x03,
520,-83,-44,-988,-9450,-2800,-2240,,,,,,,0x03,
530,-59,-91,-987,-13370,-1820,-2310,,,,,,,0x03,
540,-20,-106,-981,-11760,-770,-2030,,,,,,,0x03,
549,-23,-86,-975,-8680,0,-1820,,,,,,,0x03,
559,-35,-41,-976,-6650,350,-2100,,,,,,,0x03,
569,-35,1,-978,-6230,490,-1960,,,,,,,0x03,
578,-46,32,-988,-7910,420,-1540,,,,,,,0x03,
588,-57,47,-1010,-10010,70,-980,,,,,,,0x03,
598,-50,62,-1028,-11410,-490,-560,,,,,,,0x03,
607,-36,67,-1048,-12810,-770,-350,,,,,,,0x03,
617,-35,59,-1044,-14350,-420,-560,,,,,,,0x03,
627,-26,47,-1035,-13440,-70,-980,,,,,,,0x03,
636,-16,28,-1014,-9660,-140,-1050,,,,,,,0x03,
646,-39,27,-1009,-3920,-420,-700,,,,,,,0x03,
655,-55,70,-1003,2940,-1400,-210,,,,,,,0x03,
665,-65,92,-1008,3920,-2520,1050,,,,,,,0x03,
675,-69,70,-1038,-210,-2170,1890,,,,,,,0x03,
684,-69,40,-1026,-2870,-1680,1890,,,,,,,0x03,
694,-40,14,-1001,-5530,-1680,1890,,,,,,,0x03,
704,-3,-7,-999,-5250,-1540,1190,,,,,,,0x03,
713,7,-7,-1010,-1610,-1890,630,,,,,,,0x03,
723,-14,15,-1030,2100,-2100,350,,,,,,,0x03,
733,-35,36,-1050,5250,-2030,490,,,,,,,0x03,
742,-24,52,-1057,7420,-2100,560,,,,,,,0x03,
752,-15,72,-1053,8260,-2380,210,,,,,,,0x03,
761,-36,76,-1046,7280,-3220,-70,,,,,,,0x03,
771,-47,77,-1044,5320,-3850,-420,,,,,,,0x03,
781,-23,70,-1025,3290,-3780,-560,,,,,,,0x03,
790,-28,45,-988,1190,-3500,0,,,,,,,0x03,
800,-55,12,-959,-70,-3290,700,,,,,,,0x03,
810,-59,-7,-948,630,-3010,910,,,,,,,0x03,
819,-47,-1,-945,2380,-2870,980,,,,,,,0x03,
829,-44,16,-955,2100,-3080,840,,,,,,,0x03,
839,-35,48,-980,-140,-2940,280,,,,,,,0x03,
848,-26,59,-1004,-3920,-2450,70,,,,,,,0x03,
858,-31,44,-1017,-7770,-1960,140,,,,,,,0x03,
867,-35,18,-1013,-8050,-1190,420,,,,,,,0x03,
877,-35,-6,-1012,-4760,-630,1050,,,,,,,0x03,
887,-27,-3,-1013,1680,-350,1680,,,,,,,0x03,
896,-31,18,-1019,7700,-770,2310,,,,,,,0x03,
906,-50,48,-1033,10010,-1540,2590,,,,,,,0x03,
916,-55,76,-1044,8330,-2100,2310,,,,,,,0x03,
925,-44,76,-1044,3850,-2380,1890,,,,,,,0x03,
935,-48,44,-1036,-1540,-2030,1470,,,,,,,0x03,
945,-56,8,-1013,-4480,-1540,1050,,,,,,,0x03,
954,-48,-6,-997,-3290,-1400,630,,,,,,,0x03,
964,-39,0,-990,-910,-1820,560,,,,,,,0x03,
973,-43,17,-1005,1330,-2100,630,,,,,,,0x03,
983,-44,35,-1016,2450,-2030,980,,,,,,,0x03,
993,-54,46,-1019,1610,-1750,1470,,,,,,,0x03,
1002,-65,33,-1016,560,-1260,1540,,,,,,,0x03,
1012,-76,17,-1012,840,-840,1400,,,,,,,0x03,
1022,-70,14,-1007,2520,-560,1120,,,,,,,0x03,
1031,-65,19,-1001,4060,-350,980,,,,,,,0x03,
1041,-57,37,-986,4550,140,630,,,,,,,0x03,
1051,-48,52,-964,4690,490,420,,,,,,,0x03,
1060,-50,55,-953,3570,560,630,,,,,,,0x03,
1070,-60,47,-954,2450,700,910,,,,,,,0x03,
1080,-70,37,-968,2240,980,1330,,,,,,,0x03,
1089,-63,36,-984,2450,1260,1540,,,,,,,0x03,
1099,-56,31,-993,1750,1330,1400,,,,,,,0x03,
1108,-60,25,-999,490,910,840,,,,,,,0x03,
1118,-64,30,-1021,-350,70,280,,,,,,,0x03,
1128,-54,28,-1045,-1610,-840,-140,,,,,,,0x03,
1137,-35,23,-1055,-2660,-770,-420,,,,,,,0x03,
1147,-37,4,-1053,-2940,-210,-560,,,,,,,0x03,
1157,-46,0,-1039,-2100,-70,-840,,,,,,,0x03,
1166,-51,0,-1019,-1120,-210,-1050,,,,,,,0x03,
1176,-55,9,-1003,140,-840,-1120,,,,,,,0x03,
1186,-61,27,-993,1120,-1680,-980,,,,,,,0x03,
1195,-56,47,-1000,140,-2030,-910,,,,,,,0x03,
1205,-41,58,-1000,-980,-1820,-910,,,,,,,0x03,
1214,-39,60,-992,-2800,-1330,-700,,,,,,,0x03,
1224,-44,50,-985,-4270,-630,-420,,,,,,,0x03,
1234,-56,32,-976,-3920,-210,70,,,,,,,0x03,
1243,-58,22,-964,-1890,-70,630,,,,,,,0x03,
1253,-55,29,-969,910,-210,980,,,,,,,0x03,
1263,-54,40,-987,2520,-560,980,,,,,,,0x03,
1272,-57,49,-995,1610,-560,910,,,,,,,0x03,
1282,-59,43,-992,-560,-420,980,,,,,,,0x03,
1292,-52,29,-987,-1750,-210,980,,,,,,,0x03,
1301,-54,12,-985,-1540,-210,840,,,,,,,0x03,
1311,-50,17,-989,70,-490,420,,,,,,,0x03,
1320,-37,31,-995,1400,-630,350,,,,,,,0x03,
1330,-34,50,-1015,2380,-560,490,,,,,,,0x03,
1340,-42,48,-1044,1680,-210,700,,,,,,,0x03,
1349,-56,39,-1050,840,630,980,,,,,,,0x03,
1359,-56,30,-1031,1820,980,1400,,,,,,,0x03,
1369,-47,24,-1016,3360,980,1400,,,,,,,0x03,
1378,-51,21,-1004,5250,630,1050,,,,,,,0x03,
1388,-55,32,-1002,7000,70,840,,,,,,,0x03,
1398,-55,44,-1004,7490,-350,910,,,,,,,0x03,
1407,-49,43,-1014,6230,-490,770,,,,,,,0x03,
1417,-43,38,-1007,4340,-210,770,,,,,,,0x03,
1427,-50,20,-995,2660,0,910,,,,,,,0x03,
1436,-53,4,-990,2310,0,770,,,,,,,0x03,
1446,-45,-4,-1000,3290,-210,490,,,,,,,0x03,
1455,-40,2,-1003,4760,-420,630,,,,,,,0x03,
1465,-44,10,-1011,5040,-140,770,,,,,,,0x03,
1475,-45,7,-1014,4270,420,630,,,,,,,0x03,
1484,-45,0,-1012,3710,630,420,,,,,,,0x03,
1494,-48,3,-1012,4130,350,350,,,,,,,0x03,
1504,-43,4,-1022,3780,-210,140,,,,,,,0x03,
1513,-44,5,-1027,2590,-560,140,,,,,,,0x03,
1523,-46,1,-1018,1190,-630,140,,,,,,,0x03,
1533,-37,-1,-1007,-140,-630,140,,,,,,,0x03,
1542,-45,-11,-1003,-1120,-770,-70,,,,,,,0x03,
1552,-52,-7,-1002,-1120,-1050,-280,,,,,,,0x03,
1561,-43,4,-1002,-280,-1260,-280,,,,,,,0x03,
1571,-29,18,-1011,-700,-1190,-280,,,,,,,0x03,
1581,-39,19,-1013,-2030,-1050,-140,,,,,,,0x03,
1590,-62,15,-1008,-3360,-980,-70,,,,,,,0x03,
1600,-52,17,-1001,-3850,-980,-70,,,,,,,0x03,
1610,-48,9,-999,-3710,-1190,-280,,,,,,,0x03,
1619,-54,15,-999,-3640,-1190,-490,,,,,,,0x03,
1629,-44,25,-1002,-3360,-1120,-490,,,,,,,0x03,
1639,-38,23,-1010,-3360,-1050,-280,,,,,,,0x03,
1648,-41,22,-1018,-3500,-910,-210,,,,,,,0x03,
1658,-43,18,-1009,-3430,-630,-70,,,,,,,0x03,
1667,-42,17,-1000,-3360,-420,-140,,,,,,,0x03,
1677,-48,17,-996,-2660,-630,-350,,,,,,,0x03,
1687,-54,18,-1008,-1820,-910,-700,,,,,,,0x03,
1696,-45,31,-1016,-910,-980,-700,,,,,,,0x03,
1706,-38,44,-1018,-770,-980,-630,,,,,,,0x03,
1716,-39,47,-1009,-2030,-840,-490,,,,,,,0x03,
1725,-50,26,-1008,-2940,-910,-350,,,,,,,0x03,
1735,-55,10,-1014,-2310,-910,-280,,,,,,,0x03,
1745,-49,13,-1007,-280,-840,-420,,,,,,,0x03,
1754,-47,16,-1000,910,-700,-350,,,,,,,0x03,
1764,-43,33,-1008,2170,-560,-490,,,,,,,0x03,
1773,-32,49,-1010,2310,-420,-280,,,,,,,0x03,
1783,-47,46,-1005,980,-560,0,,,,,,,0x03,
1793,-61,36,-1010,0,-630,70,,,,,,,0x03,
1802,-52,30,-1004,490,-490,210,,,,,,,0x03,
1812,-43,20,-1003,1330,-210,280,,,,,,,0x03,
1822,-41,17,-1001,2730,140,280,,,,,,,0x03,
1831,-39,19,-991,4340,630,630,,,,,,,0x03,
1841,-46,16,-987,4830,980,840,,,,,,,0x03,
1851,-52,18,-994,5320,840,910,,,,,,,0x03,
1860,-46,24,-1008,6020,420,770,,,,,,,0x03,
1870,-46,38,-1021,4900,0,490,,,,,,,0x03,
1880,-43,37,-1028,2730,-350,490,,,,,,,0x03,
1889,-48,13,-1025,840,-350,560,,,,,,,0x03,
1899,-51,-8,-1012,700,-210,560,,,,,,,0x03,
1908,-47,-11,-997,2870,-210,630,,,,,,,0x03,
1918,-31,-7,-1001,5180,-280,490,,,,,,,0x03,
1928,-27,12,-1008,5880,-70,350,,,,,,,0x03,
1937,-36,17,-1000,4060,210,420,,,,,,,0x03,
1947,-39,10,-991,840,490,630,,,,,,,0x03,
1957,-44,-9,-989,-1330,560,840,,,,,,,0x03,
1966,-52,-16,-993,-1260,560,700,,,,,,,0x03,
1976,-55,-12,-996,-630,630,490,,,,,,,0x03,
1986,-53,-4,-1012,-70,700,210,,,,,,,0x03,
1995,-41,5,-1026,-630,1120,-70,,,,,,,0x03,
2005,-42,10,-1022,-2380,1400,-140,,,,,,,0x03,
2014,-43,12,-1015,-4130,1260,-350,,,,,,,0x03,
2024,-35,11,-1012,-5040,840,-700,,,,,,,0x03,
2034,-42,13,-1014,-5110,350,-1120,,,,,,,0x03,
2043,-48,24,-1010,-5250,-70,-1190,,,,,,,0x03,
2053,-54,26,-1010,-5180,-70,-910,,,,,,,0x03,
2063,-41,25,-1005,-5250,280,-560,,,,,,,0x03,
2072,-39,21,-993,-5110,490,-280,,,,,,,0x03,
2082,-46,16,-987,-4550,490,-280,,,,,,,0x03,
2092,-41,20,-987,-3360,420,-420,,,,,,,0x03,
2101,-38,27,-989,-2520,280,-280,,,,,,,0x03,
2111,-40,35,-1002,-1890,210,-140,,,,,,,0x03,
2120,-39,36,-1024,-1470,770,-210,,,,,,,0x03,
2130,-40,40,-1023,-1890,1400,-140,,,,,,,0x03,
2140,-51,43,-1002,-2310,1820,350,,,,,,,0x03,
2149,-60,33,-990,-2310,1680,490,,,,,,,0x03,
2159,-44,29,-1004,-910,1050,280,,,,,,,0x03,
2169,-19,40,-1017,980,560,280,,,,,,,0x03,
2178,-30,44,-1026,1330,280,490,,,,,,,0x03,
2188,-43,41,-1031,350,0,840,,,,,,,0x03,
2198,-43,23,-1032,140,70,980,,,,,,,0x03,
2207,-41,7,-1020,700,140,980,,,,,,,0x03,
2217,-42,5,-1003,1890,280,840,,,,,,,0x03,
2227,-31,11,-991,2940,210,630,,,,,,,0x03,
2236,-23,14,-991,2940,420,490,,,,,,,0x03,
2246,-37,17,-988,2450,560,420,,,,,,,0x03,
2255,-44,24,-992,1680,420,490,,,,,,,0x03,
2265,-42,28,-1004,1400,210,700,,,,,,,0x03,
2275,-44,33,-1018,1190,-210,840,,,,,,,0x03,
2284,-50,33,-1032,770,-630,910,,,,,,,0x03,
2294,-46,27,-1045,980,-700,840,,,,,,,0x03,
2304,-39,33,-1041,1120,-770,840,,,,,,,0x03,
2313,-32,32,-1028,1050,-770,770,,,,,,,0x03,
2323,-23,26,-1023,1120,-980,560,,,,,,,0x03,
2333,-26,22,-1013,1330,-980,350,,,,,,,0x03,
2342,-40,20,-1002,1330,-1260,420,,,,,,,0x03,
2352,-43,15,-1004,1190,-1610,350,,,,,,,0x03,
2361,-33,13,-1009,980,-1540,210,,,,,,,0x03,
2371,-29,10,-1006,350,-1260,280,,,,,,,0x03,
2381,-37,1,-994,-840,-700,210,,,,,,,0x03,
2390,-42,-11,-981,-1750,-350,140,,,,,,,0x03,
2400,-47,-15,-974,-1330,-280,0,,,,,,,0x03,
2410,-33,-5,-975,-700,-210,-210,,,,,,,0x03,
2419,-19,6,-993,-350,-70,-350,,,,,,,0x03,
2429,-25,19,-1007,-700,70,-210,,,,,,,0x03,
2439,-42,30,-1016,-2170,280,-210,,,,,,,0x03,
2448,-39,31,-1021,-3640,560,-350,,,,,,,0x03,
2458,-33,26,-1008,-4480,560,-350,,,,,,,0x03,
2467,-45,25,-1005,-4200,210,-350,,,,,,,0x03,
2477,-38,30,-1013,-2660,-350,-420,,,,,,,0x03,
2487,-24,37,-1024,-1050,-490,-420,,,,,,,0x03,
2496,-27,45,-1032,-770,-350,-210,,,,,,,0x03,
2506,-30,48,-1024,-1540,70,-70,,,,,,,0x03,
2516,-33,37,-1004,-2240,280,0,,,,,,,0x03,
2525,-33,25,-988,-1890,280,-70,,,,,,,0x03,
2535,-38,18,-985,-280,70,70,,,,,,,0x03,
2545,-38,25,-994,1750,-210,140,,,,,,,0x03,
2554,-35,44,-1010,2870,-490,280,,,,,,,0x03,
2564,-31,53,-1018,1470,-560,420,,,,,,,0x03,
2573,-32,42,-1014,-1120,-350,560,,,,,,,0x03,
2583,-38,18,-1010,-2240,0,560,,,,,,,0x03,
2593,-34,0,-1009,-1050,210,490,,,,,,,0x03,
2602,-31,1,-1006,1540,420,490,,,,,,,0x03,
2612,-34,20,-1002,3780,490,350,,,,,,,0x03,
2622,-27,40,-997,3710,350,210,,,,,,,0x03,
2631,-30,48,-1003,2240,0,280,,,,,,,0x03,
2641,-30,47,-1016,700,-350,420,,,,,,,0x03,
2651,-27,37,-1023,-280,-210,630,,,,,,,0x03,
2660,-34,15,-1020,-350,-70,910,,,,,,,0x03,
2670,-57,-1,-1017,770,-70,910,,,,,,,0x03,
2680,-55,0,-1016,2940,-140,490,,,,,,,0x03,
2689,-28,15,-1014,4200,-280,70,,,,,,,0x03,
2699,-21,26,-1011,3710,-280,0,,,,,,,0x03,
2708,-33,33,-1012,2450,-280,-70,,,,,,,0x03,
2718,-36,28,-1013,910,-210,0,,,,,,,0x03,
2728,-33,16,-1007,-280,70,210,,,,,,,0x03,
2737,-40,6,-1003,-210,0,280,,,,,,,0x03,
2747,-38,3,-1018,210,-350,-140,,,,,,,0x03,
2757,-37,1,-1030,1330,-630,-350,,,,,,,0x03,
2766,-41,8,-1037,1610,-910,-280,,,,,,,0x03,
2776,-36,16,-1033,1330,-980,-350,,,,,,,0x03,
2786,-35,14,-1015,210,-1050,-420,,,,,,,0x03,
2795,-36,10,-996,-1470,-1050,-490,,,,,,,0x03,
2805,-36,0,-986,-2030,-1190,-490,,,,,,,0x03,
2814,-28,-5,-989,-1540,-1050,-700,,,,,,,0x03,
2824,-13,-2,-1006,-700,-910,-910,,,,,,,0x03,
2834,-15,0,-1023,-280,-630,-910,,,,,,,0x03,
2843,-28,4,-1024,-490,-70,-840,,,,,,,0x03,
2853,-41,0,-1005,-1680,350,-630,,,,,,,0x03,
2863,-48,-7,-986,-2590,280,-420,,,,,,,0x03,
2872,-42,-7,-991,-1750,-350,-630,,,,,,,0x03,
2882,-27,12,-1005,-560,-840,-1050,,,,,,,0x03,
2892,-26,42,-1009,-1470,-700,-1190,,,,,,,0x03,
2901,-35,47,-1009,-4550,-210,-980,,,,,,,0x03,
2911,-30,36,-995,-6860,280,-700,,,,,,,0x03,
2920,-30,16,-991,-7490,280,-630,,,,,,,0x03,
2930,-37,10,-993,-5810,0,-630,,,,,,,0x03,
2940,-33,24,-1001,-3360,-210,-630,,,,,,,0x03,
2949,-24,47,-1008,-1820,-210,-560,,,,,,,0x03,
2959,-29,57,-1009,-2310,-140,-210,,,,,,,0x03,
2969,-44,51,-1013,-3570,0,140,,,,,,,0x03,
2978,-40,43,-1007,-3640,210,350,,,,,,,0x03,
2988,-34,38,-992,-2660,280,420,,,,,,,0x03,
2998,-34,41,-988,-1400,70,350,,,,,,,0x03,
3007,-33,52,-990,280,-210,280,,,,,,,0x03,
3017,-38,56,-1002,1120,-350,490,,,,,,,0x03,
3027,-33,61,-1014,1400,-210,770,,,,,,,0x03,
3036,-24,59,-1011,1400,70,1120,,,,,,,0x03,
3046,-29,45,-1001,700,350,1330,,,,,,,0x03,
3055,-40,29,-995,1260,630,1400,,,,,,,0x03,
3065,-36,21,-988,3010,700,1470,,,,,,,0x03,
3075,-24,31,-994,4830,630,1470,,,,,,,0x03,
3084,-20,43,-1004,5810,630,1400,,,,,,,0x03,
3094,-30,42,-1014,5040,630,1470,,,,,,,0x03,
3104,-37,35,-1020,3500,770,1680,,,,,,,0x03,
3113,-30,19,-1018,2590,910,1890,,,,,,,0x03,
3123,-21,6,-1009,2590,980,1750,,,,,,,0x03,
3133,-24,0,-1001,3080,700,1400,,,,,,,0x03,
3142,-28,2,-1003,3780,210,1050,,,,,,,0x03,
3152,-20,8,-1018,3850,-70,910,,,,,,,0x03,
3161,-18,18,-1026,3080,140,910,,,,,,,0x03,
3171,-24,15,-1025,1400,140,1120,,,,,,,0x03,
3181,-32,9,-1020,140,-210,980,,,,,,,0x03,
3190,-33,5,-1026,-70,-770,630,,,,,,,0x03,
3200,-27,5,-1025,210,-980,350,,,,,,,0x03,
3210,-38,10,-1020,560,-980,280,,,,,,,0x03,
3219,-35,18,-1018,770,-910,210,,,,,,,0x03,
3229,-25,25,-1008,840,-910,210,,,,,,,0x03,
3239,-33,30,-1002,-280,-980,70,,,,,,,0x03,
3248,-28,31,-1000,-1260,-1050,210,,,,,,,0x03,
3258,-27,25,-998,-1470,-980,280,,,,,,,0x03,
3267,-39,21,-998,-910,-840,280,,,,,,,0x03,
3277,-40,23,-1001,0,-1050,350,,,,,,,0x03,
3287,-38,24,-1004,770,-1190,420,,,,,,,0x03,
3296,-38,30,-1017,1750,-1470,350,,,,,,,0x03,
3306,-33,38,-1033,1890,-1820,280,,,,,,,0x03,
3316,-27,41,-1041,1330,-2030,350,,,,,,,0x03,
3325,-24,34,-1035,700,-2170,420,,,,,,,0x03,
3335,-28,27,-1024,560,-2310,490,,,,,,,0x03,
3345,-28,21,-1011,1050,-2520,420,,,,,,,0x03,
3354,-38,13,-1008,1960,-2800,490,,,,,,,0x03,
3364,-38,19,-1011,3220,-2730,420,,,,,,,0x03,
3373,-31,25,-1009,3990,-2380,420,,,,,,,0x03,
3383,-26,28,-1003,3220,-2030,420,,,,,,,0x03,
3393,-22,24,-987,2100,-1470,560,,,,,,,0x03,
3402,-22,9,-973,1330,-1120,700,,,,,,,0x03,
3412,-23,0,-968,1330,-1050,840,,,,,,,0x03,
3422,-38,-10,-973,2450,-980,1120,,,,,,,0x03,
3431,-44,-6,-987,3570,-770,1120,,,,,,,0x03,
3441,-31,6,-1000,3780,-560,910,,,,,,,0x03,
3451,-24,10,-1012,2730,-420,910,,,,,,,0x03,
3460,-21,11,-1022,1330,-210,700,,,,,,,0x03,
3470,-14,5,-1023,560,0,560,,,,,,,0x03,
3480,-22,-3,-1014,490,210,770,,,,,,,0x03,
3489,-31,-4,-1010,1470,280,700,,,,,,,0x03,
3499,-25,1,-1011,2590,70,560,,,,,,,0x03,
3508,-28,7,-1019,2660,-210,350,,,,,,,0x03,
3518,-31,19,-1026,1890,-630,70,,,,,,,0x03,
3528,-25,23,-1031,420,-700,-140,,,,,,,0x03,
3537,-15,16,-1023,-1330,-490,-420,,,,,,,0x03,
3547,-22,7,-1003,-2310,-420,-280,,,,,,,0x03,
3557,-27,-1,-994,-1890,-560,-280,,,,,,,0x03,
3566,-28,-2,-997,-210,-630,-280,,,,,,,0x03,
3576,-32,8,-999,700,-700,-280,,,,,,,0x03,
3586,-28,27,-1002,-70,-770,-280,,,,,,,0x03,
3595,-23,31,-1005,-1890,-840,-490,,,,,,,0x03,
3605,-29,30,-1009,-3570,-770,-700,,,,,,,0x03,
3614,-36,31,-1009,-4550,-840,-630,,,,,,,0x03,
3624,-44,21,-1004,-4550,-980,-280,,,,,,,0x03,
3634,-40,18,-1011,-3010,-1190,-140,,,,,,,0x03,
3643,-33,19,-1014,-1260,-1120,-70,,,,,,,0x03,
3653,-37,23,-1020,-770,-700,-70,,,,,,,0x03,
3663,-35,24,-1011,-910,-280,-140,,,,,,,0x03,
3672,-34,18,-997,-1330,0,-140,,,,,,,0x03,
3682,-31,13,-989,-1330,140,-70,,,,,,,0x03,
3692,-38,7,-990,-420,140,210,,,,,,,0x03,
3701,-36,9,-997,560,210,280,,,,,,,0x03,
3711,-36,10,-1004,1050,560,350,,,,,,,0x03,
3720,-34,9,-1014,1680,1120,210,,,,,,,0x03,
3730,-31,12,-1006,1820,1400,70,,,,,,,0x03,
3740,-38,13,-1006,1330,1260,0,,,,,,,0x03,
3749,-28,12,-1008,1330,1120,-210,,,,,,,0x03,
3759,-32,11,-1006,1400,980,-210,,,,,,,0x03,
3769,-35,19,-1009,1470,630,-210,,,,,,,0x03,
3778,-24,29,-1020,980,0,-280,,,,,,,0x03,
3788,-16,34,-1030,-140,-350,-490,,,,,,,0x03,
3798,-23,30,-1028,-1540,-770,-420,,,,,,,0x03,
3807,-24,20,-1022,-2660,-910,-210,,,,,,,0x03,
3817,-14,6,-1017,-1820,-910,-140,,,,,,,0x03,
3827,-14,0,-1013,70,-700,70,,,,,,,0x03,
3836,-20,1,-1012,1820,-490,210,,,,,,,0x03,
3846,-19,12,-1010,3010,-490,280,,,,,,,0x03,
3855,-18,20,-1004,2660,-630,140,,,,,,,0x03,
3865,-20,27,-1010,1470,-910,-140,,,,,,,0x03,
3875,-23,26,-1008,350,-1120,-70,,,,,,,0x03,
3884,-26,23,-1008,-1050,-1260,0,,,,,,,0x03,
3894,-20,25,-1001,-1890,-1470,-280,,,,,,,0x03,
3904,-18,20,-1009,-2240,-2100,-490,,,,,,,0x03,
3913,-23,25,-1029,-1470,-2380,-630,,,,,,,0x03,
3923,-30,32,-1041,-350,-2730,-560,,,,,,,0x03,
3933,-33,40,-1047,-210,-3010,-210,,,,,,,0x03,
3942,-44,33,-1042,-1050,-2870,0,,,,,,,0x03,
3952,-53,12,-1019,-1540,-2730,140,,,,,,,0x03,
3961,-52,-2,-1000,-630,-2870,0,,,,,,,0x03,
3971,-34,-2,-985,1610,-2800,-350,,,,,,,0x03,
3981,-19,7,-984,3570,-2660,-630,,,,,,,0x03,
3990,-19,17,-992,3920,-2380,-700,,,,,,,0x03,
4000,-30,28,-988,3010,-2030,-490,,,,,,,0x03,
4010,-41,20,-986,1190,-1820,-70,,,,,,,0x03,
4019,-49,7,-993,280,-1820,-70,,,,,,,0x03,
4029,-42,6,-1001,1120,-1890,-210,,,,,,,0x03,
4039,-38,16,-1013,1680,-2100,-210,,,,,,,0x03,
4048,-38,23,-1018,1400,-2240,-210,,,,,,,0x03,
4058,-43,15,-1021,840,-2240,-210,,,,,,,0x03,
4067,-33,12,-1028,1750,-2100,-210,,,,,,,0x03,
4077,-24,12,-1019,2730,-1960,-70,,,,,,,0x03,
4087,-29,14,-1002,3080,-1820,0,,,,,,,0x03,
4096,-35,16,-988,3220,-1820,0,,,,,,,0x03,
4106,-35,17,-980,3220,-1610,140,,,,,,,0x03,
4116,-36,21,-979,3570,-1260,350,,,,,,,0x03,
4125,-43,16,-992,3570,-910,420,,,,,,,0x03,
4135,-54,19,-998,3150,-770,560,,,,,,,0x03,
4145,-53,17,-1009,2100,-700,490,,,,,,,0x03,
4154,-33,10,-1009,840,-490,350,,,,,,,0x03,
4164,-26,1,-1005,700,-280,280,,,,,,,0x03,
4173,-27,-2,-1001,1470,0,350,,,,,,,0x03,
4183,-30,-4,-993,2590,350,420,,,,,,,0x03,
4193,-38,-7,-990,3570,770,700,,,,,,,0x03,
4202,-32,-9,-993,4130,1120,840,,,,,,,0x03,
4212,-26,5,-996,4480,1330,560,,,,,,,0x03,
4222,-29,11,-1003,3150,1190,350,,,,,,,0x03,
4231,-29,10,-1018,1260,1050,70,,,,,,,0x03,
4241,-28,3,-1023,0,1050,0,,,,,,,0x03,
4251,-43,-3,-1022,-210,1050,210,,,,,,,0x03,
4260,-45,-3,-1019,840,980,140,,,,,,,0x03,
4270,-35,1,-1033,2310,560,-70,,,,,,,0x03,
4280,-21,10,-1043,2870,420,-140,,,,,,,0x03,
4289,-22,20,-1024,2380,700,-70,,,,,,,0x03,
4299,-33,16,-1001,1400,560,70,,,,,,,0x03,
4308,-29,2,-993,770,420,70,,,,,,,0x03,
4318,-35,-12,-981,1120,490,350,,,,,,,0x03,
4328,-34,-11,-977,2100,630,490,,,,,,,0x03,
4337,-19,-8,-986,2520,420,420,,,,,,,0x03,
4347,-17,-3,-1007,1960,420,70,,,,,,,0x03,
4357,-24,6,-1017,420,420,-210,,,,,,,0x03,
4366,-31,4,-1015,-2100,280,-70,,,,,,,0x03,
4376,-33,-5,-1022,-3850,-70,0,,,,,,,0x03,
4386,-23,-15,-1029,-3640,-420,-70,,,,,,,0x03,
4395,-16,-11,-1034,-1890,-700,-280,,,,,,,0x03,
4405,-21,-1,-1025,-1400,-630,-350,,,,,,,0x03,
4414,-25,-2,-1021,-1260,-350,-350,,,,,,,0x03,
4424,-22,-5,-1009,-770,-70,-280,,,,,,,0x03,
4434,-31,-5,-997,-490,0,-280,,,,,,,0x03,
4443,-34,0,-997,140,-210,-490,,,,,,,0x03,
4453,-30,12,-996,70,-350,-560,,,,,,,0x03,
4463,-27,19,-1007,-1120,-420,-560,,,,,,,0x03,
4472,-22,21,-1016,-2450,-420,-770,,,,,,,0x03,
4482,-32,14,-1019,-3640,-560,-910,,,,,,,0x03,
4492,-43,12,-1019,-3710,-490,-840,,,,,,,0x03,
4501,-40,9,-1017,-3080,-630,-700,,,,,,,0x03,
4511,-31,16,-1014,-2310,-840,-700,,,,,,,0x03,
4520,-28,20,-1007,-1960,-1120,-770,,,,,,,0x03,
4530,-32,25,-1002,-2100,-1260,-840,,,,,,,0x03,
4540,-28,26,-997,-1750,-1190,-560,,,,,,,0x03,
4549,-27,21,-997,-1330,-1120,-280,,,,,,,0x03,
4559,-25,16,-1001,-630,-840,-140,,,,,,,0x03,
4569,-25,12,-1002,280,-700,70,,,,,,,0x03,
4578,-39,7,-1013,840,-840,140,,,,,,,0x03,
4588,-42,5,-1016,1330,-910,70,,,,,,,0x03,
4598,-34,8,-1026,2100,-1120,-70,,,,,,,0x03,
4607,-33,12,-1021,2100,-1190,0,,,,,,,0x03,
4617,-36,11,-1011,1400,-910,-140,,,,,,,0x03,
4627,-29,5,-996,1120,-490,-140,,,,,,,0x03,
4636,-28,-1,-987,1400,-210,0,,,,,,,0x03,
4646,-28,-3,-987,2450,0,70,,,,,,,0x03,
4655,-30,4,-989,3570,0,140,,,,,,,0x03,
4665,-32,10,-998,3010,-70,280,,,,,,,0x03,
4675,-26,14,-1011,1890,0,210,,,,,,,0x03,
4684,-23,7,-1028,1050,-420,-70,,,,,,,0x03,
4694,-28,1,-1035,140,-490,-210,,,,,,,0x03,
4704,-39,-5,-1026,-210,-420,-70,,,,,,,0x03,
4713,-32,-12,-1011,-350,-350,-140,,,,,,,0x03,
4723,-19,-17,-999,560,-280,-420,,,,,,,0x03,
4733,-23,-15,-994,1470,-350,-700,,,,,,,0x03,
4742,-24,8,-994,1260,-280,-840,,,,,,,0x03,
4752,-24,19,-992,-630,-140,-630,,,,,,,0x03,
4761,-30,14,-991,-3710,70,-560,,,,,,,0x03,
4771,-32,0,-995,-5670,210,-490,,,,,,,0x03,
4781,-28,-4,-994,-5740,350,-700,,,,,,,0x03,
4790,-36,-1,-988,-5740,420,-700,,,,,,,0x03,
4800,-52,-4,-985,-5390,350,-560,,,,,,,0x03,
4810,-51,0,-1002,-3710,280,-560,,,,,,,0x03,
4819,-15,24,-1016,-1890,-140,-560,,,,,,,0x03,
4829,7,41,-1036,-1610,-420,-490,,,,,,,0x03,
4839,1,46,-1049,-2590,-70,-70,,,,,,,0x03,
4848,-28,22,-1040,-3640,70,490,,,,,,,0x03,
4858,-45,1,-1032,-2450,-210,840,,,,,,,0x03,
4867,-44,-13,-1033,490,-770,910,,,,,,,0x03,
4877,-31,-1,-1043,3430,-1470,490,,,,,,,0x03,
4887,-16,18,-1037,4270,-1960,0,,,,,,,0x03,
4896,-19,20,-1031,2240,-2030,-210,,,,,,,0x03,
4906,-24,18,-1015,280,-2170,-280,,,,,,,0x03,
4916,-22,6,-1003,-910,-2380,-210,,,,,,,0x03,
4925,-22,-2,-988,-1470,-2660,-280,,,,,,,0x03,
4935,-40,-4,-984,-1820,-2800,-280,,,,,,,0x03,
4945,-34,5,-1000,-1120,-2870,-420,,,,,,,0x03,
4954,-17,13,-1006,-1330,-2660,-490,,,,,,,0x03,
4964,-30,14,-1015,-2170,-2240,-490,,,,,,,0x03,
4973,-32,16,-1011,-2380,-1680,-630,,,,,,,0x03,
4983,-39,14,-995,-2520,-1330,-490,,,,,,,0x03,
4993,-43,14,-991,-1820,-1400,-490,,,,,,,0x03,
5002,-38,15,-1002,-910,-1890,-630,,,,,,,0x03,
5012,-37,26,-1009,-350,-1820,-630,,,,,,,0x03,
5022,-24,37,-1002,-630,-1470,-560,,,,,,,0x03,
5031,-25,25,-997,-2100,-770,-420,,,,,,,0x03,
5041,-42,7,-985,-2800,210,-210,,,,,,,0x03,
5051,-44,-5,-964,-1400,980,280,,,,,,,0x03,
5060,-36,-12,-967,1190,1400,630,,,,,,,0x03,
5070,-35,-8,-985,4340,1470,490,,,,,,,0x03,
5080,-39,12,-1012,5810,1120,210,,,,,,,0x03,
5089,-29,33,-1027,5040,910,0,,,,,,,0x03,
5099,-23,35,-1040,2590,770,0,,,,,,,0x03,
5108,-13,22,-1044,560,700,-70,,,,,,,0x03,
5118,-11,9,-1042,840,630,-70,,,,,,,0x03,
5128,-17,10,-1038,3150,350,-350,,,,,,,0x03,
5137,-21,27,-1031,5600,-140,-630,,,,,,,0x03,
5147,-26,47,-1027,6650,-700,-910,,,,,,,0x03,
5157,-28,60,-1021,5670,-1330,-840,,,,,,,0x03,
5166,-35,54,-1028,3640,-1820,-560,,,,,,,0x03,
5176,-26,42,-1020,2240,-1960,-350,,,,,,,0x03,
5186,-29,14,-998,1120,-1820,70,,,,,,,0x03,
5195,-31,-2,-977,1610,-1610,350,,,,,,,0x03,
5205,-25,-13,-961,3570,-1540,630,,,,,,,0x03,
5214,-35,-21,-969,5250,-1750,560,,,,,,,0x03,
5224,-34,-8,-992,7000,-1820,420,,,,,,,0x03,
5234,-24,14,-1004,6720,-1820,560,,,,,,,0x03,
5243,-15,20,-1010,3290,-1540,560,,,,,,,0x03,
5253,-16,1,-1006,-560,-1400,700,,,,,,,0x03,
5263,-27,-35,-1016,-3080,-1400,770,,,,,,,0x03,
5272,-30,-50,-1017,-2240,-1190,490,,,,,,,0x03,
5282,-28,-57,-1016,-700,-980,210,,,,,,,0x03,
5292,-21,-46,-1011,-140,-700,-70,,,,,,,0x03,
5301,-23,-36,-998,-700,-420,-490,,,,,,,0x03,
5311,-29,-28,-998,-2380,-350,-980,,,,,,,0x03,
5320,-28,-17,-1002,-3570,-350,-1190,,,,,,,0x03,
5330,-29,-6,-1008,-4620,-490,-1330,,,,,,,0x03,
5340,-29,7,-1014,-5810,-490,-1400,,,,,,,0x03,
5349,-31,14,-1016,-7070,-280,-1330,,,,,,,0x03,
5359,-30,15,-1009,-7840,-140,-1260,,,,,,,0x03,
5369,-29,12,-1003,-6860,0,-1190,,,,,,,0x03,
5378,-37,15,-1002,-5040,-70,-1260,,,,,,,0x03,
5388,-49,32,-1006,-2730,-350,-1330,,,,,,,0x03,
5398,-47,51,-1013,-1190,-560,-1190,,,,,,,0x03,
5407,-35,62,-1019,-1680,-630,-910,,,,,,,0x03,
5417,-21,65,-1023,-2800,-560,-840,,,,,,,0x03,
5427,-29,47,-1009,-3430,-350,-420,,,,,,,0x03,
5436,-40,23,-991,-2590,70,-70,,,,,,,0x03,
5446,-33,8,-977,630,350,280,,,,,,,0x03,
5455,-26,9,-980,4480,350,420,,,,,,,0x03,
5465,-31,24,-997,7490,280,280,,,,,,,0x03,
5475,-34,41,-1016,8050,350,350,,,,,,,0x03,
5484,-32,49,-1018,6090,490,700,,,,,,,0x03,
5494,-33,30,-1014,3150,700,1050,,,,,,,0x03,
5504,-34,-1,-1014,1820,560,910,,,,,,,0x03,
5513,-27,-18,-1013,3360,420,910,,,,,,,0x03,
5523,-22,-18,-1006,5460,490,980,,,,,,,0x03,
5533,-35,-10,-1002,6580,350,840,,,,,,,0x03,
5542,-28,1,-1010,6860,0,630,,,,,,,0x03,
5552,-18,3,-1024,5950,-420,490,,,,,,,0x03,
5561,-17,0,-1034,4130,-490,280,,,,,,,0x03,
5571,-15,-6,-1027,2030,-420,350,,,,,,,0x03,
5581,-27,-26,-1015,210,-350,350,,,,,,,0x03,
5590,-31,-43,-1008,0,-420,70,,,,,,,0x03,
5600,-17,-42,-1003,1330,-700,-210,,,,,,,0x03,
5610,-20,-26,-1002,1890,-910,-420,,,,,,,0x03,
5619,-26,-8,-1008,1260,-1050,-700,,,,,,,0x03,
5629,-19,3,-1005,-770,-1050,-840,,,,,,,0x03,
5639,-26,7,-1000,-3150,-980,-1050,,,,,,,0x03,
5648,-33,6,-1001,-4830,-1050,-1120,,,,,,,0x03,
5658,-29,7,-1015,-4830,-1470,-1120,,,,,,,0x03,
5667,-24,13,-1026,-3920,-1750,-980,,,,,,,0x03,
5677,-32,25,-1028,-3080,-2030,-840,,,,,,,0x03,
5687,-28,34,-1020,-3640,-2100,-700,,,,,,,0x03,
5696,-30,24,-1019,-4060,-2100,-420,,,,,,,0x03,
5706,-26,5,-1017,-3640,-1890,-280,,,,,,,0x03,
5716,-30,-5,-996,-1680,-1260,0,,,,,,,0x03,
5725,-41,-6,-976,700,-770,280,,,,,,,0x03,
5735,-28,-1,-974,2380,-770,280,,,,,,,0x03,
5745,-23,4,-988,3150,-910,140,,,,,,,0x03,
5754,-24,21,-1012,2940,-910,-140,,,,,,,0x03,
5764,-27,24,-1021,1400,-770,0,,,,,,,0x03,
5773,-41,17,-1022,-1260,-700,70,,,,,,,0x03,
5783,-38,6,-1022,-2590,-980,-140,,,,,,,0x03,
5793,-25,-4,-1024,-1890,-1120,-350,,,,,,,0x03,
5802,-21,-2,-1016,-280,-1120,-420,,,,,,,0x03,
5812,-29,4,-1011,1330,-1120,-350,,,,,,,0x03,
5822,-27,12,-1013,2170,-1190,-420,,,,,,,0x03,
5831,-36,12,-1008,1960,-1190,-630,,,,,,,0x03,
5841,-45,12,-1002,420,-1260,-700,,,,,,,0x03,
5851,-32,7,-995,-840,-980,-560,,,,,,,0x03,
5860,-14,0,-983,-1540,-560,-280,,,,,,,0x03,
5870,-17,-10,-967,-1540,140,-140,,,,,,,0x03,
5880,-26,-24,-963,-140,490,140,,,,,,,0x03,
5889,-24,-18,-977,2310,840,280,,,,,,,0x03,
5899,-28,1,-994,3850,1190,210,,,,,,,0x03,
5908,-42,17,-1016,2730,1120,210,,,,,,,0x03,
5918,-42,24,-1037,490,700,140,,,,,,,0x03,
5928,-36,21,-1049,-1890,70,280,,,,,,,0x03,
5937,-21,8,-1060,-3290,-280,70,,,,,,,0x03,
5947,-19,-5,-1049,-3080,-490,0,,,,,,,0x03,
5957,-27,-11,-1027,-2590,-700,-140,,,,,,,0x03,
5966,-29,-11,-1010,-1190,-910,-210,,,,,,,0x03,
5976,-27,-7,-988,-490,-560,-210,,,,,,,0x03,
5986,-31,0,-969,-630,-350,-70,,,,,,,0x03,
5995,-38,0,-965,-1890,-560,140,,,,,,,0x03,
6005,-40,4,-983,-3220,-1050,70,,,,,,,0x03,
6014,-20,6,-1008,-5180,-1260,-210,,,,,,,0x03,
6024,-12,2,-1014,-7420,-770,-140,,,,,,,0x03,
6034,-18,-11,-1012,-8610,-350,-70,,,,,,,0x03,
6043,-23,-21,-1014,-7700,-420,-70,,,,,,,0x03,
6053,-32,-17,-1025,-4830,-840,-280,,,,,,,0x03,
6063,-31,2,-1038,-2940,-1050,-350,,,,,,,0x03,
6072,-25,28,-1036,-3080,-1050,-490,,,,,,,0x03,
6082,-33,35,-1025,-5670,-1050,-840,,,,,,,0x03,
6092,-35,29,-1017,-8470,-1470,-1260,,,,,,,0x03,
6101,-18,20,-1008,-10080,-1610,-1680,,,,,,,0x03,
6111,-15,14,-992,-10220,-1330,-1680,,,,,,,0x03,
6120,-11,12,-981,-8470,-910,-1400,,,,,,,0x03,
6130,-7,16,-978,-5530,-560,-910,,,,,,,0x03,
6140,-23,26,-988,-2450,-560,-630,,,,,,,0x03,
6149,-38,43,-1007,-980,-560,-420,,,,,,,0x03,
6159,-45,54,-1018,-1190,-490,-210,,,,,,,0x03,
6169,-38,49,-1013,-2940,-210,-210,,,,,,,0x03,
6178,-35,33,-1010,-3500,-280,-280,,,,,,,0x03,
6188,-33,31,-1012,-2170,-700,-490,,,,,,,0x03,
6198,-22,43,-1021,-280,-980,-490,,,,,,,0x03,
6207,-19,56,-1036,1470,-1190,-490,,,,,,,0x03,
6217,-25,61,-1032,1470,-1190,-210,,,,,,,0x03,
6227,-47,47,-1022,700,-1120,140,,,,,,,0x03,
6236,-42,30,-1009,1260,-1120,210,,,,,,,0x03,
6246,-32,17,-1004,2730,-1260,280,,,,,,,0x03,
6255,-20,18,-998,4060,-1400,70,,,,,,,0x03,
6265,-26,25,-999,4480,-1470,-140,,,,,,,0x03,
6275,-33,27,-1004,3920,-1330,-70,,,,,,,0x03,
6284,-36,21,-996,3150,-980,70,,,,,,,0x03,
6294,-38,9,-992,2590,-840,350,,,,,,,0x03,
6304,-40,2,-993,3360,-770,420,,,,,,,0x03,
6313,-31,6,-1003,3850,-910,210,,,,,,,0x03,
6323,-12,20,-1000,2940,-840,-140,,,,,,,0x03,
6333,-23,11,-998,910,-700,-70,,,,,,,0x03,
6342,-27,6,-1009,-280,-630,-140,,,,,,,0x03,
6352,-19,0,-1017,-140,-560,-70,,,,,,,0x03,
6361,-16,1,-1021,490,-420,0,,,,,,,0x03,
6371,-22,7,-1029,840,-700,-210,,,,,,,0x03,
6381,-30,14,-1036,980,-1190,-630,,,,,,,0x03,
6390,-39,24,-1032,420,-1610,-1050,,,,,,,0x03,
6400,-34,31,-1025,-1190,-2100,-1260,,,,,,,0x03,
6410,-20,30,-1021,-2310,-2380,-1470,,,,,,,0x03,
6419,-17,26,-1007,-2730,-2520,-1470,,,,,,,0x03,
6429,-24,24,-998,-2450,-2450,-1050,,,,,,,0x03,
6439,-25,27,-991,-1820,-2380,-770,,,,,,,0x03,
6448,-27,32,-989,-1610,-2380,-840,,,,,,,0x03,
6458,-34,36,-995,-1960,-2380,-910,,,,,,,0x03,
6467,-32,39,-1005,-2660,-2380,-770,,,,,,,0x03,
6477,-30,34,-1008,-3640,-2590,-490,,,,,,,0x03,
6487,-27,27,-1012,-4060,-2590,-140,,,,,,,0x03,
6496,-33,7,-1016,-3500,-2380,140,,,,,,,0x03,
6506,-33,1,-1010,-1540,-1960,0,,,,,,,0x03,
6516,-33,11,-1002,490,-1750,-70,,,,,,,0x03,
6525,-30,16,-1004,1120,-1820,-140,,,,,,,0x03,
6535,-28,21,-1009,1330,-1680,-280,,,,,,,0x03,
6545,-37,21,-1009,980,-1400,-280,,,,,,,0x03,
6554,-39,14,-1010,-70,-1190,-280,,,,,,,0x03,
6564,-38,4,-1004,-560,-840,-280,,,,,,,0x03,
6573,-45,-2,-993,0,-490,-280,,,,,,,0x03,
6583,-36,0,-989,1120,70,-420,,,,,,,0x03,
6593,-22,8,-983,1890,700,-490,,,,,,,0x03,
6602,-32,14,-977,1960,1050,-490,,,,,,,0x03,
6612,-45,19,-975,1400,1260,-350,,,,,,,0x03,
6622,-44,18,-985,770,1120,-210,,,,,,,0x03,
6631,-38,27,-1007,630,840,-350,,,,,,,0x03,
6641,-37,33,-1023,-210,560,-630,,,,,,,0x03,
6651,-38,33,-1042,-1750,420,-630,,,,,,,0x03,
6660,-30,24,-1050,-1890,560,-630,,,,,,,0x03,
6670,-25,18,-1040,-630,490,-630,,,,,,,0x03,
6680,-30,18,-1017,420,420,-350,,,,,,,0x03,
6689,-41,14,-1008,1890,210,-280,,,,,,,0x03,
6699,-30,21,-1006,3430,-70,-420,,,,,,,0x03,
6708,-21,32,-1005,3430,-350,-490,,,,,,,0x03,
6718,-21,37,-1003,1960,-420,-420,,,,,,,0x03,
6728,-21,34,-995,0,-350,-420,,,,,,,0x03,
6737,-17,21,-996,-1610,-350,-420,,,,,,,0x03,
6747,-8,10,-996,-2310,-70,-420,,,,,,,0x03,
6757,-20,1,-984,-2100,280,-210,,,,,,,0x03,
6766,-37,-3,-985,-1120,350,70,,,,,,,0x03,
6776,-33,4,-1004,910,0,-70,,,,,,,0x03,
6786,-30,22,-1026,2380,-280,-140,,,,,,,0x03,
6795,-32,35,-1045,2170,-280,-210,,,,,,,0x03,
6805,-40,38,-1050,1260,-140,-70,,,,,,,0x03,
6814,-37,28,-1038,770,-70,70,,,,,,,0x03,
6824,-33,15,-1019,1260,-350,210,,,,,,,0x03,
6834,-35,8,-1014,2730,-700,140,,,,,,,0x03,
6843,-28,16,-1011,4410,-910,-70,,,,,,,0x03,
6853,-32,22,-1007,4550,-1120,-70,,,,,,,0x03,
6863,-24,30,-1005,3640,-910,-70,,,,,,,0x03,
6872,-17,30,-1002,2310,-700,-70,,,,,,,0x03,
6882,-30,23,-996,980,-700,70,,,,,,,0x03,
6892,-42,7,-994,630,-980,140,,,,,,,0x03,
6901,-35,0,-1002,1680,-1260,140,,,,,,,0x03,
6911,-33,3,-1012,2590,-1470,210,,,,,,,0x03,
6920,-34,6,-1018,2870,-1470,70,,,,,,,0x03,
6930,-31,12,-1016,2240,-1610,-140,,,,,,,0x03,
6940,-30,13,-1018,980,-1540,-420,,,,,,,0x03,
6949,-24,8,-1014,-210,-1400,-560,,,,,,,0x03,
6959,-30,1,-1000,-910,-1330,-490,,,,,,,0x03,
6969,-24,2,-1000,-210,-1330,-630,,,,,,,0x03,
6978,-17,9,-1007,980,-1330,-910,,,,,,,0x03,
6988,-24,23,-1008,1120,-1260,-840,,,,,,,0x03,
6998,-29,29,-1008,350,-1330,-700,,,,,,,0x03,
7007,-31,27,-1007,-1050,-1400,-630,,,,,,,0x03,
7017,-37,23,-1007,-1680,-1680,-630,,,,,,,0x03,
7027,-38,20,-1010,-1890,-2030,-700,,,,,,,0x03,
7036,-34,20,-1018,-2100,-2030,-770,,,,,,,0x03,
7046,-34,21,-1008,-2170,-1610,-770,,,,,,,0x03,
7055,-33,15,-1003,-2380,-1190,-560,,,,,,,0x03,
7065,-29,9,-989,-1610,-630,-420,,,,,,,0x03,
7075,-38,4,-972,-140,-210,-70,,,,,,,0x03,
7084,-41,11,-958,1050,70,0,,,,,,,0x03,
7094,-36,15,-966,1680,-70,280,,,,,,,0x03,
7104,-28,19,-997,1470,-140,280,,,,,,,0x03,
7113,-26,22,-1029,630,-70,210,,,,,,,0x03,
7123,-31,18,-1044,-630,-140,280,,,,,,,0x03,
7133,-27,8,-1049,-1470,280,70,,,,,,,0x03,
7142,-22,-1,-1027,-1260,700,0,,,,,,,0x03,
7152,-32,-6,-1000,210,560,70,,,,,,,0x03,
7161,-43,-5,-998,2310,140,70,,,,,,,0x03,
7171,-35,10,-1007,4480,-140,-210,,,,,,,0x03,
7181,-30,31,-1013,4340,-280,-210,,,,,,,0x03,
7190,-37,42,-1016,1890,-210,-280,,,,,,,0x03,
7200,-35,36,-1011,-1260,-70,-280,,,,,,,0x03,
7210,-30,16,-1005,-3220,70,-280,,,,,,,0x03,
7219,-19,0,-996,-2800,350,-350,,,,,,,0x03,
7229,-20,-5,-988,-980,630,-280,,,,,,,0x03,
7239,-28,-2,-987,1260,910,-70,,,,,,,0x03,
7248,-25,13,-991,2660,1190,140,,,,,,,0x03,
7258,-21,21,-999,2240,1190,140,,,,,,,0x03,
7267,-23,23,-1011,840,1120,-70,,,,,,,0x03,
7277,-33,22,-1014,-280,840,-210,,,,,,,0x03,
7287,-34,25,-1018,-910,630,-350,,,,,,,0x03,
7296,-26,22,-1026,-840,420,-490,,,,,,,0x03,
7306,-15,21,-1036,-70,140,-490,,,,,,,0x03,
7316,-7,24,-1045,840,0,-560,,,,,,,0x03,
7325,-10,25,-1037,770,140,-490,,,,,,,0x03,
7335,-27,15,-1021,840,-70,-420,,,,,,,0x03,
7345,-35,2,-1004,1050,0,-490,,,,,,,0x03,
7354,-45,-5,-979,1750,420,-560,,,,,,,0x03,
7364,-36,2,-958,3290,1120,-770,,,,,,,0x03,
7373,-11,11,-948,3850,1750,-630,,,,,,,0x03,
7383,0,14,-952,3290,2380,-280,,,,,,,0x03,
7393,-1,20,-962,2520,2800,280,,,,,,,0x03,
7402,-16,14,-977,1960,3010,1120,,,,,,,0x03,
7412,-27,7,-1001,2310,2450,1470,,,,,,,0x03,
7422,-34,11,-1034,3430,1330,1330,,,,,,,0x03,
7431,-37,25,-1078,3220,70,840,,,,,,,0x03,
7441,-31,34,-1110,2380,-1050,280,,,,,,,0x03,
7451,-20,31,-1121,420,-1890,-210,,,,,,,0x03,
7460,-17,16,-1103,-1400,-2450,-560,,,,,,,0x03,
7470,-21,2,-1064,-1610,-3150,-840,,,,,,,0x03,
7480,-21,-3,-1033,-350,-3990,-1120,,,,,,,0x03,
7489,-19,-1,-1019,1960,-4410,-1120,,,,,,,0x03,
7499,-23,12,-1005,3500,-4340,-1120,,,,,,,0x03,
7508,-34,23,-985,2800,-4130,-840,,,,,,,0x03,
7518,-41,23,-978,1260,-3710,-770,,,,,,,0x03,
7528,-51,5,-972,-350,-3500,-630,,,,,,,0x03,
7537,-55,-1,-974,-630,-3430,-630,,,,,,,0x03,
7547,-47,-1,-971,210,-3150,-700,,,,,,,0x03,
7557,-42,0,-974,1330,-2660,-770,,,,,,,0x03,
7566,-28,9,-975,2240,-2030,-770,,,,,,,0x03,
7576,-23,20,-978,2590,-1400,-560,,,,,,,0x03,
7586,-37,20,-972,1960,-420,-210,,,,,,,0x03,
7595,-38,13,-959,980,700,210,,,,,,,0x03,
7605,-35,4,-954,1260,1330,770,,,,,,,0x03,
7614,-38,-7,-982,2730,1190,840,,,,,,,0x03,
7624,-33,0,-1017,4060,910,560,,,,,,,0x03,
7634,-23,13,-1037,3780,770,560,,,,,,,0x03,
7643,-19,5,-1045,1540,770,630,,,,,,,0x03,
7653,-27,-16,-1043,-420,770,490,,,,,,,0x03,
7663,-29,-29,-1035,70,700,210,,,,,,,0x03,
7672,-20,-26,-1027,1680,210,-70,,,,,,,0x03,
7682,-13,-10,-1024,2800,-350,-350,,,,,,,0x03,
7692,-18,5,-1024,1820,-840,-490,,,,,,,0x03,
7701,-24,14,-1027,-700,-1190,-700,,,,,,,0x03,
7711,-24,13,-1017,-3850,-1190,-770,,,,,,,0x03,
7720,-30,0,-1002,-6790,-1260,-770,,,,,,,0x03,
7730,-27,-16,-990,-7840,-1260,-840,,,,,,,0x03,
7740,-21,-24,-990,-6510,-980,-840,,,,,,,0x03,
7749,-17,-13,-985,-4270,-840,-560,,,,,,,0x03,
7759,-22,0,-985,-2940,-840,-490,,,,,,,0x03,
7769,-27,15,-1002,-3150,-910,-560,,,,,,,0x03,
7778,-30,28,-1012,-3780,-770,-770,,,,,,,0x03,
7788,-34,32,-1016,-4970,-700,-770,,,,,,,0x03,
7798,-36,27,-1011,-6020,-630,-630,,,,,,,0x03,
7807,-40,13,-1014,-5600,-910,-630,,,,,,,0x03,
7817,-28,14,-1017,-3780,-980,-630,,,,,,,0x03,
7827,-13,26,-1014,-2170,-980,-560,,,,,,,0x03,
7836,-20,31,-1015,-2240,-1400,-490,,,,,,,0x03,
7846,-27,27,-1026,-2590,-1470,-700,,,,,,,0x03,
7855,-26,27,-1031,-2380,-1400,-840,,,,,,,0x03,
7865,-32,26,-1019,-2730,-1190,-420,,,,,,,0x03,
7875,-43,12,-1002,-2940,-840,-210,,,,,,,0x03,
7884,-39,4,-991,-1190,-560,-210,,,,,,,0x03,
7894,-26,1,-979,1330,-280,-70,,,,,,,0x03,
7904,-26,11,-985,3710,-140,210,,,,,,,0x03,
7913,-22,25,-1002,5320,70,350,,,,,,,0x03,
7923,-23,33,-1013,4900,350,560,,,,,,,0x03,
7933,-30,29,-1018,2730,420,490,,,,,,,0x03,
7942,-33,15,-1019,1120,490,350,,,,,,,0x03,
7952,-33,-3,-1007,840,420,280,,,,,,,0x03,
7961,-43,-5,-1007,2170,140,70,,,,,,,0x03,
7971,-36,11,-1014,4480,-280,-280,,,,,,,0x03,
7981,-26,33,-1018,4550,-420,-280,,,,,,,0x03,
7990,-25,42,-1013,2310,-70,-210,,,,,,,0x03,
8000,-27,31,-1002,-70,210,-70,,,,,,,0x03,
8010,-33,4,-991,-1330,350,210,,,,,,,0x03,
8019,-34,-13,-983,-140,700,210,,,,,,,0x03,
8029,-32,-16,-975,2100,980,350,,,,,,,0x03,
8039,-26,-4,-980,3920,1120,420,,,,,,,0x03,
8048,-15,10,-999,4200,1120,210,,,,,,,0x03,
8058,-13,21,-1012,2730,1400,140,,,,,,,0x03,
8067,-20,16,-1018,0,1540,210,,,,,,,0x03,
8077,-22,3,-1014,-1750,1610,280,,,,,,,0x03,
8087,-23,-13,-1016,-1610,1330,280,,,,,,,0x03,
8096,-32,-15,-1019,-630,980,140,,,,,,,0x03,
8106,-31,-2,-1024,140,630,0,,,,,,,0x03,
8116,-12,6,-1026,-140,420,-210,,,,,,,0x03,
8125,-8,7,-1023,-1470,490,-350,,,,,,,0x03,
8135,-21,8,-1013,-2800,490,-490,,,,,,,0x03,
8145,-22,7,-1004,-2940,350,-490,,,,,,,0x03,
8154,-17,5,-999,-2450,140,-420,,,,,,,0x03,
8164,-23,14,-1003,-1820,-140,-420,,,,,,,0x03,
8173,-27,25,-1008,-1470,-490,-490,,,,,,,0x03,
8183,-22,33,-1018,-2030,-560,-420,,,,,,,0x03,
8193,-20,31,-1021,-2940,-420,-280,,,,,,,0x03,
8202,-26,26,-1012,-3500,-490,0,,,,,,,0x03,
8212,-18,19,-1000,-3430,-350,210,,,,,,,0x03,
8222,-7,9,-998,-2310,-490,280,,,,,,,0x03,
8231,-9,4,-1006,-420,-700,280,,,,,,,0x03,
8241,-11,17,-1015,1190,-630,350,,,,,,,0x03,
8251,-18,23,-1023,1400,-700,630,,,,,,,0x03,
8260,-22,19,-1033,70,-770,770,,,,,,,0x03,
8270,-32,10,-1035,-700,-770,630,,,,,,,0x03,
8280,-40,-2,-1025,-1050,-910,700,,,,,,,0x03,
8289,-27,-8,-1021,-210,-1260,560,,,,,,,0x03,
8299,-12,0,-1023,1890,-1400,280,,,,,,,0x03,
8308,-13,19,-1019,3290,-1610,0,,,,,,,0x03,
8318,-16,36,-1010,2310,-1540,0,,,,,,,0x03,
8328,-17,32,-991,560,-1190,70,,,,,,,0x03,
8337,-18,13,-979,-700,-840,210,,,,,,,0x03,
8347,-20,-2,-977,0,-420,140,,,,,,,0x03,
8357,-30,-2,-972,2240,-70,140,,,,,,,0x03,
8366,-44,11,-982,3150,-70,210,,,,,,,0x03,
8376,-33,23,-1007,2730,-210,140,,,,,,,0x03,
8386,-20,29,-1019,1330,0,70,,,,,,,0x03,
8395,-27,27,-1013,-770,140,70,,,,,,,0x03,
8405,-24,12,-1011,-1540,-70,140,,,,,,,0x03,
8414,-14,6,-1015,-280,-280,0,,,,,,,0x03,
8424,-20,7,-1019,1400,-490,-70,,,,,,,0x03,
8434,-28,16,-1020,2450,-490,140,,,,,,,0x03,
8443,-26,19,-1024,2380,-490,210,,,,,,,0x03,
8453,-22,14,-1016,1050,-490,210,,,,,,,0x03,
8463,-24,4,-1011,210,-560,0,,,,,,,0x03,
8472,-20,0,-1006,280,-560,-420,,,,,,,0x03,
8482,-30,1,-999,630,-560,-420,,,,,,,0x03,
8492,-30,6,-989,700,-420,-280,,,,,,,0x03,
8501,-26,8,-983,-140,-140,-70,,,,,,,0x03,
8511,-27,3,-986,-1050,140,70,,,,,,,0x03,
8520,-24,1,-999,-980,350,-70,,,,,,,0x03,
8530,-19,6,-1012,-420,490,-210,,,,,,,0x03,
8540,-12,14,-1021,-140,490,-350,,,,,,,0x03,
8549,-16,19,-1020,-770,350,-280,,,,,,,0x03,
8559,-29,18,-1017,-1890,0,-210,,,,,,,0x03,
8569,-32,7,-1016,-2380,-560,-70,,,,,,,0x03,
8578,-31,3,-1018,-1400,-910,-70,,,,,,,0x03,
8588,-19,9,-1024,-560,-1610,-280,,,,,,,0x03,
8598,-17,17,-1033,-700,-1750,-560,,,,,,,0x03,
8607,-19,21,-1026,-1960,-1540,-770,,,,,,,0x03,
8617,-23,17,-1007,-2800,-1470,-560,,,,,,,0x03,
8627,-18,8,-994,-2800,-1470,-560,,,,,,,0x03,
8636,-15,5,-990,-1610,-1470,-560,,,,,,,0x03,
8646,-22,8,-992,-350,-1400,-210,,,,,,,0x03,
8655,-24,15,-1001,70,-1400,70,,,,,,,0x03,
8665,-32,14,-1012,-140,-1540,210,,,,,,,0x03,
8675,-30,20,-1021,-630,-1750,0,,,,,,,0x03,
8684,-17,19,-1022,-1470,-2030,-280,,,,,,,0x03,
8694,-21,17,-1026,-1750,-2170,-280,,,,,,,0x03,
8704,-29,17,-1026,-630,-2450,-70,,,,,,,0x03,
8713,-20,25,-1031,1260,-3080,70,,,,,,,0x03,
8723,-12,41,-1030,2240,-3500,0,,,,,,,0x03,
8733,-22,44,-1027,2100,-3920,0,,,,,,,0x03,
8742,-32,38,-1023,1260,-4340,0,,,,,,,0x03,
8752,-38,30,-1014,700,-4620,-70,,,,,,,0x03,
8761,-42,26,-1007,1260,-5250,-70,,,,,,,0x03,
8771,-36,27,-1010,1540,-5810,-210,,,,,,,0x03,
8781,-28,28,-1022,1190,-5880,-350,,,,,,,0x03,
8790,-17,22,-1019,-350,-5180,-280,,,,,,,0x03,
8800,-16,3,-996,-2240,-4270,0,,,,,,,0x03,
8810,-15,-20,-971,-2240,-3080,140,,,,,,,0x03,
8819,-19,-39,-951,-420,-2030,210,,,,,,,0x03,
8829,-24,-33,-945,2380,-1190,210,,,,,,,0x03,
8839,-16,-13,-952,3710,-490,140,,,,,,,0x03,
8848,-20,1,-963,2800,210,0,,,,,,,0x03,
8858,-34,6,-977,630,770,140,,,,,,,0x03,
8867,-29,8,-992,-840,1050,210,,,,,,,0x03,
8877,-26,2,-1016,-1680,1190,140,,,,,,,0x03,
8887,-28,0,-1039,-1400,1260,140,,,,,,,0x03,
8896,-23,4,-1045,-490,1400,210,,,,,,,0x03,
8906,-31,7,-1039,-140,1330,280,,,,,,,0x03,
8916,-21,15,-1041,0,910,-70,,,,,,,0x03,
8925,-5,17,-1036,350,910,-490,,,,,,,0x03,
8935,-18,17,-1021,-350,1050,-420,,,,,,,0x03,
8945,-38,11,-1004,-1190,1120,-210,,,,,,,0x03,
8954,-42,4,-991,-840,980,-280,,,,,,,0x03,
8964,-43,6,-992,-560,630,-490,,,,,,,0x03,
8973,-34,17,-997,-910,490,-560,,,,,,,0x03,
8983,-30,26,-995,-1960,630,-560,,,,,,,0x03,
8993,-32,27,-991,-3430,980,-490,,,,,,,0x03,
9002,-28,18,-989,-3990,1400,-350,,,,,,,0x03,
9012,-21,11,-992,-2870,1750,-280,,,,,,,0x03,
9022,-24,20,-992,-980,1750,70,,,,,,,0x03,
9031,-27,30,-1003,70,1610,280,,,,,,,0x03,
9041,-25,33,-1018,280,1330,350,,,,,,,0x03,
9051,-30,25,-1034,-210,1190,420,,,,,,,0x03,
9060,-32,17,-1042,-210,1260,490,,,,,,,0x03,
9070,-27,11,-1031,420,1470,490,,,,,,,0x03,
9080,-24,6,-1022,1190,980,420,,,,,,,0x03,
9089,-22,9,-1020,2100,490,0,,,,,,,0x03,
9099,-13,17,-1014,2590,490,-210,,,,,,,0x03,
9108,-12,26,-997,2030,840,0,,,,,,,0x03,
9118,-22,20,-990,630,840,280,,,,,,,0x03,
9128,-29,11,-1001,560,840,140,,,,,,,0x03,
9137,-27,9,-1005,1190,1050,-70,,,,,,,0x03,
9147,-25,12,-996,1260,1190,70,,,,,,,0x03,
9157,-22,12,-995,980,1050,140,,,,,,,0x03,
9166,-16,11,-1009,1400,490,-70,,,,,,,0x03,
9176,-17,17,-1031,1960,-140,-210,,,,,,,0x03,
9186,-17,29,-1048,1540,-560,0,,,,,,,0x03,
9195,-15,31,-1049,630,-770,210,,,,,,,0x03,
9205,-14,20,-1036,-840,-1050,210,,,,,,,0x03,
9214,-14,5,-1015,-1820,-1120,-70,,,,,,,0x03,
9224,-13,-3,-999,-1050,-1540,-280,,,,,,,0x03,
9234,-13,0,-1001,350,-1890,-420,,,,,,,0x03,
9243,-16,7,-1001,1470,-2030,-280,,,,,,,0x03,
9253,-32,8,-1002,840,-1890,0,,,,,,,0x03,
9263,-28,2,-1004,-280,-1610,140,,,,,,,0x03,
9272,-19,-4,-1004,-1190,-1470,-70,,,,,,,0x03,
9282,-20,-5,-1010,-1540,-1680,-420,,,,,,,0x03,
9292,-17,5,-1019,-1470,-2170,-840,,,,,,,0x03,
9301,-13,21,-1036,-1330,-2730,-1050,,,,,,,0x03,
9311,-18,34,-1043,-1890,-3010,-840,,,,,,,0x03,
9320,-24,37,-1034,-3080,-3010,-560,,,,,,,0x03,
9330,-24,29,-1023,-3570,-3220,-490,,,,,,,0x03,
9340,-28,10,-1028,-2660,-3570,-630,,,,,,,0x03,
9349,-28,10,-1027,-350,-3500,-1050,,,,,,,0x03,
9359,-34,25,-1006,1050,-3360,-1120,,,,,,,0x03,
9369,-35,28,-989,630,-2940,-1050,,,,,,,0x03,
9378,-19,28,-969,350,-2590,-1050,,,,,,,0x03,
9388,-23,24,-957,-490,-2240,-700,,,,,,,0x03,
9398,-24,16,-962,-700,-1750,-350,,,,,,,0x03,
9407,-25,9,-965,-210,-1120,-70,,,,,,,0x03,
9417,-25,3,-966,-140,-280,210,,,,,,,0x03,
9427,-26,-1,-974,140,350,70,,,,,,,0x03,
9436,-32,0,-987,1050,630,-70,,,,,,,0x03,
9446,-37,7,-999,1610,840,-70,,,,,,,0x03,
9455,-36,16,-1016,1750,630,140,,,,,,,0x03,
9465,-24,27,-1025,1120,490,210,,,,,,,0x03,
9475,-23,29,-1029,-210,560,70,,,,,,,0x03,
9484,-19,17,-1035,-1260,630,-70,,,,,,,0x03,
9494,-20,4,-1031,-910,840,70,,,,,,,0x03,
9504,-26,3,-1015,490,1050,140,,,,,,,0x03,
9513,-22,4,-1004,1960,910,140,,,,,,,0x03,
9523,-22,9,-1005,3290,630,140,,,,,,,0x03,
9533,-31,20,-1007,3850,420,70,,,,,,,0x03,
9542,-33,34,-1003,2870,280,280,,,,,,,0x03,
9552,-25,30,-1011,1050,140,140,,,,,,,0x03,
9561,-15,22,-1016,-140,140,0,,,,,,,0x03,
9571,-21,14,-1005,-560,280,0,,,,,,,0x03,
9581,-27,9,-999,-210,420,210,,,,,,,0x03,
9590,-19,5,-1000,1050,560,280,,,,,,,0x03,
9600,-17,7,-996,1960,770,350,,,,,,,0x03,
9610,-27,14,-995,2030,770,420,,,,,,,0x03,
9619,-24,19,-1010,1330,280,420,,,,,,,0x03,
9629,-13,24,-1027,-70,-70,140,,,,,,,0x03,
9639,-15,21,-1040,-1680,-490,-70,,,,,,,0x03,
9648,-16,9,-1036,-3780,-350,0,,,,,,,0x03,
9658,-14,-9,-1022,-4620,0,140,,,,,,,0x03,
9667,-8,-20,-1008,-3360,140,70,,,,,,,0x03,
9677,-12,-18,-999,-910,140,0,,,,,,,0x03,
9687,-34,1,-992,980,280,-70,,,,,,,0x03,
9696,-31,28,-990,1330,490,-140,,,,,,,0x03,
9706,-7,35,-991,-70,910,70,,,,,,,0x03,
9716,-2,30,-988,-1540,1400,280,,,,,,,0x03,
9725,-19,19,-988,-1750,1470,630,,,,,,,0x03,
9735,-29,9,-1001,-70,1190,770,,,,,,,0x03,
9745,-30,14,-1014,2030,910,770,,,,,,,0x03,
9754,-37,22,-1023,2730,770,840,,,,,,,0x03,
9764,-38,18,-1032,1820,910,840,,,,,,,0x03,
9773,-28,9,-1020,490,1330,700,,,,,,,0x03,
9783,-9,0,-998,-210,1400,630,,,,,,,0x03,
9793,-5,-9,-988,-210,1190,490,,,,,,,0x03,
9802,-10,-11,-995,770,910,280,,,,,,,0x03,
9812,-12,0,-1009,1680,560,210,,,,,,,0x03,
9822,-11,8,-1027,1050,280,140,,,,,,,0x03,
9831,-17,15,-1038,-700,-140,0,,,,,,,0x03,
9841,-20,11,-1050,-2590,-910,-210,,,,,,,0x03,
9851,-20,11,-1055,-3640,-1610,-560,,,,,,,0x03,
9860,-24,10,-1049,-3430,-2240,-770,,,,,,,0x03,
9870,-24,21,-1036,-3290,-2730,-980,,,,,,,0x03,
9880,-18,24,-1019,-3430,-2940,-1050,,,,,,,0x03,
9889,-7,24,-1010,-3430,-3080,-1260,,,,,,,0x03,
9899,-4,20,-1000,-3150,-2940,-1260,,,,,,,0x03,
9908,-17,20,-997,-2310,-3010,-1120,,,,,,,0x03,
9918,-23,30,-998,-1120,-3220,-980,,,,,,,0x03,
9928,-24,37,-1004,-1050,-3500,-980,,,,,,,0x03,
9937,-12,42,-1016,-1330,-3570,-1120,,,,,,,0x03,
9947,0,44,-1015,-2030,-3360,-1050,,,,,,,0x03,
9957,-11,35,-1003,-3010,-3220,-840,,,,,,,0x03,
9966,-20,25,-998,-2870,-3360,-560,,,,,,,0x03,
9976,-14,15,-1012,-1260,-3780,-350,,,,,,,0x03,
9986,-17,19,-1023,280,-3920,-210,,,,,,,0x03,
9995,-28,28,-1026,350,-3920,-280,,,,,,,0x03,
10005,-30,21,-1018,-1120,-3780,-280,,,,,,,0x03,
10014,-23,13,-1007,-1960,-3570,-560,,,,,,,0x03,
10024,-16,8,-995,-1680,-3150,-630,,,,,,,0x03,
10034,-11,11,-985,-1190,-2310,-350,,,,,,,0x03,
10043,-8,15,-971,-280,-1680,210,,,,,,,0x03,
10053,-19,5,-960,-140,-1260,700,,,,,,,0x03,
10063,-37,1,-969,140,-840,840,,,,,,,0x03,
10072,-32,0,-987,980,-280,700,,,,,,,0x03,
10082,-25,3,-993,1330,280,420,,,,,,,0x03,
10092,-40,5,-994,420,700,350,,,,,,,0x03,
10101,-53,8,-996,-630,700,350,,,,,,,0x03,
10111,-42,11,-1005,-1330,630,140,,,,,,,0x03,
10120,-14,15,-1011,-2100,910,-140,,,,,,,0x03,
10130,-9,15,-1008,-2940,1330,-70,,,,,,,0x03,
10140,-29,12,-1002,-3710,1540,-70,,,,,,,0x03,
10149,-36,7,-996,-3430,1610,-140,,,,,,,0x03,
10159,-38,15,-993,-2520,1190,-210,,,,,,,0x03,
10169,-32,32,-1010,-2450,560,-630,,,,,,,0x03,
10178,-21,36,-1027,-3430,140,-490,,,,,,,0x03,
10188,-27,37,-1037,-4900,140,-210,,,,,,,0x03,
10198,-27,23,-1030,-5530,490,-140,,,,,,,0x03,
10207,-34,20,-1017,-4480,490,0,,,,,,,0x03,
10217,-21,20,-1009,-2380,280,-980,,,,,,,0x03,
10227,-14,28,-1007,-700,0,-560,,,,,,,0x03,
10236,-30,41,-1005,-280,-350,-210,,,,,,,0x03,
10246,-44,56,-1006,-840,-490,0,,,,,,,0x03,
10255,-29,61,-1011,-1960,-490,-280,,,,,,,0x03,
10265,-18,49,-1009,-3850,-350,-420,,,,,,,0x03,
10275,-18,30,-1003,-4830,-420,-210,,,,,,,0x03,
10284,-21,14,-1002,-3710,-280,210,,,,,,,0x03,
10294,-13,9,-1002,-1330,-140,630,,,,,,,0x03,
10304,-8,14,-1004,1330,-210,700,,,,,,,0x03,
10313,-13,26,-1007,3430,-280,560,,,,,,,0x03,
10323,-13,37,-1020,3920,-490,630,,,,,,,0x03,
10333,-16,39,-1036,3920,-770,630,,,,,,,0x03,
10342,-26,44,-1045,3990,-1050,280,,,,,,,0x03,
10352,-33,51,-1040,4130,-1260,0,,,,,,,0x03,
10361,-38,50,-1033,3990,-1750,-210,,,,,,,0x03,
10371,-40,50,-1036,4690,-2380,-490,,,,,,,0x03,
10381,-32,51,-1027,4620,-2590,-630,,,,,,,0x03,
10390,-30,45,-1015,4340,-2450,-420,,,,,,,0x03,
10400,-21,31,-1009,4970,-2240,-210,,,,,,,0x03,
10410,-21,20,-992,6230,-1890,70,,,,,,,0x03,
10419,-28,13,-976,7630,-1400,280,,,,,,,0x03,
10429,-28,8,-969,8610,-1190,420,,,,,,,0x03,
10439,-25,8,-976,9520,-1120,420,,,,,,,0x03,
10448,-12,20,-979,9310,-1120,140,,,,,,,0x03,
10458,-6,31,-988,7140,-1260,70,,,,,,,0x03,
10467,-22,22,-1005,3920,-1330,0,,,,,,,0x03,
10477,-24,17,-1020,1470,-1190,-70,,,,,,,0x03,
10487,-13,1,-1019,70,-980,140,,,,,,,0x03,
10496,-18,-14,-1007,-700,-910,350,,,,,,,0x03,
10506,-31,-24,-995,-350,-770,70,,,,,,,0x03,
10516,-22,-18,-992,490,-700,-280,,,,,,,0x03,
10525,-8,-7,-998,350,-560,-420,,,,,,,0x03,
10535,-15,-3,-1011,-630,-350,-490,,,,,,,0x03,
10545,-13,1,-1011,-2100,0,-350,,,,,,,0x03,
10554,-11,-4,-1005,-3780,70,-280,,,,,,,0x03,
10564,-20,-12,-1003,-4970,-70,-280,,,,,,,0x03,
10573,-26,-8,-1005,-4970,-490,-560,,,,,,,0x03,
10583,-25,6,-1013,-5320,-910,-840,,,,,,,0x03,
10593,-23,13,-1020,-6300,-1050,-1120,,,,,,,0x03,
10602,-29,13,-1026,-6790,-1120,-1120,,,,,,,0x03,
10612,-19,18,-1029,-6230,-1190,-980,,,,,,,0x03,
10622,-15,20,-1030,-4970,-1050,-980,,,,,,,0x03,
10631,-24,29,-1026,-3570,-1050,-1120,,,,,,,0x03,
10641,-29,44,-1015,-3220,-1330,-1120,,,,,,,0x03,
10651,-30,50,-1011,-3430,-1610,-1050,,,,,,,0x03,
10660,-22,52,-1015,-3360,-2030,-1120,,,,,,,0x03,
10670,-18,52,-1012,-3430,-2030,-910,,,,,,,0x03,
10680,-26,49,-1002,-3640,-1820,-560,,,,,,,0x03,
10689,-25,38,-985,-3430,-1470,-210,,,,,,,0x03,
10699,-30,24,-983,-2170,-1330,-140,,,,,,,0x03,
10708,-28,23,-995,560,-980,-140,,,,,,,0x03,
10718,-23,32,-998,2590,-490,210,,,,,,,0x03,
10728,-22,39,-1002,3080,-140,560,,,,,,,0x03,
10737,-16,34,-1001,2660,70,700,,,,,,,0x03,
10747,-27,17,-1000,1890,140,630,,,,,,,0x03,
10757,-35,8,-998,2170,350,630,,,,,,,0x03,
10766,-30,6,-993,2940,490,560,,,,,,,0x03,
10776,-16,12,-996,3220,910,350,,,,,,,0x03,
10786,-14,15,-1000,3080,1050,210,,,,,,,0x03,
10795,-26,20,-1006,2240,840,210,,,,,,,0x03,
10805,-29,26,-1015,1190,630,140,,,,,,,0x03,
10814,-25,25,-1024,0,350,-70,,,,,,,0x03,
10824,-19,22,-1025,-840,0,-280,,,,,,,0x03,
10834,-20,20,-1024,-1260,-210,-420,,,,,,,0x03,
10843,-32,13,-1022,-1120,-350,-490,,,,,,,0x03,
10853,-31,16,-1014,-280,-350,-420,,,,,,,0x03,
10863,-22,21,-1004,770,-140,-420,,,,,,,0x03,
10872,-16,31,-1001,1120,-70,-490,,,,,,,0x03,
10882,-24,33,-996,840,0,-210,,,,,,,0x03,
10892,-31,31,-997,420,140,-70,,,,,,,0x03,
10901,-15,29,-992,140,420,-70,,,,,,,0x03,
10911,-13,23,-983,-980,770,280,,,,,,,0x03,
10920,-22,13,-985,-1540,910,280,,,,,,,0x03,
10930,-18,3,-999,-630,980,210,,,,,,,0x03,
10940,-20,1,-1015,630,910,350,,,,,,,0x03,
10949,-27,14,-1033,1680,770,140,,,,,,,0x03,
10959,-19,24,-1046,1260,700,-210,,,,,,,0x03,
10969,-24,24,-1041,-560,770,-560,,,,,,,0x03,
10978,-28,23,-1030,-1680,490,-840,,,,,,,0x03,
10988,-23,20,-1021,-1820,210,-980,,,,,,,0x03,
10998,-16,22,-1009,-1330,140,-1050,,,,,,,0x03,
11007,-18,22,-999,-770,-70,-840,,,,,,,0x03,
11017,-18,25,-999,-560,-140,-700,,,,,,,0x03,
11027,-11,29,-990,-350,70,-770,,,,,,,0x03,
11036,-15,29,-981,-840,420,-840,,,,,,,0x03,
11046,-15,27,-979,-1050,770,-910,,,,,,,0x03,
11055,-11,27,-988,-210,1050,-700,,,,,,,0x03,
11065,-17,29,-1002,700,980,-350,,,,,,,0x03,
11075,-24,36,-1021,1260,910,-140,,,,,,,0x03,
11084,-18,33,-1033,910,980,-70,,,,,,,0x03,
11094,-11,25,-1029,490,1050,-70,,,,,,,0x03,
11104,-16,19,-1019,280,840,-140,,,,,,,0x03,
11113,-17,13,-1017,700,490,-210,,,,,,,0x03,
11123,-11,8,-1013,1820,350,-140,,,,,,,0x03,
11133,-14,10,-1004,2520,350,0,,,,,,,0x03,
11142,-18,22,-1003,2310,70,-70,,,,,,,0x03,
11152,-16,21,-1013,1470,-140,-210,,,,,,,0x03,
11161,-14,18,-1007,-140,0,-280,,,,,,,0x03,
11171,-19,14,-996,-1610,-70,-70,,,,,,,0x03,
11181,-18,6,-997,-1960,-420,0,,,,,,,0x03,
11190,-11,5,-1012,-1050,-700,-70,,,,,,,0x03,
11200,-5,12,-1027,280,-840,0,,,,,,,0x03,
11210,-1,21,-1043,560,-980,140,,,,,,,0x03,
11219,-6,20,-1047,-70,-840,140,,,,,,,0x03,
11229,-24,7,-1030,-1120,-1120,-70,,,,,,,0x03,
11239,-37,2,-1027,-1260,-1750,-420,,,,,,,0x03,
11248,-38,8,-1015,-980,-2100,-560,,,,,,,0x03,
11258,-41,21,-1005,-1960,-2660,-770,,,,,,,0x03,
11267,-32,26,-1006,-3920,-3150,-1190,,,,,,,0x03,
11277,-15,31,-1005,-5600,-3010,-1610,,,,,,,0x03,
11287,-12,40,-995,-6860,-2940,-1750,,,,,,,0x03,
11296,-14,38,-986,-8050,-2800,-1680,,,,,,,0x03,
11306,-24,29,-981,-7490,-2660,-1540,,,,,,,0x03,
11316,-33,29,-990,-5110,-2590,-1260,,,,,,,0x03,
11325,-27,44,-999,-2590,-2590,-910,,,,,,,0x03,
11335,-24,57,-1015,-1190,-2590,-630,,,,,,,0x03,
11345,-29,64,-1027,-1050,-2800,-630,,,,,,,0x03,
11354,-34,55,-1042,-1330,-3080,-770,,,,,,,0x03,
11364,-31,46,-1041,-630,-2730,-560,,,,,,,0x03,
11373,-31,30,-1020,560,-2450,-350,,,,,,,0x03,
11383,-21,34,-1005,2100,-2380,-420,,,,,,,0x03,
11393,-6,34,-986,3290,-2030,-280,,,,,,,0x03,
11402,-13,27,-971,3780,-1890,0,,,,,,,0x03,
11412,-15,27,-971,3780,-1820,70,,,,,,,0x03,
11422,-11,27,-984,4200,-1750,140,,,,,,,0x03,
11431,-16,25,-1002,3850,-1540,70,,,,,,,0x03,
11441,-19,26,-1015,3290,-1330,0,,,,,,,0x03,
11451,-20,20,-1016,2240,-1260,0,,,,,,,0x03,
11460,-24,10,-1017,1610,-1610,-70,,,,,,,0x03,
11470,-17,9,-1033,2310,-2170,-350,,,,,,,0x03,
11480,-13,15,-1047,2800,-2730,-630,,,,,,,0x03,
11489,-23,26,-1045,2730,-2660,-840,,,,,,,0x03,
11499,-16,30,-1025,1610,-2240,-1050,,,,,,,0x03,
11508,0,28,-1003,560,-2030,-1050,,,,,,,0x03,
11518,-3,24,-988,210,-1890,-1050,,,,,,,0x03,
11528,-21,15,-975,490,-1750,-630,,,,,,,0x03,
11537,-35,10,-987,1610,-1680,-210,,,,,,,0x03,
11547,-26,12,-998,2310,-1470,0,,,,,,,0x03,
11557,-17,16,-1004,1470,-1120,-70,,,,,,,0x03,
11566,-17,12,-996,-560,-560,-210,,,,,,,0x03,
11576,-20,-5,-983,-2170,140,-140,,,,,,,0x03,
11586,-18,-14,-970,-1680,700,-70,,,,,,,0x03,
11595,-23,-8,-966,-210,700,0,,,,,,,0x03,
11605,-25,7,-986,630,420,-70,,,,,,,0x03,
11614,-20,30,-1021,350,210,-350,,,,,,,0x03,
11624,-20,49,-1047,-1750,140,-490,,,,,,,0x03,
11634,-37,42,-1048,-4970,420,-560,,,,,,,0x03,
11643,-46,22,-1026,-6860,840,-560,,,,,,,0x03,
11653,-30,10,-1002,-5950,910,-420,,,,,,,0x03,
11663,-20,6,-992,-3500,700,-490,,,,,,,0x03,
11672,-24,18,-987,-980,630,-630,,,,,,,0x03,
11682,-21,43,-987,490,770,-560,,,,,,,0x03,
11692,-22,58,-986,-70,840,-490,,,,,,,0x03,
11701,-37,57,-992,-2240,630,-280,,,,,,,0x03,
11711,-22,51,-1013,-3570,560,-280,,,,,,,0x03,
11720,-17,32,-1019,-3780,630,0,,,,,,,0x03,
11730,-38,17,-1020,-3430,840,70,,,,,,,0x03,
11740,-38,14,-1020,-1680,910,140,,,,,,,0x03,
11749,-30,20,-1023,1120,770,70,,,,,,,0x03,
11759,-27,35,-1024,1890,420,-70,,,,,,,0x03,
11769,-32,43,-1026,1470,-70,-350,,,,,,,0x03,
11778,-29,45,-1029,70,-630,-490,,,,,,,0x03,
11788,-17,44,-1032,-840,-1050,-560,,,,,,,0x03,
11798,-10,41,-1027,-1680,-1330,-700,,,,,,,0x03,
11807,-11,32,-1017,-2380,-1330,-700,,,,,,,0x03,
11817,-18,22,-1002,-2450,-1260,-560,,,,,,,0x03,
11827,-25,10,-988,-2030,-1120,-420,,,,,,,0x03,
11836,-14,8,-979,-630,-980,-280,,,,,,,0x03,
11846,-13,13,-990,980,-1330,-280,,,,,,,0x03,
11855,-12,30,-1011,1820,-1330,-490,,,,,,,0x03,
11865,-8,43,-1014,1330,-770,-490,,,,,,,0x03,
11875,-12,42,-1015,-140,-420,-280,,,,,,,0x03,
11884,-17,30,-1011,-1050,-350,-210,,,,,,,0x03,
11894,-19,25,-1010,210,-560,-350,,,,,,,0x03,
11904,-21,30,-1014,1820,-1050,-420,,,,,,,0x03,
11913,-25,44,-1026,3150,-1470,-420,,,,,,,0x03,
11923,-21,57,-1029,2940,-1540,-350,,,,,,,0x03,
11933,-22,54,-1019,840,-1330,-210,,,,,,,0x03,
11942,-17,31,-1007,-700,-980,0,,,,,,,0x03,
11952,-13,4,-992,0,-630,140,,,,,,,0x03,
11961,-24,-4,-985,2100,-630,70,,,,,,,0x03,
11971,-32,8,-985,4340,-560,-70,,,,,,,0x03,
11981,-18,29,-988,4830,-420,-140,,,,,,,0x03,
11990,-10,40,-997,3010,-280,-210,,,,,,,0x03,
12000,-19,38,-1003,280,-140,-70,,,,,,,0x03,
12010,-18,25,-1009,-1820,0,0,,,,,,,0x03,
12019,-12,9,-1007,-2240,280,210,,,,,,,0x03,
12029,-20,0,-1007,-1400,350,210,,,,,,,0x03,
12039,-27,5,-1006,350,280,-70,,,,,,,0x03,
12048,-29,17,-1013,1750,140,-210,,,,,,,0x03,
12058,-29,33,-1024,2030,350,-70,,,,,,,0x03,
12067,-19,45,-1018,700,350,-70,,,,,,,0x03,
12077,-24,35,-1011,-1330,490,-70,,,,,,,0x03,
12087,-23,23,-997,-2380,630,-70,,,,,,,0x03,
12096,-24,14,-989,-1820,770,140,,,,,,,0x03,
12106,-21,16,-983,-280,770,140,,,,,,,0x03,
12116,-9,25,-991,1120,560,280,,,,,,,0x03,
12125,-7,39,-1000,1960,700,490,,,,,,,0x03,
12135,-12,45,-1009,1890,490,770,,,,,,,0x03,
12145,-21,32,-1030,1400,420,910,,,,,,,0x03,
12154,-17,27,-1042,1750,770,1050,,,,,,,0x03,
12164,-8,30,-1024,2450,980,1190,,,,,,,0x03,
12173,-22,16,-1012,2100,840,1190,,,,,,,0x03,
12183,-29,4,-1016,3570,350,840,,,,,,,0x03,
12193,-19,14,-1023,5670,140,770,,,,,,,0x03,
12202,-18,33,-1016,5950,210,980,,,,,,,0x03,
12212,-14,33,-1004,3780,210,910,,,,,,,0x03,
12222,-16,18,-998,980,0,910,,,,,,,0x03,
12231,-18,7,-997,-630,-70,770,,,,,,,0x03,
12241,-15,-1,-988,-1330,-70,490,,,,,,,0x03,
12251,-23,-5,-984,-1960,-140,350,,,,,,,0x03,
12260,-28,-1,-992,-1680,-350,210,,,,,,,0x03,
12270,-23,8,-1007,-1470,-700,0,,,,,,,0x03,
12280,-11,23,-1029,-1890,-910,-350,,,,,,,0x03,
12289,-6,35,-1047,-2520,-980,-630,,,,,,,0x03,
12299,-11,42,-1050,-3360,-1120,-630,,,,,,,0x03,
12308,-17,42,-1043,-4130,-1330,-560,,,,,,,0x03,
12318,-27,33,-1041,-3290,-1960,-490,,,,,,,0x03,
12328,-33,31,-1040,-2030,-2590,-700,,,,,,,0x03,
12337,-28,40,-1028,-560,-2800,-980,,,,,,,0x03,
12347,-13,49,-1012,280,-2660,-1120,,,,,,,0x03,
12357,-6,52,-994,-210,-2380,-1330,,,,,,,0x03,
12366,-16,47,-976,-1050,-2030,-1260,,,,,,,0x03,
12376,-30,35,-957,-1680,-1610,-770,,,,,,,0x03,
12386,-36,24,-947,-1190,-1120,-70,,,,,,,0x03,
12395,-28,18,-950,70,-840,210,,,,,,,0x03,
12405,-12,23,-963,630,-560,70,,,,,,,0x03,
12414,-6,29,-990,840,-280,-70,,,,,,,0x03,
12424,-9,36,-1014,350,0,0,,,,,,,0x03,
12434,-17,31,-1029,-210,350,210,,,,,,,0x03,
12443,-22,17,-1034,-140,560,560,,,,,,,0x03,
12453,-23,9,-1034,1400,420,770,,,,,,,0x03,
12463,-24,18,-1032,3990,-70,630,,,,,,,0x03,
12472,-20,31,-1041,4970,-700,350,,,,,,,0x03,
12482,-6,42,-1049,4130,-1120,140,,,,,,,0x03,
12492,-13,36,-1039,2170,-1400,140,,,,,,,0x03,
12501,-26,18,-1023,210,-1610,210,,,,,,,0x03,
12511,-10,2,-1013,0,-1680,70,,,,,,,0x03,
12520,-5,-9,-998,1190,-1680,70,,,,,,,0x03,
12530,-22,-6,-986,2030,-1610,-210,,,,,,,0x03,
12540,-24,11,-975,2240,-1540,-420,,,,,,,0x03,
12549,-22,17,-980,910,-1610,-350,,,,,,,0x03,
12559,-21,25,-998,-1050,-1540,-490,,,,,,,0x03,
12569,-15,35,-1003,-3010,-1260,-490,,,,,,,0x03,
12578,-13,33,-1000,-5530,-910,-350,,,,,,,0x03,
12588,-18,15,-999,-7210,-630,-280,,,,,,,0x03,
12598,-20,0,-1002,-6370,-560,-350,,,,,,,0x03,
12607,-18,4,-1015,-3360,-700,-280,,,,,,,0x03,
12617,-21,19,-1034,-980,-1050,-350,,,,,,,0x03,
12627,-27,38,-1047,-350,-1400,-630,,,,,,,0x03,
12636,-24,43,-1042,-1540,-1470,-770,,,,,,,0x03,
12646,-21,44,-1022,-3150,-1470,-840,,,,,,,0x03,
12655,-25,31,-1003,-4200,-1470,-910,,,,,,,0x03,
12665,-18,28,-986,-3360,-1190,-980,,,,,,,0x03,
12675,-12,29,-966,-1960,-770,-700,,,,,,,0x03,
12684,-24,28,-967,-1120,-420,-420,,,,,,,0x03,
12694,-19,39,-982,70,-70,-280,,,,,,,0x03,
12704,-21,43,-991,420,70,70,,,,,,,0x03,
12713,-41,39,-1003,-560,210,350,,,,,,,0x03,
12723,-32,34,-1009,-910,420,420,,,,,,,0x03,
12733,-18,27,-1011,-280,490,350,,,,,,,0x03,
12742,-21,23,-1009,0,630,280,,,,,,,0x03,
12752,-27,29,-1013,1260,630,210,,,,,,,0x03,
12761,-20,32,-1016,2100,490,350,,,,,,,0x03,
12771,-11,36,-1017,2100,770,490,,,,,,,0x03,
12781,-2,34,-1009,1890,1120,630,,,,,,,0x03,
12790,-8,26,-1002,1610,1190,770,,,,,,,0x03,
12800,-14,21,-1000,1890,1190,630,,,,,,,0x03,
12810,-12,17,-1006,2310,910,420,,,,,,,0x03,
