#Format version: 1.0
time[ms],accX[mg],accY[mg],accZ[mg],gyroX[mdps],gyroY[mdps],gyroZ[mdps],magnX[mG],magnY[mG],magnZ[mG],press[hPa],temp[°C],hum[0,-94,-33,-1018,3010,840,1680,,,,,,,0x03,
10,-94,-33,-1013,3920,630,1960,,,,,,,0x03,
19,-96,-36,-1008,4480,490,2240,,,,,,,0x03,
29,-100,-38,-1011,4550,420,2520,,,,,,,0x03,
39,-99,-40,-1015,4970,280,2800,,,,,,,0x03,
48,-95,-40,-1023,5530,0,3080,,,,,,,0x03,
58,-93,-38,-1021,5530,-490,3080,,,,,,,0x03,
68,-93,-38,-1020,4620,-910,2940,,,,,,,0x03,
77,-86,-38,-1019,3570,-1470,2520,,,,,,,0x03,
87,-80,-42,-1020,2870,-1820,2100,,,,,,,0x03,
97,-81,-43,-1016,1960,-2170,1820,,,,,,,0x03,
106,-78,-42,-1015,1190,-2520,1750,,,,,,,0x03,
116,-73,-47,-1016,840,-2940,1610,,,,,,,0x03,
126,-72,-49,-1014,1190,-3150,1470,,,,,,,0x03,
135,-79,-46,-1013,1750,-3360,1260,,,,,,,0x03,
145,-76,-41,-1007,1960,-3500,1120,,,,,,,0x03,
154,-71,-37,-1004,1470,-3290,1050,,,,,,,0x03,
164,-69,-37,-1002,980,-3360,980,,,,,,,0x03,
174,-64,-39,-996,420,-3430,980,,,,,,,0x03,
183,-61,-40,-997,140,-3360,840,,,,,,,0x03,
193,-59,-42,-1000,560,-3360,700,,,,,,,0x03,
203,-57,-41,-998,980,-3430,560,,,,,,,0x03,
212,-63,-37,-1000,700,-3360,210,,,,,,,0x03,
222,-64,-35,-1003,350,-3500,-140,,,,,,,0x03,
232,-61,-34,-1005,0,-3780,-630,,,,,,,0x03,
241,-60,-35,-1006,-770,-4270,-1190,,,,,,,0x03,
251,-63,-33,-1011,-1750,-4690,-1680,,,,,,,0x03,
261,-65,-40,-1016,-2380,-4970,-2100,,,,,,,0x03,
270,-69,-42,-1011,-2940,-5530,-2450,,,,,,,0x03,
280,-71,-41,-1018,-3570,-6020,-2800,,,,,,,0x03,
290,-71,-41,-1022,-4340,-6160,-3010,,,,,,,0x03,
299,-81,-38,-1015,-5040,-6160,-3290,,,,,,,0x03,
309,-88,-38,-1013,-5810,-6090,-3360,,,,,,,0x03,
319,-91,-35,-1017,-5740,-6160,-3430,,,,,,,0x03,
328,-92,-36,-1012,-5180,-6300,-3500,,,,,,,0x03,
338,-100,-26,-1007,-4130,-6090,-3430,,,,,,,0x03,
348,-107,-24,-998,-2450,-5810,-3150,,,,,,,0x03,
357,-112,-20,-991,-700,-5530,-2800,,,,,,,0x03,
367,-113,-14,-987,980,-5040,-2240,,,,,,,0x03,
377,-116,-12,-980,2660,-4550,-1610,,,,,,,0x03,
386,-116,-11,-986,4200,-3920,-910,,,,,,,0x03,
396,-115,-11,-983,6160,-3290,-70,,,,,,,0x03,
406,-118,-10,-978,7560,-2310,630,,,,,,,0x03,
415,-116,-15,-979,8820,-1330,1330,,,,,,,0x03,
425,-117,-21,-972,10150,-420,2170,,,,,,,0x03,
435,-119,-30,-980,12110,490,2940,,,,,,,0x03,
444,-118,-32,-983,14140,1050,3570,,,,,,,0x03,
454,-123,-29,-986,15470,1610,4060,,,,,,,0x03,
463,-130,-33,-987,15750,2030,4690,,,,,,,0x03,
473,-137,-36,-981,15470,2450,5250,,,,,,,0x03,
483,-129,-45,-987,15750,2940,5880,,,,,,,0x03,
492,-111,-53,-994,17150,3430,6580,,,,,,,0x03,
502,-99,-52,-997,18270,3850,7070,,,,,,,0x03,
512,-96,-50,-1004,18900,3990,7350,,,,,,,0x03,
521,-88,-41,-1013,18620,3570,7210,,,,,,,0x03,
531,-79,-37,-1020,17360,2940,6860,,,,,,,0x03,
541,-78,-37,-1032,14420,2240,6370,,,,,,,0x03,
550,-82,-41,-1034,10010,1400,5530,,,,,,,0x03,
560,-85,-53,-1031,5040,420,4550,,,,,,,0x03,
570,-85,-72,-1029,-350,-770,3570,,,,,,,0x03,
579,-84,-84,-1033,-5460,-1750,2730,,,,,,,0x03,
589,-86,-106,-1031,-9380,-2170,2100,,,,,,,0x03,
599,-91,-123,-1021,-12110,-2450,1540,,,,,,,0x03,
608,-94,-135,-1008,-13230,-2730,910,,,,,,,0x03,
618,-95,-144,-998,-13230,-2730,350,,,,,,,0x03,
628,-90,-146,-996,-12600,-2590,-70,,,,,,,0x03,
637,-85,-146,-995,-11690,-2170,-420,,,,,,,0x03,
647,-86,-140,-990,-11060,-1680,-700,,,,,,,0x03,
657,-86,-132,-988,-10850,-1260,-1050,,,,,,,0x03,
666,-84,-115,-1000,-10500,-910,-1470,,,,,,,0x03,
676,-87,-94,-997,-10220,-630,-1820,,,,,,,0x03,
686,-92,-77,-1002,-11060,-420,-2240,,,,,,,0x03,
695,-91,-66,-1008,-13020,-560,-2870,,,,,,,0x03,
705,-94,-59,-1012,-14700,-770,-3430,,,,,,,0x03,
715,-95,-57,-1012,-16030,-980,-3920,,,,,,,0x03,
724,-94,-52,-1016,-16660,-1050,-4340,,,,,,,0x03,
734,-94,-50,-1015,-16730,-1260,-4620,,,,,,,0x03,
744,-101,-43,-1011,-16310,-1470,-4830,,,,,,,0x03,
753,-104,-36,-1013,-15400,-1680,-4760,,,,,,,0x03,
763,-97,-28,-1009,-13930,-2030,-4550,,,,,,,0x03,
772,-95,-20,-1014,-12180,-2030,-4200,,,,,,,0x03,
782,-94,-9,-1013,-9590,-2310,-3710,,,,,,,0x03,
792,-95,1,-1013,-6930,-2380,-3150,,,,,,,0x03,
801,-97,10,-1005,-4550,-2310,-2520,,,,,,,0x03,
811,-105,15,-995,-2800,-2100,-1960,,,,,,,0x03,
821,-110,16,-992,-1400,-1960,-1330,,,,,,,0x03,
830,-112,16,-996,630,-1890,-560,,,,,,,0x03,
840,-109,25,-991,2520,-1610,140,,,,,,,0x03,
850,-109,27,-980,3710,-1050,910,,,,,,,0x03,
859,-104,22,-976,4200,-420,1680,,,,,,,0x03,
869,-103,12,-983,5600,280,2450,,,,,,,0x03,
879,-104,2,-980,7210,980,3080,,,,,,,0x03,
888,-104,-4,-987,8470,1680,3570,,,,,,,0x03,
898,-101,-10,-993,9380,2100,4060,,,,,,,0x03,
908,-100,-13,-1003,10220,2380,4550,,,,,,,0x03,
917,-100,-14,-1004,10570,2310,4830,,,,,,,0x03,
927,-98,-20,-1007,10010,2310,4900,,,,,,,0x03,
937,-93,-26,-1013,9100,2030,4970,,,,,,,0x03,
946,-86,-33,-1020,8540,1540,4830,,,,,,,0x03,
956,-84,-41,-1018,7350,1190,4620,,,,,,,0x03,
966,-86,-51,-1019,5950,840,4340,,,,,,,0x03,
975,-82,-62,-1015,4830,420,3920,,,,,,,0x03,
985,-81,-68,-1016,3920,210,3360,,,,,,,0x03,
995,-84,-75,-1012,3220,70,2940,,,,,,,0x03,
1004,-88,-77,-1009,2520,0,2520,,,,,,,0x03,
1014,-89,-82,-1006,2030,-70,1960,,,,,,,0x03,
1024,-89,-78,-1014,1750,-210,1260,,,,,,,0x03,
1033,-88,-73,-1011,1400,-420,630,,,,,,,0x03,
1043,-89,-61,-1016,350,-630,70,,,,,,,0x03,
1053,-88,-50,-1015,-910,-840,-420,,,,,,,0x03,
1062,-91,-41,-1011,-2730,-1120,-910,,,,,,,0x03,
1072,-92,-39,-1007,-4410,-1330,-1470,,,,,,,0x03,
1081,-93,-40,-1002,-5950,-1540,-2030,,,,,,,0x03,
1091,-96,-43,-1001,-6790,-1470,-2450,,,,,,,0x03,
1101,-99,-45,-1007,-6790,-1330,-2730,,,,,,,0x03,
1110,-101,-40,-1013,-6440,-1330,-2800,,,,,,,0x03,
1120,-100,-32,-1012,-6300,-1610,-2940,,,,,,,0x03,
1130,-98,-26,-1008,-6650,-1820,-3080,,,,,,,0x03,
1139,-95,-23,-1003,-7140,-1820,-3220,,,,,,,0x03,
1149,-92,-23,-995,-7630,-1750,-3360,,,,,,,0x03,
1159,-89,-27,-996,-7700,-1680,-3290,,,,,,,0x03,
1168,-81,-24,-1002,-7490,-1610,-3150,,,,,,,0x03,
1178,-81,-23,-1004,-6720,-1330,-3010,,,,,,,0x03,
1188,-86,-22,-1005,-5810,-1190,-2800,,,,,,,0x03,
1197,-89,-16,-1002,-4970,-1050,-2730,,,,,,,0x03,
1207,-96,-13,-1000,-4200,-910,-2660,,,,,,,0x03,
1217,-102,-10,-1002,-3640,-770,-2520,,,,,,,0x03,
1226,-105,-11,-1001,-3220,-700,-2380,,,,,,,0x03,
1236,-102,-12,-1003,-2730,-560,-2100,,,,,,,0x03,
1246,-99,-19,-1000,-1890,-420,-1820,,,,,,,0x03,
1255,-98,-23,-1003,-910,-420,-1470,,,,,,,0x03,
1265,-95,-23,-1004,840,-350,-980,,,,,,,0x03,
1275,-95,-22,-1002,2520,-280,-560,,,,,,,0x03,
1284,-96,-20,-1005,3710,-210,-280,,,,,,,0x03,
1294,-99,-20,-1003,4270,-210,-70,,,,,,,0x03,
1304,-100,-23,-1003,4480,-280,140,,,,,,,0x03,
1313,-99,-26,-1003,4550,-350,210,,,,,,,0x03,
1323,-98,-29,-1004,4970,-210,350,,,,,,,0x03,
1333,-97,-30,-1009,5530,-140,560,,,,,,,0x03,
1342,-97,-30,-1008,6020,-140,770,,,,,,,0x03,
1352,-96,-27,-1005,6160,-140,840,,,,,,,0x03,
1362,-96,-30,-1003,5810,-210,770,,,,,,,0x03,
1371,-96,-31,-999,5040,-140,700,,,,,,,0x03,
1381,-96,-37,-1003,4340,0,630,,,,,,,0x03,
1390,-96,-41,-1004,3990,140,560,,,,,,,0x03,
1400,-99,-44,-1003,3780,140,490,,,,,,,0x03,
1410,-100,-43,-1004,3500,140,280,,,,,,,0x03,
1419,-101,-44,-1005,3080,70,70,,,,,,,0x03,
1429,-97,-42,-1008,2730,0,-140,,,,,,,0x03,
1439,-97,-38,-1005,2030,0,-420,,,,,,,0x03,
1448,-94,-38,-1007,1190,0,-630,,,,,,,0x03,
1458,-88,-41,-1009,350,-280,-840,,,,,,,0x03,
1468,-88,-42,-1008,-210,-350,-980,,,,,,,0x03,
1477,-90,-44,-1007,-280,-350,-1050,,,,,,,0x03,
1487,-92,-42,-1002,-280,-280,-1190,,,,,,,0x03,
1497,-91,-39,-1002,-280,-140,-1330,,,,,,,0x03,
1506,-88,-37,-1005,0,0,-1330,,,,,,,0x03,
1516,-89,-36,-1007,420,0,-1260,,,,,,,0x03,
1526,-92,-32,-1008,490,-70,-1190,,,,,,,0x03,
1535,-93,-31,-1008,630,-210,-1050,,,,,,,0x03,
1545,-93,-32,-1003,280,-280,-1050,,,,,,,0x03,
1555,-92,-32,-1005,420,-210,-980,,,,,,,0x03,
1564,-91,-34,-1001,910,-280,-770,,,,,,,0x03,
1574,-92,-38,-1007,1330,-210,-490,,,,,,,0x03,
1584,-92,-39,-1008,2170,-280,-280,,,,,,,0x03,
1593,-93,-38,-1005,3010,-210,-140,,,,,,,0x03,
1603,-97,-36,-1005,3430,-280,-70,,,,,,,0x03,
1613,-99,-36,-1003,3500,-350,70,,,,,,,0x03,
1622,-98,-36,-1002,3430,-420,210,,,,,,,0x03,
1632,-96,-38,-1001,3430,-280,350,,,,,,,0x03,
1642,-94,-41,-999,3290,-70,490,,,,,,,0x03,
1651,-95,-46,-1005,3360,70,630,,,,,,,0x03,
1661,-95,-48,-1008,3990,70,770,,,,,,,0x03,
1671,-97,-49,-1006,4410,-140,770,,,,,,,0x03,
1680,-95,-51,-1009,4550,-280,770,,,,,,,0x03,
1690,-96,-53,-1011,4690,-280,840,,,,,,,0x03,
1699,-94,-55,-1014,5180,-490,770,,,,,,,0x03,
1709,-94,-61,-1009,5810,-700,840,,,,,,,0x03,
1719,-92,-67,-1006,6090,-770,700,,,,,,,0x03,
1728,-96,-70,-1006,6370,-700,630,,,,,,,0x03,
1738,-95,-72,-1007,7000,-980,490,,,,,,,0x03,
1748,-87,-65,-1006,6860,-1330,490,,,,,,,0x03,
1757,-86,-53,-1011,6440,-1260,280,,,,,,,0x03,
1767,-82,-49,-1007,4830,-1540,140,,,,,,,0x03,
1777,-78,-39,-1013,2100,-1820,-210,,,,,,,0x03,
1786,-78,-37,-1013,-280,-2170,-490,,,,,,,0x03,
1796,-78,-40,-1011,-2590,-2520,-770,,,,,,,0x03,
1806,-81,-45,-1018,-4200,-2730,-980,,,,,,,0x03,
1815,-84,-48,-1011,-5390,-3010,-1050,,,,,,,0x03,
1825,-86,-53,-1011,-5950,-3290,-1050,,,,,,,0x03,
1835,-89,-58,-1004,-6090,-3290,-1050,,,,,,,0x03,
1844,-91,-57,-997,-5390,-3150,-910,,,,,,,0x03,
1854,-92,-59,-991,-4060,-2800,-700,,,,,,,0x03,
1864,-93,-55,-988,-2940,-2240,-280,,,,,,,0x03,
1873,-93,-57,-991,-1680,-1610,140,,,,,,,0x03,
1883,-93,-59,-988,-1260,-1190,490,,,,,,,0x03,
1893,-97,-53,-992,-910,-770,700,,,,,,,0x03,
1902,-100,-51,-996,-350,-350,910,,,,,,,0x03,
1912,-102,-47,-998,-350,0,980,,,,,,,0x03,
1922,-101,-46,-998,-700,280,1050,,,,,,,0x03,
1931,-99,-46,-1001,-1260,420,1050,,,,,,,0x03,
1941,-93,-47,-1005,-1470,420,980,,,,,,,0x03,
1951,-95,-51,-1004,-1820,350,840,,,,,,,0x03,
1960,-92,-50,-1012,-2170,210,770,,,,,,,0x03,
1970,-93,-52,-1008,-2100,140,700,,,,,,,0x03,
1980,-102,-51,-999,-2170,140,700,,,,,,,0x03,
1989,-96,-49,-1011,-1750,70,700,,,,,,,0x03,
1999,-93,-48,-1007,-1610,210,840,,,,,,,0x03,
2008,-103,-40,-1009,-1610,210,980,,,,,,,0x03,
2018,-101,-41,-1013,-1260,-280,980,,,,,,,0x03,
2028,-98,-31,-1014,-1540,-700,910,,,,,,,0x03,
2037,-99,-30,-1012,-1330,-770,980,,,,,,,0x03,
2047,-100,-33,-1009,-1260,-980,910,,,,,,,0x03,
2057,-100,-31,-1008,-980,-1050,770,,,,,,,0x03,
2066,-100,-33,-1003,-490,-1190,770,,,,,,,0x03,
2076,-98,-38,-1005,-210,-1260,770,,,,,,,0x03,
2086,-97,-41,-1008,350,-1260,840,,,,,,,0x03,
2095,-94,-42,-1015,1050,-1330,910,,,,,,,0x03,
2105,-94,-40,-1016,1890,-1470,840,,,,,,,0x03,
2115,-94,-36,-1013,1820,-1820,840,,,,,,,0x03,
2124,-92,-37,-1014,1330,-2030,630,,,,,,,0x03,
2134,-90,-40,-1013,910,-2380,420,,,,,,,0x03,
2144,-91,-43,-1011,630,-2590,140,,,,,,,0x03,
2153,-95,-47,-1006,420,-2730,-140,,,,,,,0x03,
2163,-98,-51,-998,-210,-2870,-350,,,,,,,0x03,
2173,-96,-49,-997,-490,-2870,-630,,,,,,,0x03,
2182,-95,-50,-991,-490,-2590,-770,,,,,,,0x03,
2192,-96,-45,-991,-490,-2100,-770,,,,,,,0x03,
2202,-96,-44,-983,-70,-1470,-630,,,,,,,0x03,
2211,-96,-40,-978,280,-700,-560,,,,,,,0x03,
2221,-94,-38,-985,770,210,-490,,,,,,,0x03,
2231,-93,-35,-992,1400,770,-210,,,,,,,0x03,
2240,-94,-31,-997,1680,1050,-70,,,,,,,0x03,
2250,-91,-29,-1008,2030,1330,0,,,,,,,0x03,
2260,-90,-25,-1002,1680,1330,140,,,,,,,0x03,
2269,-91,-24,-1015,1540,1120,350,,,,,,,0x03,
2279,-85,-31,-1015,1120,560,350,,,,,,,0x03,
2289,-86,-31,-1019,490,140,350,,,,,,,0x03,
2298,-86,-41,-1017,350,-420,490,,,,,,,0x03,
2308,-84,-48,-1019,770,-560,630,,,,,,,0x03,
2317,-85,-56,-1013,2310,-630,840,,,,,,,0x03,
2327,-88,-58,-1006,4130,-700,980,,,,,,,0x03,
2337,-90,-54,-1002,5670,-560,980,,,,,,,0x03,
2346,-90,-50,-1003,6510,-420,1050,,,,,,,0x03,
2356,-93,-49,-1004,6580,-420,980,,,,,,,0x03,
2366,-97,-48,-1000,5740,-350,980,,,,,,,0x03,
2375,-98,-50,-1001,4830,-280,840,,,,,,,0x03,
2385,-94,-54,-1004,4060,-350,700,,,,,,,0x03,
2395,-94,-55,-1007,3360,-420,560,,,,,,,0x03,
2404,-97,-54,-1007,2590,-560,350,,,,,,,0x03,
2414,-99,-54,-1007,1750,-630,140,,,,,,,0x03,
2424,-96,-57,-1006,840,-980,0,,,,,,,0x03,
2433,-95,-60,-1004,-70,-980,-140,,,,,,,0x03,
2443,-95,-60,-1009,-70,-1050,-140,,,,,,,0x03,
2453,-93,-61,-1009,560,-1190,-210,,,,,,,0x03,
2462,-96,-54,-1006,980,-1190,-210,,,,,,,0x03,
2472,-96,-49,-1002,770,-1190,-140,,,,,,,0x03,
2482,-92,-48,-1001,560,-1190,-210,,,,,,,0x03,
2491,-91,-47,-1002,490,-1120,-210,,,,,,,0x03,
2501,-94,-48,-1006,630,-980,-210,,,,,,,0x03,
2511,-96,-49,-1002,420,-980,-70,,,,,,,0x03,
2520,-101,-50,-1002,350,-910,-140,,,,,,,0x03,
2530,-100,-52,-1003,420,-910,-140,,,,,,,0x03,
2540,-96,-52,-1007,840,-840,0,,,,,,,0x03,
2549,-97,-55,-1007,1190,-840,0,,,,,,,0x03,
2559,-95,-52,-1012,1470,-1190,70,,,,,,,0x03,
2569,-96,-52,-1006,910,-1330,0,,,,,,,0x03,
2578,-97,-50,-1008,630,-1470,-70,,,,,,,0x03,
2588,-94,-57,-1008,490,-1610,-210,,,,,,,0x03,
2598,-97,-60,-1003,210,-1610,-210,,,,,,,0x03,
2607,-100,-64,-1008,350,-1540,-140,,,,,,,0x03,
2617,-96,-67,-1007,420,-1680,-70,,,,,,,0x03,
2626,-93,-66,-1010,630,-1680,-280,,,,,,,0x03,
2636,-92,-66,-1011,700,-1680,-350,,,,,,,0x03,
2646,-95,-63,-1011,420,-1820,-490,,,,,,,0x03,
2655,-93,-63,-1007,140,-2100,-560,,,,,,,0x03,
2665,-93,-64,-1001,-700,-2310,-630,,,,,,,0x03,
2675,-94,-69,-1003,-980,-2240,-700,,,,,,,0x03,
2684,-95,-74,-1001,-630,-2170,-560,,,,,,,0x03,
2694,-96,-69,-1006,280,-2100,-560,,,,,,,0x03,
2704,-96,-62,-1007,910,-2100,-630,,,,,,,0x03,
2713,-96,-52,-1005,420,-2240,-630,,,,,,,0x03,
2723,-96,-45,-1007,-910,-2380,-700,,,,,,,0x03,
2733,-92,-44,-1005,-2240,-2450,-840,,,,,,,0x03,
2742,-94,-45,-1001,-3570,-2450,-980,,,,,,,0x03,
2752,-98,-49,-1000,-4550,-2380,-1050,,,,,,,0x03,
2762,-97,-55,-1002,-4830,-2240,-1050,,,,,,,0x03,
2771,-96,-55,-999,-4550,-2100,-1050,,,,,,,0x03,
2781,-98,-54,-995,-4200,-1890,-1050,,,,,,,0x03,
2791,-99,-46,-994,-4270,-1610,-980,,,,,,,0x03,
2800,-98,-45,-994,-3990,-1330,-840,,,,,,,0x03,
2810,-95,-43,-994,-3430,-980,-700,,,,,,,0x03,
2820,-96,-42,-995,-3080,-630,-490,,,,,,,0x03,
2829,-100,-39,-998,-2870,-210,-280,,,,,,,0x03,
2839,-99,-38,-1001,-2520,-70,-210,,,,,,,0x03,
2849,-98,-36,-1006,-2520,-140,-140,,,,,,,0x03,
2858,-100,-33,-1009,-2590,-210,-70,,,,,,,0x03,
2868,-102,-35,-1006,-2800,-280,-140,,,,,,,0x03,
2878,-102,-37,-1006,-3010,-350,-140,,,,,,,0x03,
2887,-100,-41,-1006,-2940,-490,-210,,,,,,,0x03,
2897,-100,-44,-1006,-2310,-560,-70,,,,,,,0x03,
2907,-99,-45,-1003,-1750,-490,70,,,,,,,0x03,
2916,-100,-42,-1006,-700,-490,280,,,,,,,0x03,
2926,-99,-43,-1004,70,-560,280,,,,,,,0x03,
2935,-99,-37,-1006,560,-560,350,,,,,,,0x03,
2945,-98,-35,-1002,770,-420,420,,,,,,,0x03,
2955,-98,-31,-998,560,-280,490,,,,,,,0x03,
2964,-99,-33,-995,140,-140,560,,,,,,,0x03,
2974,-102,-37,-990,-420,70,560,,,,,,,0x03,
2984,-104,-39,-1000,-630,280,560,,,,,,,0x03,
2993,-107,-44,-1001,-980,350,560,,,,,,,0x03,
3003,-108,-42,-1006,-1260,350,490,,,,,,,0x03,
3013,-105,-43,-1005,-1400,420,420,,,,,,,0x03,
3022,-104,-42,-1008,-1400,280,350,,,,,,,0x03,
3032,-103,-42,-1007,-1750,140,140,,,,,,,0x03,
3042,-102,-43,-1012,-2240,70,0,,,,,,,0x03,
3051,-100,-46,-1009,-2730,-70,-140,,,,,,,0x03,
3061,-100,-50,-1009,-2800,-280,-350,,,,,,,0x03,
3071,-98,-53,-1010,-2590,-420,-490,,,,,,,0x03,
3080,-98,-51,-1006,-2100,-490,-490,,,,,,,0x03,
3090,-97,-45,-1007,-1540,-490,-630,,,,,,,0x03,
3100,-96,-38,-1007,-1260,-560,-840,,,,,,,0x03,
3109,-96,-32,-1003,-1680,-630,-910,,,,,,,0x03,
3119,-94,-30,-1004,-2240,-560,-980,,,,,,,0x03,
3129,-92,-33,-1004,-2660,-560,-1120,,,,,,,0x03,
3138,-93,-29,-1009,-2660,-560,-1120,,,,,,,0x03,
3148,-94,-31,-1007,-2310,-630,-1050,,,,,,,0x03,
3158,-96,-31,-1008,-2100,-770,-980,,,,,,,0x03,
3167,-95,-32,-1006,-1540,-910,-770,,,,,,,0x03,
3177,-94,-33,-1005,-560,-910,-630,,,,,,,0x03,
3187,-95,-35,-1003,350,-770,-420,,,,,,,0x03,
3196,-93,-37,-1005,1190,-700,-210,,,,,,,0x03,
3206,-92,-38,-1004,2170,-700,70,,,,,,,0x03,
3216,-93,-39,-1003,3010,-630,280,,,,,,,0x03,
3225,-94,-40,-996,3710,-490,490,,,,,,,0x03,
3235,-98,-39,-992,4060,-210,630,,,,,,,0x03,
3244,-99,-41,-992,3780,280,700,,,,,,,0x03,
3254,-100,-39,-990,2940,630,630,,,,,,,0x03,
3264,-101,-42,-994,2240,770,700,,,,,,,0x03,
3273,-97,-46,-1002,2100,910,700,,,,,,,0x03,
3283,-94,-43,-1001,2100,1120,770,,,,,,,0x03,
3293,-97,-43,-1009,2590,1190,840,,,,,,,0x03,
3302,-94,-39,-1015,2660,1050,770,,,,,,,0x03,
3312,-95,-39,-1014,2240,700,700,,,,,,,0x03,
3322,-95,-38,-1021,1470,350,490,,,,,,,0x03,
3331,-94,-38,-1016,560,0,210,,,,,,,0x03,
3341,-93,-42,-1009,-420,-350,70,,,,,,,0x03,
3351,-93,-45,-1012,-1190,-490,-70,,,,,,,0x03,
3360,-94,-48,-1010,-1260,-700,-140,,,,,,,0x03,
3370,-97,-48,-1007,-1050,-840,-70,,,,,,,0x03,
3380,-98,-48,-1009,-280,-910,-140,,,,,,,0x03,
3389,-97,-44,-1005,210,-910,-140,,,,,,,0x03,
3399,-100,-41,-1005,280,-910,-70,,,,,,,0x03,
3409,-100,-39,-1005,210,-910,-140,,,,,,,0x03,
3418,-98,-37,-1002,-70,-910,-140,,,,,,,0x03,
3428,-96,-39,-1001,-560,-840,-70,,,,,,,0x03,
3438,-96,-43,-1000,-1120,-840,0,,,,,,,0x03,
3447,-96,-45,-1005,-1190,-840,-70,,,,,,,0x03,
3457,-92,-49,-1005,-980,-910,-70,,,,,,,0x03,
3467,-93,-44,-1009,-1330,-840,-70,,,,,,,0x03,
3476,-95,-42,-1009,-1260,-910,0,,,,,,,0x03,
3486,-94,-41,-1007,-1190,-1050,-70,,,,,,,0x03,
3496,-93,-40,-1003,-1330,-1190,-140,,,,,,,0x03,
3505,-93,-42,-1003,-1470,-1120,-140,,,,,,,0x03,
3515,-94,-42,-1007,-1610,-1050,-140,,,,,,,0x03,
3524,-93,-44,-1004,-1890,-1120,0,,,,,,,0x03,
3534,-93,-42,-1006,-2100,-1050,-70,,,,,,,0x03,
3544,-89,-44,-1004,-1890,-1120,-140,,,,,,,0x03,
3553,-89,-39,-1003,-1890,-1050,-70,,,,,,,0x03,
3563,-91,-37,-1003,-1750,-980,-70,,,,,,,0x03,
3573,-89,-37,-1005,-1680,-980,0,,,,,,,0x03,
3582,-89,-35,-1006,-1890,-910,0,,,,,,,0x03,
3592,-95,-36,-1003,-2170,-840,70,,,,,,,0x03,
3602,-95,-38,-1008,-1750,-840,0,,,,,,,0x03,
3611,-91,-39,-1001,-1120,-770,0,,,,,,,0x03,
3621,-97,-34,-998,-1050,-700,140,,,,,,,0x03,
3631,-96,-32,-1006,-770,-630,140,,,,,,,0x03,
3640,-94,-33,-1003,-1120,-700,140,,,,,,,0x03,
3650,-97,-31,-1002,-1540,-560,210,,,,,,,0x03,
3660,-98,-35,-1004,-1260,-700,280,,,,,,,0x03,
3669,-97,-35,-1004,-910,-630,210,,,,,,,0x03,
3679,-99,-31,-1004,-420,-560,350,,,,,,,0x03,
3689,-97,-32,-1005,70,-490,420,,,,,,,0x03,
3698,-95,-31,-1003,140,-490,420,,,,,,,0x03,
3708,-96,-29,-1008,420,-490,350,,,,,,,0x03,
3718,-94,-32,-1008,980,-420,280,,,,,,,0x03,
3727,-95,-29,-1003,1190,-420,350,,,,,,,0x03,
3737,-97,-28,-1005,1400,-350,280,,,,,,,0x03,
3747,-95,-29,-1001,1120,-350,210,,,,,,,0x03,
3756,-99,-28,-1001,700,-140,210,,,,,,,0x03,
3766,-100,-33,-1001,630,-70,210,,,,,,,0x03,
3776,-100,-36,-999,490,-140,140,,,,,,,0x03,
3785,-96,-36,-1010,770,-70,140,,,,,,,0x03,
3795,-96,-36,-1007,980,-210,210,,,,,,,0x03,
3805,-97,-34,-1008,840,-280,210,,,,,,,0x03,
3814,-93,-35,-1015,700,-560,140,,,,,,,0x03,
3824,-91,-35,-1013,350,-840,140,,,,,,,0x03,
3833,-92,-36,-1012,280,-980,70,,,,,,,0x03,
3843,-90,-37,-1009,280,-1190,0,,,,,,,0x03,
3853,-89,-37,-1007,280,-1330,0,,,,,,,0x03,
3862,-92,-41,-1005,350,-1260,-70,,,,,,,0x03,
3872,-93,-42,-1004,350,-1190,-70,,,,,,,0x03,
3882,-94,-42,-1008,700,-1120,-70,,,,,,,0x03,
3891,-95,-41,-1004,980,-1190,0,,,,,,,0x03,
3901,-95,-37,-1003,840,-1050,0,,,,,,,0x03,
3911,-97,-34,-999,560,-1050,0,,,,,,,0x03,
3920,-95,-36,-998,140,-910,0,,,,,,,0x03,
3930,-97,-38,-997,-70,-630,-70,,,,,,,0x03,
3940,-94,-38,-998,-140,-350,0,,,,,,,0x03,
3949,-92,-42,-1005,-70,-70,70,,,,,,,0x03,
3959,-92,-41,-1008,140,0,210,,,,,,,0x03,
3969,-94,-38,-1012,840,-140,210,,,,,,,0x03,
3978,-94,-40,-1012,1330,-420,210,,,,,,,0x03,
3988,-96,-41,-1011,1330,-770,70,,,,,,,0x03,
3998,-93,-42,-1007,1330,-980,70,,,,,,,0x03,
4007,-95,-39,-1010,1400,-1120,140,,,,,,,0x03,
4017,-96,-39,-1011,1540,-1190,0,,,,,,,0x03,
4027,-96,-36,-1009,1470,-1330,0,,,,,,,0x03,
4036,-97,-33,-1006,1190,-1470,-70,,,,,,,0x03,
4046,-94,-32,-1003,1120,-1470,-210,,,,,,,0x03,
4056,-94,-30,-997,630,-1330,-280,,,,,,,0x03,
4065,-96,-30,-996,0,-1120,-210,,,,,,,0x03,
4075,-93,-35,-998,-420,-980,-210,,,,,,,0x03,
4085,-95,-37,-997,-700,-840,-70,,,,,,,0x03,
4094,-96,-39,-1001,-490,-560,70,,,,,,,0x03,
4104,-97,-43,-1002,140,-490,70,,,,,,,0x03,
4114,-98,-39,-1004,910,-490,140,,,,,,,0x03,
4123,-97,-37,-1003,910,-420,140,,,,,,,0x03,
4133,-97,-32,-1003,350,-350,280,,,,,,,0x03,
4142,-96,-35,-1006,-70,-350,350,,,,,,,0x03,
4152,-92,-38,-1009,-210,-490,350,,,,,,,0x03,
4162,-93,-37,-1008,-350,-560,350,,,,,,,0x03,
4171,-94,-37,-1011,-280,-700,350,,,,,,,0x03,
4181,-93,-40,-1011,-560,-980,280,,,,,,,0x03,
4191,-93,-40,-1007,-980,-1190,140,,,,,,,0x03,
4200,-93,-41,-1006,-1190,-1330,70,,,,,,,0x03,
4210,-91,-44,-1003,-1190,-1400,0,,,,,,,0x03,
4220,-95,-41,-1007,-980,-1260,0,,,,,,,0x03,
4229,-96,-41,-1006,-420,-1120,0,,,,,,,0x03,
4239,-99,-36,-1003,-420,-1050,0,,,,,,,0x03,
4249,-99,-33,-1004,-630,-1050,-70,,,,,,,0x03,
4258,-95,-34,-1003,-1190,-1120,-70,,,,,,,0x03,
4268,-96,-34,-1004,-1610,-980,0,,,,,,,0x03,
4278,-96,-36,-1005,-1680,-1120,0,,,,,,,0x03,
4287,-96,-37,-1006,-1540,-1120,0,,,,,,,0x03,
4297,-99,-37,-1008,-1050,-1120,70,,,,,,,0x03,
4307,-97,-38,-1006,-350,-1190,140,,,,,,,0x03,
4316,-96,-35,-1002,-350,-1190,210,,,,,,,0x03,
4326,-97,-36,-1008,-350,-1260,350,,,,,,,0x03,
4336,-93,-36,-1007,70,-1330,420,,,,,,,0x03,
4345,-92,-33,-1003,280,-1260,420,,,,,,,0x03,
4355,-94,-36,-1003,420,-1120,490,,,,,,,0x03,
4365,-93,-37,-1002,770,-1050,700,,,,,,,0x03,
4374,-96,-38,-1004,1330,-1050,770,,,,,,,0x03,
4384,-99,-33,-1007,1820,-980,770,,,,,,,0x03,
4394,-99,-33,-1005,1400,-1050,770,,,,,,,0x03,
4403,-99,-33,-1010,770,-1120,700,,,,,,,0x03,
4413,-99,-35,-1009,280,-1260,700,,,,,,,0x03,
4423,-101,-37,-1005,-350,-1330,560,,,,,,,0x03,
4432,-101,-41,-1002,-980,-1400,560,,,,,,,0x03,
4442,-99,-44,-1002,-1330,-1260,560,,,,,,,0x03,
4451,-94,-45,-1005,-1400,-1120,630,,,,,,,0x03,
4461,-95,-43,-1001,-1470,-1120,770,,,,,,,0x03,
4471,-96,-42,-1001,-1820,-910,770,,,,,,,0x03,
4480,-95,-43,-1004,-1680,-700,700,,,,,,,0x03,
4490,-98,-42,-1001,-1470,-630,700,,,,,,,0x03,
4500,-100,-39,-998,-1820,-630,630,,,,,,,0x03,
4509,-98,-38,-1003,-2100,-770,630,,,,,,,0x03,
4519,-96,-37,-1001,-2660,-700,490,,,,,,,0x03,
4529,-98,-34,-1008,-2870,-560,490,,,,,,,0x03,
4538,-95,-33,-1010,-3010,-700,280,,,,,,,0x03,
4548,-97,-27,-1011,-3500,-700,140,,,,,,,0x03,
4558,-98,-27,-1007,-4200,-770,70,,,,,,,0x03,
4567,-96,-27,-1006,-4900,-1050,-70,,,,,,,0x03,
4577,-93,-31,-1003,-5040,-1050,-210,,,,,,,0x03,
4587,-96,-31,-1006,-5110,-980,-140,,,,,,,0x03,
4596,-94,-31,-1007,-4340,-910,-140,,,,,,,0x03,
4606,-94,-26,-1005,-3360,-980,-140,,,,,,,0x03,
4616,-95,-19,-1006,-2800,-980,-210,,,,,,,0x03,
4625,-94,-14,-1006,-2800,-1050,-210,,,,,,,0x03,
4635,-95,-12,-1003,-3150,-1190,-140,,,,,,,0x03,
4645,-94,-14,-1004,-2940,-1120,-210,,,,,,,0x03,
4654,-96,-18,-1002,-2800,-980,-210,,,,,,,0x03,
4664,-102,-20,-1000,-2380,-840,-70,,,,,,,0x03,
4674,-102,-23,-1003,-1820,-700,0,,,,,,,0x03,
4683,-96,-22,-1007,-1050,-700,70,,,,,,,0x03,
4693,-93,-18,-1009,-560,-700,210,,,,,,,0x03,
4703,-96,-16,-1008,0,-770,280,,,,,,,0x03,
4712,-95,-14,-1006,210,-840,210,,,,,,,0x03,
4722,-96,-15,-1002,350,-910,210,,,,,,,0x03,
4732,-98,-17,-1004,280,-980,140,,,,,,,0x03,
4741,-98,-21,-1005,350,-1050,210,,,,,,,0x03,
4751,-100,-23,-1007,490,-840,210,,,,,,,0x03,
4760,-101,-27,-1005,910,-840,210,,,,,,,0x03,
4770,-101,-25,-1003,1260,-770,210,,,,,,,0x03,
4780,-102,-23,-1004,1400,-770,140,,,,,,,0x03,
4789,-103,-21,-1001,1050,-840,70,,,,,,,0x03,
4799,-102,-20,-1001,560,-770,70,,,,,,,0x03,
4809,-96,-23,-1002,-70,-560,70,,,,,,,0x03,
4818,-97,-24,-1005,-560,-490,140,,,,,,,0x03,
4828,-97,-25,-1008,-280,-490,70,,,,,,,0x03,
4838,-96,-25,-1008,70,-560,0,,,,,,,0x03,
4847,-97,-22,-1006,210,-700,0,,,,,,,0x03,
4857,-98,-22,-1005,490,-770,70,,,,,,,0x03,
4867,-95,-22,-1006,560,-770,70,,,,,,,0x03,
4876,-96,-23,-1006,700,-700,210,,,,,,,0x03,
4886,-98,-23,-1007,770,-700,280,,,,,,,0x03,
4896,-99,-25,-1006,910,-840,140,,,,,,,0x03,
4905,-100,-26,-1006,770,-840,140,,,,,,,0x03,
4915,-102,-25,-1007,840,-840,140,,,,,,,0x03,
4925,-102,-27,-1005,1260,-910,210,,,,,,,0x03,
4934,-101,-21,-1002,770,-910,140,,,,,,,0x03,
4944,-99,-21,-1004,560,-910,70,,,,,,,0x03,
4954,-97,-23,-1003,210,-910,0,,,,,,,0x03,
4963,-99,-25,-1001,140,-770,0,,,,,,,0x03,
4973,-97,-28,-1001,280,-560,70,,,,,,,0x03,
4983,-97,-27,-1001,630,-350,70,,,,,,,0x03,
4992,-101,-25,-999,910,-140,140,,,,,,,0x03,
5002,-104,-24,-1004,980,-70,140,,,,,,,0x03,
5012,-102,-21,-1006,910,-140,70,,,,,,,0x03,
5021,-100,-18,-1010,630,-210,0,,,,,,,0x03,
5031,-100,-18,-1008,280,-280,0,,,,,,,0x03,
5041,-99,-20,-1009,-280,-560,-70,,,,,,,0x03,
5050,-97,-25,-1012,-210,-770,0,,,,,,,0x03,
5060,-98,-25,-1012,210,-980,0,,,,,,,0x03,
5069,-98,-28,-1008,420,-1120,70,,,,,,,0x03,
5079,-96,-29,-1009,560,-1260,140,,,,,,,0x03,
5089,-96,-32,-1015,1330,-1330,140,,,,,,,0x03,
5098,-96,-28,-1011,1820,-1540,140,,,,,,,0x03,
5108,-96,-25,-1014,2030,-1610,140,,,,,,,0x03,
5118,-93,-25,-1010,1820,-1890,0,,,,,,,0x03,
5127,-96,-24,-1006,1050,-2030,-70,,,,,,,0x03,
5137,-95,-26,-1005,490,-2100,0,,,,,,,0x03,
5147,-93,-30,-998,-70,-2100,-70,,,,,,,0x03,
5156,-93,-34,-999,-210,-1960,-140,,,,,,,0x03,
5166,-93,-35,-998,70,-1820,-210,,,,,,,0x03,
5176,-96,-32,-997,0,-1540,-210,,,,,,,0x03,
5185,-96,-28,-1002,210,-1330,-70,,,,,,,0x03,
5195,-93,-26,-1000,-140,-1190,-70,,,,,,,0x03,
5205,-95,-23,-996,-560,-980,0,,,,,,,0x03,
5214,-97,-25,-995,-1190,-770,70,,,,,,,0x03,
5224,-96,-30,-997,-1330,-630,70,,,,,,,0x03,
5234,-97,-30,-1000,-910,-350,140,,,,,,,0x03,
5243,-99,-30,-1000,-210,-70,280,,,,,,,0x03,
5253,-101,-26,-1000,490,70,350,,,,,,,0x03,
5263,-101,-22,-1002,980,210,420,,,,,,,0x03,
5272,-100,-19,-1002,1260,350,420,,,,,,,0x03,
5282,-101,-17,-1006,1190,560,560,,,,,,,0x03,
5292,-101,-21,-1003,980,420,630,,,,,,,0x03,
5301,-99,-21,-1007,630,280,630,,,,,,,0x03,
5311,-98,-27,-1010,770,140,560,,,,,,,0x03,
5321,-102,-28,-1009,840,-70,490,,,,,,,0x03,
5330,-105,-29,-1012,910,-210,350,,,,,,,0x03,
5340,-105,-32,-1013,1540,-420,350,,,,,,,0x03,
5350,-104,-28,-1013,1820,-630,350,,,,,,,0x03,
5359,-102,-24,-1014,1680,-770,280,,,,,,,0x03,
5369,-102,-26,-1010,1190,-1050,210,,,,,,,0x03,
5378,-105,-25,-1012,770,-1260,70,,,,,,,0x03,
5388,-104,-28,-1005,630,-1540,0,,,,,,,0x03,
5398,-103,-29,-1001,420,-1540,0,,,,,,,0x03,
5407,-103,-31,-1002,560,-1330,0,,,,,,,0x03,
5417,-101,-30,-1000,840,-1120,70,,,,,,,0x03,
5427,-103,-29,-1002,1050,-980,140,,,,,,,0x03,
5436,-105,-29,-1001,1190,-910,210,,,,,,,0x03,
5446,-107,-26,-1004,1190,-770,210,,,,,,,0x03,
5456,-106,-27,-1001,1120,-770,350,,,,,,,0x03,
5465,-105,-26,-1000,560,-770,350,,,,,,,0x03,
5475,-103,-27,-1001,280,-630,420,,,,,,,0x03,
5485,-100,-30,-1001,210,-560,490,,,,,,,0x03,
5494,-97,-31,-1004,70,-490,560,,,,,,,0x03,
5504,-95,-31,-1008,280,-420,630,,,,,,,0x03,
5514,-94,-31,-1004,210,-560,630,,,,,,,0x03,
5523,-92,-30,-1009,0,-700,630,,,,,,,0x03,
5533,-90,-30,-1007,-140,-770,490,,,,,,,0x03,
5543,-90,-27,-1008,-840,-840,560,,,,,,,0x03,
5552,-88,-32,-1012,-1120,-980,490,,,,,,,0x03,
5562,-88,-31,-1009,-1680,-1120,420,,,,,,,0x03,
5572,-90,-34,-1008,-1470,-1120,350,,,,,,,0x03,
5581,-89,-36,-1004,-910,-1120,210,,,,,,,0x03,
5591,-88,-35,-1001,-420,-980,210,,,,,,,0x03,
5601,-91,-33,-1004,-70,-770,280,,,,,,,0x03,
5610,-92,-30,-1007,280,-700,350,,,,,,,0x03,
5620,-95,-28,-1004,280,-770,350,,,,,,,0x03,
5630,-100,-25,-1003,-70,-770,210,,,,,,,0x03,
5639,-99,-25,-1004,-280,-840,70,,,,,,,0x03,
5649,-98,-25,-1001,-630,-770,0,,,,,,,0x03,
5659,-101,-23,-1002,-1190,-700,70,,,,,,,0x03,
5668,-99,-26,-1006,-1050,-770,70,,,,,,,0x03,
5678,-100,-25,-1006,-700,-910,0,,,,,,,0x03,
5687,-101,-22,-1004,-140,-910,0,,,,,,,0x03,
5697,-103,-20,-1001,70,-770,0,,,,,,,0x03,
5707,-102,-21,-1004,350,-630,140,,,,,,,0x03,
5716,-102,-22,-1003,560,-560,280,,,,,,,0x03,
5726,-102,-22,-1006,770,-490,350,,,,,,,0x03,
5736,-101,-25,-1006,980,-490,420,,,,,,,0x03,
5745,-101,-24,-1006,1050,-490,350,,,,,,,0x03,
5755,-103,-22,-1005,1120,-630,210,,,,,,,0x03,
5765,-104,-22,-1006,1120,-630,140,,,,,,,0x03,
5774,-102,-25,-1004,770,-770,70,,,,,,,0x03,
5784,-100,-25,-1009,630,-700,0,,,,,,,0x03,
5794,-99,-30,-1008,700,-770,0,,,,,,,0x03,
5803,-101,-31,-1003,630,-840,0,,,,,,,0x03,
5813,-99,-33,-1002,630,-770,70,,,,,,,0x03,
5823,-99,-33,-1002,840,-700,140,,,,,,,0x03,
5832,-98,-35,-1003,910,-770,140,,,,,,,0x03,
5842,-96,-31,-1009,910,-770,140,,,,,,,0x03,
5852,-98,-31,-1004,420,-770,140,,,,,,,0x03,
5861,-100,-31,-1006,-70,-770,70,,,,,,,0x03,
5871,-98,-34,-1002,-140,-840,0,,,,,,,0x03,
5881,-99,-32,-998,-280,-630,0,,,,,,,0x03,
5890,-98,-33,-1002,-70,-420,70,,,,,,,0x03,
5900,-98,-32,-1000,-70,-210,140,,,,,,,0x03,
5910,-100,-28,-1004,-140,-140,140,,,,,,,0x03,
5919,-99,-28,-1003,-140,-210,70,,,,,,,0x03,
5929,-98,-26,-1005,-70,-280,70,,,,,,,0x03,
5939,-99,-22,-1006,-210,-210,0,,,,,,,0x03,
5948,-100,-23,-1011,-210,-350,140,,,,,,,0x03,
5958,-98,-23,-1017,0,-490,140,,,,,,,0x03,
5968,-98,-22,-1019,140,-910,70,,,,,,,0x03,
5977,-98,-24,-1016,140,-1400,140,,,,,,,0x03,
5987,-97,-29,-1011,210,-1610,0,,,,,,,0x03,
5996,-97,-33,-1007,490,-1750,0,,,,,,,0x03,
6006,-97,-34,-1005,980,-1750,0,,,,,,,0x03,
6016,-95,-35,-1005,1540,-1750,70,,,,,,,0x03,
6025,-98,-31,-1005,1400,-1680,70,,,,,,,0x03,
6035,-96,-29,-1005,1190,-1820,-70,,,,,,,0x03,
6045,-98,-22,-1007,630,-1890,-350,,,,,,,0x03,
6054,-98,-21,-1000,-350,-1890,-350,,,,,,,0x03,
6064,-101,-26,-996,-1470,-1750,-350,,,,,,,0x03,
6074,-100,-34,-995,-1960,-1540,-280,,,,,,,0x03,
6083,-97,-38,-997,-1400,-1260,-210,,,,,,,0x03,
6093,-99,-37,-995,-700,-840,-140,,,,,,,0x03,
6103,-100,-33,-998,-210,-630,-140,,,,,,,0x03,
6112,-99,-30,-1003,-70,-490,0,,,,,,,0x03,
6122,-97,-25,-1009,-70,-350,70,,,,,,,0x03,
6132,-101,-22,-1005,-350,-420,140,,,,,,,0x03,
6141,-103,-22,-1005,-700,-490,140,,,,,,,0x03,
6151,-100,-26,-1005,-980,-490,140,,,,,,,0x03,
6161,-102,-27,-1005,-1050,-490,140,,,,,,,0x03,
6170,-101,-31,-1004,-910,-560,140,,,,,,,0x03,
6180,-99,-31,-1005,-700,-560,140,,,,,,,0x03,
6190,-98,-31,-1006,0,-630,210,,,,,,,0x03,
6199,-100,-27,-1004,490,-560,280,,,,,,,0x03,
6209,-103,-23,-1003,630,-420,210,,,,,,,0x03,
6219,-101,-25,-1006,630,-420,280,,,,,,,0x03,
6228,-102,-24,-1006,420,-420,210,,,,,,,0x03,
6238,-102,-24,-1006,560,-490,280,,,,,,,0x03,
6248,-103,-26,-1003,910,-560,210,,,,,,,0x03,
6257,-102,-28,-1001,1050,-560,280,,,,,,,0x03,
6267,-101,-25,-1006,1330,-490,350,,,,,,,0x03,
6277,-100,-26,-1003,1750,-420,350,,,,,,,0x03,
6286,-101,-25,-1002,1750,-280,420,,,,,,,0x03,
6296,-102,-26,-1004,1680,-280,490,,,,,,,0x03,
6305,-100,-29,-1007,1750,-350,420,,,,,,,0x03,
6315,-102,-26,-1006,1680,-490,350,,,,,,,0x03,
6325,-101,-28,-1005,1610,-490,350,,,,,,,0x03,
6334,-104,-30,-1003,910,-630,280,,,,,,,0x03,
6344,-103,-28,-1004,700,-630,70,,,,,,,0x03,
6354,-101,-31,-1004,630,-630,70,,,,,,,0x03,
6363,-101,-29,-1001,420,-560,70,,,,,,,0x03,
6373,-102,-29,-1003,420,-420,70,,,,,,,0x03,
6383,-100,-31,-1006,560,-420,140,,,,,,,0x03,
6392,-97,-29,-1004,420,-420,140,,,,,,,0x03,
6402,-98,-29,-1005,350,-280,210,,,,,,,0x03,
6412,-96,-30,-1008,420,-350,210,,,,,,,0x03,
6421,-96,-30,-1006,350,-420,210,,,,,,,0x03,
6431,-97,-32,-1003,210,-490,280,,,,,,,0x03,
6441,-97,-31,-1006,210,-630,210,,,,,,,0x03,
6450,-94,-29,-1005,280,-630,210,,,,,,,0x03,
6460,-95,-30,-1007,-140,-630,140,,,,,,,0x03,
6470,-95,-31,-1012,-70,-700,140,,,,,,,0x03,
6479,-92,-31,-1008,210,-840,70,,,,,,,0x03,
6489,-96,-29,-1006,280,-840,70,,,,,,,0x03,
6499,-94,-31,-1006,350,-910,0,,,,,,,0x03,
6508,-93,-31,-1003,210,-840,0,,,,,,,0x03,
6518,-96,-31,-1003,490,-700,70,,,,,,,0x03,
6528,-96,-33,-1003,770,-700,140,,,,,,,0x03,
6537,-96,-31,-1001,980,-630,70,,,,,,,0x03,
6547,-99,-30,-1000,1330,-490,70,,,,,,,0x03,
6557,-98,-28,-1001,1610,-490,70,,,,,,,0x03,
6566,-98,-24,-1000,1540,-350,140,,,,,,,0x03,
6576,-99,-24,-1004,1470,-210,210,,,,,,,0x03,
6586,-100,-27,-1002,1260,-210,210,,,,,,,0x03,
6595,-103,-30,-1002,980,-140,280,,,,,,,0x03,
6605,-100,-34,-1005,1190,0,350,,,,,,,0x03,
6614,-99,-35,-1005,1540,140,420,,,,,,,0x03,
6624,-101,-33,-1007,1890,70,560,,,,,,,0x03,
6634,-100,-34,-1010,2310,-70,560,,,,,,,0x03,
6643,-100,-31,-1008,2030,-210,490,,,,,,,0x03,
6653,-101,-35,-1008,1890,-350,420,,,,,,,0x03,
6663,-98,-35,-1011,1680,-560,420,,,,,,,0x03,
6672,-97,-35,-1012,1610,-770,350,,,,,,,0x03,
6682,-99,-34,-1009,1050,-1120,350,,,,,,,0x03,
6692,-100,-36,-1006,630,-1190,280,,,,,,,0x03,
6701,-102,-41,-1003,490,-1190,210,,,,,,,0x03,
6711,-102,-40,-1004,490,-1190,140,,,,,,,0x03,
6721,-99,-37,-1007,630,-1190,140,,,,,,,0x03,
6730,-103,-32,-1005,420,-1120,140,,,,,,,0x03,
6740,-101,-31,-1004,-70,-1190,140,,,,,,,0x03,
6750,-99,-31,-1000,-490,-1120,140,,,,,,,0x03,
6759,-99,-34,-997,-840,-980,210,,,,,,,0x03,
6769,-98,-37,-1002,-700,-770,420,,,,,,,0x03,
6779,-95,-38,-1004,-70,-700,630,,,,,,,0x03,
6788,-96,-36,-1005,490,-630,840,,,,,,,0x03,
6798,-96,-33,-1008,700,-630,910,,,,,,,0x03,
6808,-95,-34,-1009,560,-700,910,,,,,,,0x03,
6817,-96,-33,-1014,350,-980,840,,,,,,,0x03,
6827,-93,-36,-1009,70,-1260,840,,,,,,,0x03,
6837,-93,-36,-1004,-560,-1330,770,,,,,,,0x03,
6846,-94,-42,-1006,-980,-1330,630,,,,,,,0x03,
6856,-92,-46,-1001,-1120,-1400,490,,,,,,,0x03,
6866,-91,-45,-1002,-980,-1190,420,,,,,,,0x03,
6875,-92,-44,-1009,-630,-1050,350,,,,,,,0x03,
6885,-94,-39,-1010,-420,-1120,350,,,,,,,0x03,
6894,-97,-32,-1008,-910,-1190,140,,,,,,,0x03,
6904,-99,-28,-1011,-1610,-1470,-70,,,,,,,0x03,
6914,-101,-28,-1002,-2520,-1680,-350,,,,,,,0x03,
6923,-101,-28,-1005,-3080,-1680,-490,,,,,,,0x03,
6933,-99,-33,-998,-3290,-1610,-490,,,,,,,0x03,
6943,-100,-32,-1004,-3010,-1330,-490,,,,,,,0x03,
6952,-100,-33,-997,-2170,-1120,-490,,,,,,,0x03,
6962,-103,-26,-996,-1540,-840,-420,,,,,,,0x03,
6972,-101,-22,-999,-560,-630,-140,,,,,,,0x03,
6981,-99,-17,-999,70,-420,70,,,,,,,0x03,
6991,-101,-14,-993,-140,-210,140,,,,,,,0x03,
7001,-101,-17,-998,-420,70,210,,,,,,,0x03,
7010,-98,-25,-997,-420,210,140,,,,,,,0x03,
7020,-101,-29,-1002,-210,350,140,,,,,,,0x03,
7030,-104,-31,-1002,420,490,210,,,,,,,0x03,
7039,-106,-29,-1002,1050,490,280,,,,,,,0x03,
7049,-103,-27,-1000,1260,560,420,,,,,,,0x03,
7059,-105,-25,-1005,1470,630,350,,,,,,,0x03,
7068,-102,-29,-1008,1820,700,420,,,,,,,0x03,
7078,-101,-30,-1013,2030,630,420,,,,,,,0x03,
7088,-98,-29,-1016,2310,350,420,,,,,,,0x03,
7097,-97,-29,-1015,2310,70,350,,,,,,,0x03,
7107,-97,-30,-1010,1890,-210,210,,,,,,,0x03,
7117,-97,-29,-1011,1470,-490,70,,,,,,,0x03,
7126,-92,-32,-1011,1540,-630,0,,,,,,,0x03,
7136,-93,-33,-1004,1330,-630,-70,,,,,,,0x03,
7146,-97,-35,-1004,1260,-700,-70,,,,,,,0x03,
7155,-94,-36,-1010,1680,-840,-140,,,,,,,0x03,
7165,-96,-33,-1005,2030,-840,-70,,,,,,,0x03,
7175,-98,-30,-1001,2030,-840,-70,,,,,,,0x03,
7184,-97,-30,-1001,1680,-770,-70,,,,,,,0x03,
7194,-96,-30,-1000,1470,-630,0,,,,,,,0x03,
7203,-100,-33,-998,1050,-490,-70,,,,,,,0x03,
7213,-98,-36,-1004,770,-420,-70,,,,,,,0x03,
7223,-95,-39,-1007,1260,-350,70,,,,,,,0x03,
7232,-96,-36,-1007,1750,-210,70,,,,,,,0x03,
7242,-99,-33,-1002,1820,-210,140,,,,,,,0x03,
7252,-97,-32,-1003,1820,-210,140,,,,,,,0x03,
7261,-94,-35,-1004,1750,-210,70,,,,,,,0x03,
7271,-97,-36,-1003,1470,-140,70,,,,,,,0x03,
7281,-96,-39,-1007,1330,-140,70,,,,,,,0x03,
7290,-95,-40,-1007,1470,-140,0,,,,,,,0x03,
7300,-94,-39,-1003,1400,-140,-70,,,,,,,0x03,
7310,-96,-35,-1004,1050,-140,-140,,,,,,,0x03,
7319,-93,-38,-1009,840,-210,-140,,,,,,,0x03,
7329,-92,-36,-1009,490,-350,-210,,,,,,,0x03,
7339,-94,-36,-1009,350,-420,-280,,,,,,,0x03,
7348,-93,-37,-1009,420,-560,-350,,,,,,,0x03,
7358,-94,-38,-1006,210,-700,-420,,,,,,,0x03,
7368,-96,-36,-1012,350,-770,-350,,,,,,,0x03,
7377,-95,-40,-1010,700,-1050,-350,,,,,,,0x03,
7387,-98,-37,-1006,770,-1120,-350,,,,,,,0x03,
7397,-97,-36,-1007,840,-1120,-210,,,,,,,0x03,
7406,-93,-39,-1006,910,-1120,-210,,,,,,,0x03,
7416,-97,-36,-1001,770,-1050,-210,,,,,,,0x03,
7426,-97,-38,-1000,700,-980,-140,,,,,,,0x03,
7435,-95,-41,-1003,770,-1050,-140,,,,,,,0x03,
7445,-97,-40,-1005,980,-980,-70,,,,,,,0x03,
7455,-99,-40,-1004,980,-980,-70,,,,,,,0x03,
7464,-98,-40,-1003,560,-980,-70,,,,,,,0x03,
7474,-95,-42,-1004,420,-840,0,,,,,,,0x03,
7484,-96,-42,-1000,350,-770,70,,,,,,,0x03,
7493,-98,-41,-999,70,-630,70,,,,,,,0x03,
7503,-96,-42,-1006,70,-490,70,,,,,,,0x03,
7512,-96,-40,-1006,0,-490,70,,,,,,,0x03,
7522,-99,-38,-1006,-140,-560,70,,,,,,,0x03,
7532,-99,-37,-1006,-420,-700,-70,,,,,,,0x03,
7541,-96,-36,-1004,-560,-560,-140,,,,,,,0x03,
7551,-97,-36,-999,-840,-420,-140,,,,,,,0x03,
7561,-98,-41,-998,-1050,-280,-140,,,,,,,0x03,
7570,-95,-42,-999,-980,-70,-70,,,,,,,0x03,
7580,-97,-45,-990,-560,210,0,,,,,,,0x03,
7590,-98,-40,-1002,70,490,280,,,,,,,0x03,
7599,-96,-37,-997,630,700,560,,,,,,,0x03,
7609,-99,-32,-996,630,910,700,,,,,,,0x03,
7619,-99,-33,-1001,630,1120,770,,,,,,,0x03,
7628,-94,-36,-1009,910,1120,700,,,,,,,0x03,
7638,-93,-35,-1018,1400,980,700,,,,,,,0x03,
7648,-94,-33,-1015,1400,840,700,,,,,,,0x03,
7657,-95,-34,-1013,840,490,700,,,,,,,0x03,
7667,-93,-39,-1010,490,70,490,,,,,,,0x03,
7677,-93,-42,-1014,210,-140,350,,,,,,,0x03,
7686,-93,-45,-1013,350,-350,350,,,,,,,0x03,
7696,-92,-44,-1011,210,-630,210,,,,,,,0x03,
7706,-91,-40,-1013,210,-910,70,,,,,,,0x03,
7715,-93,-34,-1008,70,-1120,0,,,,,,,0x03,
7725,-94,-31,-1010,-210,-1330,-140,,,,,,,0x03,
7735,-97,-31,-1008,-700,-1470,-210,,,,,,,0x03,
7744,-96,-31,-1008,-1330,-1540,-280,,,,,,,0x03,
7754,-97,-36,-1007,-1610,-1540,-350,,,,,,,0x03,
7764,-96,-39,-1006,-1400,-1610,-350,,,,,,,0x03,
7773,-94,-43,-1004,-980,-1610,-280,,,,,,,0x03,
7783,-96,-42,-999,-420,-1540,-280,,,,,,,0x03,
7793,-94,-39,-1001,-70,-1400,-210,,,,,,,0x03,
7802,-93,-37,-997,-210,-1330,-140,,,,,,,0x03,
7812,-93,-35,-998,-770,-1190,-70,,,,,,,0x03,
7821,-94,-35,-1000,-1330,-1050,0,,,,,,,0x03,
7831,-95,-38,-1002,-1610,-980,0,,,,,,,0x03,
7841,-94,-38,-998,-1750,-770,-70,,,,,,,0x03,
7850,-93,-40,-998,-1680,-490,0,,,,,,,0x03,
7860,-95,-43,-998,-1610,-420,140,,,,,,,0x03,
7870,-92,-42,-1004,-1190,-280,140,,,,,,,0x03,
7879,-89,-41,-1015,-630,-280,210,,,,,,,0x03,
7889,-90,-33,-1011,-490,-350,280,,,,,,,0x03,
7899,-93,-30,-1010,-700,-420,210,,,,,,,0x03,
7908,-94,-31,-1006,-1120,-560,70,,,,,,,0x03,
7918,-96,-31,-1004,-1540,-630,-70,,,,,,,0x03,
7928,-96,-36,-1002,-1540,-560,-70,,,,,,,0x03,
7937,-97,-40,-1002,-1190,-420,-70,,,,,,,0x03,
7947,-96,-38,-1010,-210,-350,0,,,,,,,0x03,
7957,-95,-35,-1006,630,-350,70,,,,,,,0x03,
7966,-98,-26,-1001,700,-420,70,,,,,,,0x03,
7976,-96,-24,-1001,490,-350,0,,,,,,,0x03,
7986,-95,-24,-1000,210,-210,0,,,,,,,0x03,
7995,-95,-26,-993,70,70,210,,,,,,,0x03,
8005,-95,-32,-990,0,420,350,,,,,,,0x03,
8015,-96,-38,-982,490,910,560,,,,,,,0x03,
8024,-98,-39,-988,1120,1610,770,,,,,,,0x03,
8034,-95,-43,-994,2730,2100,1050,,,,,,,0x03,
8044,-96,-30,-1002,3430,2450,1400,,,,,,,0x03,
8053,-96,-26,-1005,3430,2590,1400,,,,,,,0x03,
8063,-95,-25,-1003,2450,2520,1190,,,,,,,0x03,
8073,-92,-28,-1004,1540,2520,1050,,,,,,,0x03,
8082,-89,-37,-1008,1190,2310,980,,,,,,,0x03,
8092,-89,-40,-1007,560,2380,1050,,,,,,,0x03,
8102,-88,-43,-1012,420,2380,1120,,,,,,,0x03,
8111,-80,-48,-1021,770,1960,1050,,,,,,,0x03,
8121,-79,-43,-1023,1190,1470,910,,,,,,,0x03,
8130,-83,-36,-1028,1260,980,770,,,,,,,0x03,
8140,-81,-35,-1029,1120,210,490,,,,,,,0x03,
8150,-79,-32,-1021,210,-490,210,,,,,,,0x03,
8159,-81,-37,-1023,-210,-980,-70,,,,,,,0x03,
8169,-81,-41,-1018,-700,-1470,-210,,,,,,,0x03,
8179,-85,-46,-1012,-770,-1750,-280,,,,,,,0x03,
8188,-88,-48,-1009,-490,-1890,-350,,,,,,,0x03,
8198,-89,-45,-1005,70,-1960,-420,,,,,,,0x03,
8208,-89,-43,-1004,490,-1820,-420,,,,,,,0x03,
8217,-89,-38,-1005,700,-1750,-490,,,,,,,0x03,
8227,-90,-35,-1005,490,-1750,-490,,,,,,,0x03,
8237,-92,-34,-1006,0,-1820,-560,,,,,,,0x03,
8246,-91,-34,-999,-840,-1890,-630,,,,,,,0x03,
8256,-91,-36,-1005,-1260,-1750,-700,,,,,,,0x03,
8266,-89,-42,-1006,-1330,-1610,-630,,,,,,,0x03,
8275,-95,-40,-1001,-1610,-1540,-560,,,,,,,0x03,
8285,-94,-41,-1006,-1330,-1470,-560,,,,,,,0x03,
8295,-90,-40,-997,-1260,-1330,-630,,,,,,,0x03,
8304,-93,-35,-995,-1260,-980,-490,,,,,,,0x03,
8314,-92,-36,-997,-980,-630,-420,,,,,,,0x03,
8324,-93,-32,-996,-1260,-490,-420,,,,,,,0x03,
8333,-92,-29,-1001,-1400,-350,-280,,,,,,,0x03,
8343,-91,-30,-1001,-1680,-280,-210,,,,,,,0x03,
8353,-92,-31,-1001,-1820,-140,-210,,,,,,,0x03,
8362,-91,-31,-1002,-1680,0,-210,,,,,,,0x03,
8372,-93,-28,-1000,-1610,140,-280,,,,,,,0x03,
8382,-95,-26,-1006,-1610,210,-210,,,,,,,0x03,
8391,-92,-29,-1007,-1400,140,-210,,,,,,,0x03,
8401,-93,-29,-1008,-1470,70,-210,,,,,,,0x03,
8411,-91,-31,-1011,-1050,0,-210,,,,,,,0x03,
8420,-88,-33,-1006,-910,-140,-140,,,,,,,0x03,
8430,-91,-35,-1007,-560,-210,140,,,,,,,0x03,
8439,-86,-39,-1012,490,-350,350,,,,,,,0x03,
8449,-87,-37,-1010,1470,-420,560,,,,,,,0x03,
8459,-88,-32,-1010,2100,-560,700,,,,,,,0x03,
8468,-87,-33,-1009,2450,-630,700,,,,,,,0x03,
8478,-88,-32,-1005,2450,-700,630,,,,,,,0x03,
8488,-90,-32,-1002,2520,-630,630,,,,,,,0x03,
8497,-90,-32,-1000,2240,-630,560,,,,,,,0x03,
8507,-86,-33,-999,1890,-490,560,,,,,,,0x03,
8517,-86,-35,-1002,1330,-280,630,,,,,,,0x03,
8526,-85,-35,-1008,1190,-280,560,,,,,,,0x03,
8536,-84,-37,-1005,980,-280,560,,,,,,,0x03,
8546,-86,-35,-1005,700,-280,490,,,,,,,0x03,
8555,-85,-36,-1007,490,-350,420,,,,,,,0x03,
8565,-87,-36,-1003,140,-420,280,,,,,,,0x03,
8575,-87,-36,-1011,0,-420,280,,,,,,,0x03,
8584,-85,-37,-1009,-350,-420,210,,,,,,,0x03,
8594,-89,-36,-1008,-490,-490,210,,,,,,,0x03,
8604,-88,-37,-1010,-280,-700,140,,,,,,,0x03,
8613,-85,-33,-1006,-140,-840,0,,,,,,,0x03,
8623,-87,-32,-1004,-350,-770,-70,,,,,,,0x03,
8633,-90,-31,-1005,-700,-840,-140,,,,,,,0x03,
8642,-87,-32,-1005,-980,-840,-210,,,,,,,0x03,
8652,-89,-36,-1005,-1120,-840,-210,,,,,,,0x03,
8662,-89,-39,-1006,-910,-910,-210,,,,,,,0x03,
8671,-84,-40,-1007,-350,-910,-210,,,,,,,0x03,
8681,-86,-34,-1007,140,-980,-140,,,,,,,0x03,
8691,-89,-32,-1009,280,-980,-70,,,,,,,0x03,
8700,-90,-31,-1010,210,-1120,-140,,,,,,,0x03,
8710,-89,-33,-1005,-210,-1120,-140,,,,,,,0x03,
8720,-89,-34,-1007,-350,-1050,-70,,,,,,,0x03,
8729,-85,-39,-1007,70,-1120,-140,,,,,,,0x03,
8739,-87,-35,-1003,280,-1120,-70,,,,,,,0x03,
8748,-88,-37,-1002,560,-980,0,,,,,,,0x03,
8758,-89,-37,-1000,630,-840,70,,,,,,,0x03,
8768,-88,-36,-1000,910,-630,140,,,,,,,0x03,
8777,-88,-37,-999,1050,-490,210,,,,,,,0x03,
8787,-88,-34,-1001,1120,-350,280,,,,,,,0x03,
8797,-87,-34,-1002,1260,-140,280,,,,,,,0x03,
8806,-88,-31,-1001,980,-140,280,,,,,,,0x03,
8816,-90,-30,-1006,630,0,210,,,,,,,0x03,
8826,-86,-31,-1009,350,-70,140,,,,,,,0x03,
8835,-86,-32,-1008,-70,-70,140,,,,,,,0x03,
8845,-88,-34,-1007,-210,-140,140,,,,,,,0x03,
8855,-88,-38,-1007,-210,-280,70,,,,,,,0x03,
8864,-85,-38,-1013,70,-350,0,,,,,,,0x03,
8874,-85,-37,-1015,560,-630,0,,,,,,,0x03,
8884,-86,-35,-1014,910,-840,0,,,,,,,0x03,
8893,-87,-35,-1013,1190,-980,0,,,,,,,0x03,
8903,-87,-33,-1010,1470,-1120,0,,,,,,,0x03,
8913,-86,-33,-1006,1610,-1260,0,,,,,,,0x03,
8922,-86,-32,-1006,1330,-1400,-70,,,,,,,0x03,
8932,-86,-35,-1010,1330,-1470,-140,,,,,,,0x03,
8942,-89,-36,-1011,1400,-1610,-140,,,,,,,0x03,
8951,-90,-36,-1014,1260,-1750,-210,,,,,,,0x03,
8961,-90,-36,-1007,1050,-1960,-350,,,,,,,0x03,
8971,-89,-37,-1002,700,-1960,-350,,,,,,,0x03,
8980,-86,-38,-1004,630,-1890,-420,,,,,,,0x03,
8990,-86,-42,-1002,420,-1750,-420,,,,,,,0x03,
9000,-89,-41,-997,350,-1540,-280,,,,,,,0x03,
9009,-91,-42,-997,350,-1330,-280,,,,,,,0x03,
9019,-87,-42,-1002,350,-1260,-280,,,,,,,0x03,
9029,-90,-39,-997,280,-980,-280,,,,,,,0x03,
9038,-92,-39,-997,70,-770,-210,,,,,,,0x03,
9048,-89,-39,-1001,-140,-560,-140,,,,,,,0x03,
9057,-89,-39,-1001,-350,-350,-70,,,,,,,0x03,
9067,-90,-37,-1003,-420,-210,0,,,,,,,0x03,
9077,-88,-38,-1004,-420,-210,-70,,,,,,,0x03,
9086,-88,-40,-1005,-490,-140,0,,,,,,,0x03,
9096,-89,-38,-1009,-490,-210,0,,,,,,,0x03,
9106,-90,-37,-1010,-420,-350,-70,,,,,,,0x03,
9115,-90,-37,-1010,-420,-560,-70,,,,,,,0x03,
9125,-91,-35,-1015,-560,-770,-140,,,,,,,0x03,
9135,-91,-35,-1015,-560,-980,-140,,,,,,,0x03,
9144,-91,-35,-1012,-490,-1190,-210,,,,,,,0x03,
9154,-91,-37,-1008,-420,-1470,-210,,,,,,,0x03,
9164,-89,-37,-1006,-210,-1540,-140,,,,,,,0x03,
9173,-90,-38,-1010,140,-1470,-70,,,,,,,0x03,
9183,-88,-36,-1006,700,-1540,0,,,,,,,0x03,
9193,-89,-35,-1001,700,-1540,0,,,,,,,0x03,
9202,-87,-36,-1001,630,-1400,0,,,,,,,0x03,
9212,-84,-35,-1000,560,-1260,70,,,,,,,0x03,
9222,-87,-37,-997,630,-1050,210,,,,,,,0x03,
9231,-90,-38,-998,630,-770,350,,,,,,,0x03,
9241,-90,-41,-1000,840,-630,490,,,,,,,0x03,
9251,-92,-40,-1002,980,-490,420,,,,,,,0x03,
9260,-91,-37,-1002,1050,-350,490,,,,,,,0x03,
9270,-91,-38,-1006,910,-280,560,,,,,,,0x03,
9280,-92,-38,-1008,700,-350,490,,,,,,,0x03,
9289,-92,-37,-1007,420,-420,490,,,,,,,0x03,
9299,-89,-40,-1006,210,-490,490,,,,,,,0x03,
9309,-89,-41,-1010,0,-560,350,,,,,,,0x03,
9318,-89,-42,-1010,140,-700,280,,,,,,,0x03,
9328,-90,-38,-1010,140,-840,140,,,,,,,0x03,
9338,-90,-37,-1007,210,-980,140,,,,,,,0x03,
9347,-93,-34,-1002,-140,-980,140,,,,,,,0x03,
9357,-94,-36,-1002,-280,-910,140,,,,,,,0x03,
9366,-95,-37,-999,-350,-840,210,,,,,,,0x03,
9376,-99,-37,-998,-280,-840,210,,,,,,,0x03,
9386,-97,-38,-1005,-140,-630,210,,,,,,,0x03,
9395,-93,-35,-1006,70,-490,210,,,,,,,0x03,
9405,-93,-34,-1006,140,-490,280,,,,,,,0x03,
9415,-91,-32,-1007,280,-560,210,,,,,,,0x03,
9424,-88,-32,-1006,0,-560,210,,,,,,,0x03,
9434,-87,-35,-1006,-350,-630,280,,,,,,,0x03,
9444,-85,-40,-1008,-350,-700,350,,,,,,,0x03,
9453,-84,-43,-1006,0,-560,350,,,,,,,0x03,
9463,-84,-42,-1006,770,-560,420,,,,,,,0x03,
9473,-83,-40,-1005,1330,-630,490,,,,,,,0x03,
9482,-84,-38,-1002,1540,-560,490,,,,,,,0x03,
9492,-87,-35,-1001,1470,-490,490,,,,,,,0x03,
9502,-86,-34,-1002,1190,-490,490,,,,,,,0x03,
9511,-85,-35,-1007,700,-350,490,,,,,,,0x03,
9521,-84,-40,-1009,210,-420,490,,,,,,,0x03,
9531,-85,-41,-1006,-210,-420,420,,,,,,,0x03,
9540,-87,-45,-1004,-560,-560,280,,,,,,,0x03,
9550,-87,-44,-1010,-420,-560,140,,,,,,,0x03,
9560,-86,-42,-1007,-280,-700,70,,,,,,,0x03,
9569,-89,-37,-1007,-490,-630,70,,,,,,,0x03,
9579,-88,-38,-1008,-490,-700,0,,,,,,,0x03,
9589,-88,-36,-1009,-490,-840,-140,,,,,,,0x03,
9598,-92,-35,-1005,-350,-910,-210,,,,,,,0x03,
9608,-93,-32,-1008,-420,-980,-210,,,,,,,0x03,
9618,-91,-33,-1008,-350,-1120,-140,,,,,,,0x03,
9627,-91,-32,-1006,-350,-1120,-70,,,,,,,0x03,
9637,-91,-34,-1003,-420,-1120,-70,,,,,,,0x03,
9647,-92,-34,-1002,-420,-1050,0,,,,,,,0x03,
9656,-90,-39,-1000,-70,-910,0,,,,,,,0x03,
9666,-89,-37,-1007,280,-840,0,,,,,,,0x03,
9675,-88,-37,-1005,350,-770,70,,,,,,,0x03,
9685,-90,-36,-1008,140,-770,210,,,,,,,0x03,
9695,-86,-40,-1007,490,-840,210,,,,,,,0x03,
9704,-88,-39,-1003,700,-770,70,,,,,,,0x03,
9714,-91,-39,-1001,560,-770,70,,,,,,,0x03,
9724,-90,-40,-1002,350,-700,140,,,,,,,0x03,
9733,-90,-43,-1000,210,-490,140,,,,,,,0x03,
9743,-90,-43,-1003,70,-350,140,,,,,,,0x03,
9753,-86,-44,-1005,350,-280,210,,,,,,,0x03,
9762,-86,-39,-1003,560,-210,210,,,,,,,0x03,
9772,-89,-38,-1003,630,-140,210,,,,,,,0x03,
9782,-88,-35,-1006,350,-210,280,,,,,,,0x03,
9791,-88,-34,-1002,-140,-140,280,,,,,,,0x03,
9801,-92,-35,-1005,-350,-70,350,,,,,,,0x03,
9811,-87,-40,-1011,-210,-280,350,,,,,,,0x03,
9820,-88,-39,-1009,0,-420,280,,,,,,,0x03,
9830,-93,-38,-1011,280,-490,280,,,,,,,0x03,
9840,-92,-40,-1006,630,-630,280,,,,,,,0x03,
9849,-90,-35,-1008,910,-630,280,,,,,,,0x03,
9859,-90,-35,-1006,1050,-560,420,,,,,,,0x03,
9869,-93,-35,-1004,700,-630,490,,,,,,,0x03,
9878,-90,-37,-1007,700,-630,420,,,,,,,0x03,
9888,-89,-39,-1002,560,-630,280,,,,,,,0x03,
9898,-92,-37,-1003,560,-630,280,,,,,,,0x03,
9907,-89,-38,-1004,560,-700,210,,,,,,,0x03,
9917,-88,-36,-1005,420,-700,140,,,,,,,0x03,
9927,-92,-35,-1004,-140,-490,140,,,,,,,0x03,
9936,-90,-38,-1008,-350,-490,140,,,,,,,0x03,
9946,-87,-39,-1006,-490,-490,70,,,,,,,0x03,
9956,-90,-39,-1005,-420,-420,140,,,,,,,0x03,
9965,-87,-39,-1010,-140,-560,140,,,,,,,0x03,
9975,-83,-38,-1008,70,-770,70,,,,,,,0x03,
9984,-85,-36,-1005,0,-700,140,,,,,,,0x03,
9994,-88,-39,-1007,140,-700,70,,,,,,,0x03,
10004,-83,-38,-1007,210,-840,-70,,,,,,,0x03,
10013,-87,-35,-1004,140,-770,-140,,,,,,,0x03,
10023,-88,-37,-1001,-210,-700,0,,,,,,,0x03,
10033,-87,-38,-1002,-280,-630,0,,,,,,,0x03,
10042,-87,-39,-1004,0,-490,0,,,,,,,0x03,
10052,-88,-38,-1005,350,-350,0,,,,,,,0x03,
10062,-88,-36,-1012,420,-350,0,,,,,,,0x03,
10071,-86,-35,-1013,490,-420,0,,,,,,,0x03,
10081,-88,-34,-1009,420,-630,-70,,,,,,,0x03,
10091,-89,-34,-1007,140,-910,-140,,,,,,,0x03,
10100,-87,-34,-1003,-70,-910,-140,,,,,,,0x03,
10110,-90,-38,-1006,0,-910,-70,,,,,,,0x03,
10120,-86,-40,-1007,490,-980,0,,,,,,,0x03,
10129,-87,-39,-1005,910,-910,70,,,,,,,0x03,
10139,-91,-40,-1001,1330,-770,70,,,,,,,0x03,
10149,-90,-36,-1004,1750,-630,0,,,,,,,0x03,
10158,-87,-33,-1003,1820,-490,-70,,,,,,,0x03,
10168,-90,-31,-998,1190,-210,70,,,,,,,0x03,
10178,-92,-36,-999,560,0,70,,,,,,,0x03,
10187,-87,-40,-998,560,140,70,,,,,,,0x03,
10197,-89,-42,-989,840,560,140,,,,,,,0x03,
10207,-90,-43,-988,1330,980,280,,,,,,,0x03,
10216,-88,-43,-992,1680,1330,490,,,,,,,0x03,
10226,-88,-41,-998,1960,1610,840,,,,,,,0x03,
10236,-87,-39,-1011,2450,1610,1050,,,,,,,0x03,
10245,-86,-34,-1014,2730,1540,1050,,,,,,,0x03,
10255,-87,-31,-1012,2730,1260,1050,,,,,,,0x03,
10264,-86,-32,-1014,2240,980,1050,,,,,,,0x03,
10274,-81,-37,-1021,1960,700,980,,,,,,,0x03,
10284,-82,-45,-1019,1820,280,910,,,,,,,0x03,
10293,-83,-51,-1019,1890,-210,910,,,,,,,0x03,
10303,-83,-55,-1019,2170,-630,770,,,,,,,0x03,
10313,-83,-54,-1014,2170,-980,630,,,,,,,0x03,
10322,-84,-53,-1013,2310,-1190,490,,,,,,,0x03,
10332,-85,-50,-1010,2100,-1330,350,,,,,,,0x03,
10342,-87,-49,-1004,1470,-1400,280,,,,,,,0x03,
10351,-86,-48,-1004,630,-1400,70,,,,,,,0x03,
10361,-83,-46,-1008,-210,-1330,-70,,,,,,,0x03,
10371,-86,-45,-1006,-910,-1400,-140,,,,,,,0x03,
10380,-88,-46,-1008,-1680,-1400,-280,,,,,,,0x03,
10390,-88,-51,-1001,-2310,-1470,-350,,,,,,,0x03,
10400,-90,-51,-1001,-2590,-1400,-420,,,,,,,0x03,
10409,-90,-53,-995,-2590,-1330,-420,,,,,,,0x03,
10419,-90,-49,-996,-2590,-1050,-350,,,,,,,0x03,
10429,-86,-49,-999,-2030,-700,-280,,,,,,,0x03,
10438,-88,-44,-1000,-2030,-420,-210,,,,,,,0x03,
10448,-86,-40,-1002,-2100,-280,-280,,,,,,,0x03,
10458,-86,-39,-1002,-2730,-210,-350,,,,,,,0x03,
10467,-86,-35,-1003,-3570,0,-420,,,,,,,0x03,
10477,-86,-34,-1004,-4690,70,-490,,,,,,,0x03,
10487,-83,-37,-1002,-5880,70,-560,,,,,,,0x03,
10496,-81,-38,-1006,-6720,70,-700,,,,,,,0x03,
10506,-80,-46,-1006,-6720,70,-700,,,,,,,0x03,
10516,-82,-41,-1010,-6440,140,-700,,,,,,,0x03,
10525,-81,-39,-1013,-5390,0,-770,,,,,,,0x03,
10535,-83,-33,-1011,-5040,0,-840,,,,,,,0x03,
10545,-84,-27,-1013,-4620,-210,-910,,,,,,,0x03,
10554,-83,-25,-1011,-4760,-420,-910,,,,,,,0x03,
10564,-85,-23,-1011,-4760,-490,-840,,,,,,,0x03,
10573,-83,-26,-1007,-4480,-560,-700,,,,,,,0x03,
10583,-84,-28,-1009,-3570,-560,-490,,,,,,,0x03,
10593,-81,-30,-1010,-1820,-560,-140,,,,,,,0x03,
10602,-85,-25,-1001,-280,-420,140,,,,,,,0x03,
10612,-88,-23,-994,1120,-210,350,,,,,,,0x03,
10622,-89,-22,-990,2170,140,560,,,,,,,0x03,
10631,-87,-21,-987,2940,420,980,,,,,,,0x03,
10641,-89,-20,-992,3710,980,1400,,,,,,,0x03,
10651,-89,-22,-990,4200,1470,1680,,,,,,,0x03,
10660,-87,-20,-998,4620,1820,1750,,,,,,,0x03,
10670,-82,-20,-1008,5040,1960,1820,,,,,,,0x03,
10680,-82,-19,-1011,4900,1890,1750,,,,,,,0x03,
10689,-84,-23,-1017,3990,1680,1540,,,,,,,0x03,
10699,-85,-29,-1017,2800,1260,1260,,,,,,,0x03,
10709,-84,-37,-1019,1680,770,910,,,,,,,0x03,
10718,-80,-39,-1023,980,280,560,,,,,,,0x03,
10728,-78,-33,-1018,210,-210,420,,,,,,,0x03,
10738,-78,-35,-1018,-1260,-560,140,,,,,,,0x03,
10747,-77,-37,-1010,-2520,-980,-210,,,,,,,0x03,
10757,-78,-39,-1012,-3220,-1190,-560,,,,,,,0x03,
10767,-78,-43,-1008,-3220,-1120,-910,,,,,,,0x03,
10776,-79,-44,-1008,-2730,-1050,-980,,,,,,,0x03,
10786,-79,-43,-1007,-2100,-980,-1050,,,,,,,0x03,
10796,-81,-38,-1008,-1330,-910,-980,,,,,,,0x03,
10805,-83,-34,-1010,-700,-980,-910,,,,,,,0x03,
10815,-82,-29,-1008,-630,-1190,-910,,,,,,,0x03,
10825,-81,-28,-1007,-770,-1260,-910,,,,,,,0x03,
10834,-79,-25,-1006,-840,-1260,-840,,,,,,,0x03,
10844,-79,-27,-1005,-910,-1260,-770,,,,,,,0x03,
10854,-77,-28,-1006,-1050,-1260,-700,,,,,,,0x03,
10863,-79,-30,-1005,-840,-1190,-560,,,,,,,0x03,
10873,-79,-33,-1001,-280,-1050,-420,,,,,,,0x03,
10882,-80,-33,-1000,280,-840,-350,,,,,,,0x03,
10892,-78,-31,-1006,1260,-700,-210,,,,,,,0x03,
10902,-76,-31,-1007,1680,-560,-140,,,,,,,0x03,
10911,-77,-29,-1008,1680,-630,-70,,,,,,,0x03,
10921,-75,-31,-1008,1540,-630,-140,,,,,,,0x03,
10931,-75,-30,-1005,1050,-700,-350,,,,,,,0x03,
10940,-75,-32,-1007,490,-630,-420,,,,,,,0x03,
10950,-76,-35,-1007,-70,-700,-490,,,,,,,0x03,
10960,-76,-36,-1009,-630,-770,-630,,,,,,,0x03,
10969,-75,-34,-1016,-700,-840,-770,,,,,,,0x03,
10979,-75,-33,-1012,-840,-1120,-980,,,,,,,0x03,
10989,-81,-30,-1011,-1120,-1330,-1120,,,,,,,0x03,
10998,-82,-34,-1010,-1260,-1540,-1330,,,,,,,0x03,
11008,-82,-30,-1007,-1610,-1540,-1400,,,,,,,0x03,
11018,-84,-30,-1007,-1540,-1540,-1470,,,,,,,0x03,
11027,-84,-31,-1005,-1820,-1610,-1540,,,,,,,0x03,
11037,-84,-28,-1005,-2030,-1540,-1470,,,,,,,0x03,
11047,-85,-29,-998,-1960,-1470,-1540,,,,,,,0x03,
11056,-86,-29,-996,-1960,-1330,-1470,,,,,,,0x03,
11066,-87,-27,-998,-1960,-1050,-1190,,,,,,,0x03,
11076,-88,-29,-1000,-1750,-770,-910,,,,,,,0x03,
11085,-89,-30,-999,-1610,-630,-770,,,,,,,0x03,
11095,-88,-28,-1002,-1260,-490,-840,,,,,,,0x03,
11105,-86,-25,-1005,-770,-350,-630,,,,,,,0x03,
11114,-86,-25,-1004,-490,-210,-420,,,,,,,0x03,
11124,-88,-25,-1008,-350,-140,-280,,,,,,,0x03,
11134,-88,-28,-1007,-210,-210,-70,,,,,,,0x03,
11143,-85,-28,-1011,140,-210,70,,,,,,,0x03,
11153,-85,-30,-1011,420,-280,140,,,,,,,0x03,
11163,-85,-26,-1010,700,-350,280,,,,,,,0x03,
11172,-83,-30,-1008,840,-490,350,,,,,,,0x03,
11182,-82,-32,-1010,630,-490,350,,,,,,,0x03,
11191,-82,-35,-1009,910,-700,280,,,,,,,0x03,
11201,-81,-34,-1011,840,-910,210,,,,,,,0x03,
11211,-80,-33,-1014,980,-1050,140,,,,,,,0x03,
11220,-79,-33,-1008,630,-1050,140,,,,,,,0x03,
11230,-81,-34,-1001,280,-980,140,,,,,,,0x03,
11240,-82,-36,-998,-140,-840,70,,,,,,,0x03,
11249,-80,-37,-1000,-280,-840,140,,,,,,,0x03,
11259,-80,-34,-1004,-350,-700,140,,,,,,,0x03,
11269,-83,-30,-1006,-630,-630,140,,,,,,,0x03,
11278,-84,-27,-1008,-1330,-560,140,,,,,,,0x03,
11288,-83,-26,-1010,-1750,-770,70,,,,,,,0x03,
11298,-81,-27,-1009,-2030,-910,0,,,,,,,0x03,
11307,-79,-26,-1011,-1820,-980,140,,,,,,,0x03,
11317,-76,-25,-1011,-1610,-1120,210,,,,,,,0x03,
11327,-78,-24,-1013,-1470,-1260,280,,,,,,,0x03,
11336,-77,-28,-1009,-1750,-1400,280,,,,,,,0x03,
11346,-78,-29,-1009,-1400,-1400,210,,,,,,,0x03,
11356,-79,-28,-1008,-560,-1330,210,,,,,,,0x03,
11365,-80,-22,-1006,0,-1400,210,,,,,,,0x03,
11375,-80,-23,-1001,-490,-1260,350,,,,,,,0x03,
11385,-84,-24,-1001,-700,-1190,350,,,,,,,0x03,
11394,-84,-25,-1001,-630,-1120,280,,,,,,,0x03,
11404,-82,-24,-1003,-560,-980,280,,,,,,,0x03,
11414,-82,-26,-1000,-770,-840,350,,,,,,,0x03,
11423,-84,-26,-1002,-1050,-630,350,,,,,,,0x03,
11433,-84,-27,-1009,-980,-630,210,,,,,,,0x03,
11443,-82,-25,-1011,-1330,-700,140,,,,,,,0x03,
11452,-82,-23,-1013,-1960,-840,70,,,,,,,0x03,
11462,-81,-27,-1009,-2170,-980,0,,,,,,,0x03,
11472,-80,-28,-1008,-2240,-1120,-70,,,,,,,0x03,
11481,-79,-25,-1011,-1750,-1190,-70,,,,,,,0x03,
11491,-81,-23,-1012,-1330,-1260,-140,,,,,,,0x03,
11500,-82,-19,-1008,-1330,-1330,-70,,,,,,,0x03,
11510,-83,-20,-1004,-1400,-1400,-70,,,,,,,0x03,
11520,-83,-22,-1005,-1190,-1470,-210,,,,,,,0x03,
11529,-82,-19,-1005,-1050,-1470,-210,,,,,,,0x03,
11539,-85,-14,-1007,-910,-1400,-70,,,,,,,0x03,
11549,-85,-14,-1013,-560,-1470,-70,,,,,,,0x03,
11558,-83,-11,-1009,-1120,-1680,-70,,,,,,,0x03,
11568,-85,-15,-1005,-1890,-1610,-280,,,,,,,0x03,
11578,-85,-21,-1006,-2030,-1680,-350,,,,,,,0x03,
11587,-81,-27,-1001,-1540,-1680,-420,,,,,,,0x03,
11597,-84,-25,-1007,-910,-1400,-350,,,,,,,0x03,
11607,-83,-21,-1007,-210,-1330,-280,,,,,,,0x03,
11616,-86,-16,-1006,-70,-1400,-280,,,,,,,0x03,
11626,-87,-12,-1008,-560,-1540,-490,,,,,,,0x03,
11636,-86,-15,-1000,-1330,-1540,-700,,,,,,,0x03,
11645,-85,-15,-1001,-1890,-1330,-700,,,,,,,0x03,
11655,-83,-21,-1004,-1750,-1120,-700,,,,,,,0x03,
11665,-83,-21,-1008,-1540,-980,-630,,,,,,,0x03,
11674,-84,-20,-1006,-1120,-980,-490,,,,,,,0x03,
11684,-85,-18,-1009,-490,-980,-560,,,,,,,0x03,
11694,-82,-16,-1005,-140,-1050,-700,,,,,,,0x03,
11703,-86,-14,-999,-280,-1050,-630,,,,,,,0x03,
11713,-87,-16,-1004,-350,-980,-490,,,,,,,0x03,
11723,-86,-18,-1005,140,-980,-490,,,,,,,0x03,
11732,-88,-17,-1003,210,-910,-490,,,,,,,0x03,
11742,-88,-18,-1001,280,-770,-350,,,,,,,0x03,
11752,-85,-20,-1005,560,-770,-350,,,,,,,0x03,
11761,-84,-18,-1004,560,-560,-280,,,,,,,0x03,
11771,-89,-18,-1001,280,-350,-70,,,,,,,0x03,
11781,-88,-22,-1006,630,-280,0,,,,,,,0x03,
11790,-84,-24,-1009,1260,-280,-70,,,,,,,0x03,
11800,-87,-18,-1009,1470,-350,70,,,,,,,0x03,
11809,-89,-22,-1007,1470,-350,140,,,,,,,0x03,
11819,-88,-21,-1009,1680,-420,140,,,,,,,0x03,
11829,-86,-19,-1006,1890,-490,140,,,,,,,0x03,
11838,-86,-17,-1005,1680,-490,140,,,,,,,0x03,
11848,-86,-21,-1005,1540,-560,140,,,,,,,0x03,
11858,-86,-20,-1006,1400,-490,210,,,,,,,0x03,
11867,-85,-22,-1008,1610,-490,210,,,,,,,0x03,
11877,-85,-21,-1007,1470,-490,140,,,,,,,0x03,
11887,-86,-22,-1010,1260,-560,210,,,,,,,0x03,
11896,-87,-22,-1009,1120,-630,280,,,,,,,0x03,
11906,-88,-22,-1008,910,-700,210,,,,,,,0x03,
11916,-87,-21,-1008,700,-910,70,,,,,,,0x03,
11925,-86,-22,-1007,350,-980,0,,,,,,,0x03,
11935,-83,-24,-1011,140,-1050,-70,,,,,,,0x03,
11945,-83,-22,-1009,0,-1120,-70,,,,,,,0x03,
11954,-83,-22,-1010,70,-1120,-70,,,,,,,0x03,
11964,-82,-22,-1008,0,-1260,-70,,,,,,,0x03,
11974,-82,-22,-1007,-210,-1260,0,,,,,,,0x03,
11983,-83,-23,-1009,-420,-1330,0,,,,,,,0x03,
11993,-81,-23,-1010,-350,-1400,-70,,,,,,,0x03,
12003,-83,-24,-1017,-560,-1610,-280,,,,,,,0x03,
12012,-77,-26,-1018,-420,-1960,-280,,,,,,,0x03,
12022,-81,-24,-1013,-630,-2170,-280,,,,,,,0x03,
12032,-82,-24,-1011,-560,-2450,-280,,,,,,,0x03,
12041,-80,-22,-1010,-420,-2730,-490,,,,,,,0x03,
12051,-79,-17,-1007,-910,-2800,-560,,,,,,,0x03,
12061,-84,-18,-1004,-1260,-2660,-560,,,,,,,0x03,
12070,-84,-22,-1003,-1400,-2660,-700,,,,,,,0x03,
12080,-83,-21,-1004,-910,-2660,-770,,,,,,,0x03,
12090,-85,-21,-1000,-490,-2450,-630,,,,,,,0x03,
12099,-87,-20,-998,-70,-2170,-490,,,,,,,0x03,
12109,-89,-18,-997,420,-1820,-280,,,,,,,0x03,
12118,-88,-19,-995,1050,-1470,-140,,,,,,,0x03,
12128,-95,-17,-988,1050,-980,0,,,,,,,0x03,
12138,-99,-20,-992,1260,-630,70,,,,,,,0x03,
12147,-97,-21,-997,1750,-350,70,,,,,,,0x03,
12157,-95,-18,-1000,2100,0,70,,,,,,,0x03,
12167,-93,-14,-1001,1960,280,140,,,,,,,0x03,
12176,-95,-13,-1003,1610,350,70,,,,,,,0x03,
12186,-91,-13,-1001,980,490,70,,,,,,,0x03,
12196,-93,-18,-1002,210,490,140,,,,,,,0x03,
12205,-92,-25,-1003,70,560,280,,,,,,,0x03,
12215,-92,-32,-1007,630,630,350,,,,,,,0x03,
12225,-91,-31,-1007,1470,700,490,,,,,,,0x03,
12234,-90,-27,-1009,2100,770,630,,,,,,,0x03,
12244,-86,-25,-1014,2590,700,560,,,,,,,0x03,
12254,-87,-19,-1010,2240,490,490,,,,,,,0x03,
12263,-90,-17,-1008,1470,420,420,,,,,,,0x03,
12273,-92,-20,-1007,560,210,210,,,,,,,0x03,
12283,-89,-23,-1010,-280,70,70,,,,,,,0x03,
12292,-86,-28,-1009,-770,-70,70,,,,,,,0x03,
12302,-88,-30,-1011,-1120,-70,70,,,,,,,0x03,
12312,-83,-33,-1015,-770,-420,0,,,,,,,0x03,
12321,-80,-30,-1013,-630,-700,-70,,,,,,,0x03,
12331,-80,-26,-1011,-630,-840,-140,,,,,,,0x03,
12341,-79,-25,-1010,-910,-1050,-140,,,,,,,0x03,
12350,-78,-24,-1009,-1330,-1190,-280,,,,,,,0x03,
12360,-79,-28,-1007,-1540,-1190,-210,,,,,,,0x03,
12370,-78,-27,-1007,-1610,-1260,-210,,,,,,,0x03,
12379,-78,-26,-1009,-1120,-1190,-280,,,,,,,0x03,
12389,-78,-23,-1009,-910,-1190,-280,,,,,,,0x03,
12399,-79,-19,-1008,-910,-1190,-280,,,,,,,0x03,
12408,-82,-19,-1003,-1050,-1190,-280,,,,,,,0x03,
12418,-83,-19,-1005,-1050,-1330,-350,,,,,,,0x03,
12427,-82,-20,-1005,-980,-1400,-280,,,,,,,0x03,
12437,-82,-15,-1005,-1120,-1330,-210,,,,,,,0x03,
12447,-86,-20,-1005,-1050,-1260,-140,,,,,,,0x03,
12456,-86,-19,-1003,-980,-1190,-140,,,,,,,0x03,
12466,-88,-19,-1001,-420,-910,-140,,,,,,,0x03,
12476,-90,-19,-996,-140,-770,-140,,,,,,,0x03,
12485,-90,-17,-998,140,-490,-70,,,,,,,0x03,
12495,-87,-18,-1000,350,-210,0,,,,,,,0x03,
12505,-87,-16,-1004,350,0,70,,,,,,,0x03,
12514,-85,-15,-1010,350,-70,70,,,,,,,0x03,
12524,-88,-16,-1007,210,-280,0,,,,,,,0x03,
12534,-89,-14,-1012,140,-350,0,,,,,,,0x03,
12543,-86,-19,-1015,350,-560,0,,,,,,,0x03,
12553,-88,-19,-1013,420,-700,0,,,,,,,0x03,
12563,-91,-21,-1011,630,-840,0,,,,,,,0x03,
12572,-88,-22,-1007,980,-980,-70,,,,,,,0x03,
12582,-87,-23,-1005,1470,-980,-140,,,,,,,0x03,
12592,-88,-23,-1006,1820,-910,-70,,,,,,,0x03,
12601,-87,-20,-1008,1960,-980,-70,,,,,,,0x03,
12611,-89,-18,-1006,1820,-980,-140,,,,,,,0x03,
12621,-90,-17,-1005,1400,-1050,-140,,,,,,,0x03,
12630,-87,-20,-1004,980,-1050,-140,,,,,,,0x03,
12640,-88,-22,-1006,840,-1050,-140,,,,,,,0x03,
12650,-88,-26,-1001,630,-1120,-70,,,,,,,0x03,
12659,-86,-27,-1005,700,-980,70,,,,,,,0x03,
12669,-84,-29,-1011,1120,-840,70,,,,,,,0x03,
12679,-84,-28,-1008,1400,-910,140,,,,,,,0x03,
12688,-86,-24,-1004,1260,-910,70,,,,,,,0x03,
12698,-85,-25,-1002,770,-910,0,,,,,,,0x03,
12708,-83,-25,-998,0,-910,70,,,,,,,0x03,
12717,-83,-28,-1003,-70,-700,70,,,,,,,0x03,
12727,-82,-29,-1004,-140,-490,70,,,,,,,0x03,
12736,-84,-28,-1009,-210,-350,140,,,,,,,0x03,
12746,-85,-26,-1009,-280,-420,140,,,,,,,0x03,
12756,-86,-24,-1008,-350,-490,70,,,,,,,0x03,
12765,-86,-22,-1010,-350,-630,70,,,,,,,0x03,
12775,-85,-22,-1007,-560,-840,140,,,,,,,0x03,
12785,-83,-21,-1020,-560,-1050,70,,,,,,,0x03,
12794,-82,-22,-1020,-350,-1400,-70,,,,,,,0x03,
12804,-87,-16,-1018,-770,-1750,-210,,,,,,,0x03,
12814,-89,-22,-1011,-980,-2030,-350,,,,,,,0x03,
12823,-93,-22,-1008,-1120,-2310,-490,,,,,,,0x03,
12833,-93,-26,-1004,-700,-2310,-490,,,,,,,0x03,
12843,-93,-21,-1001,-630,-2100,-350,,,,,,,0x03,
12852,-91,-24,-1001,-420,-1750,-210,,,,,,,0x03,
12862,-94,-24,-1000,70,-1750,-140,,,,,,,0x03,
12872,-94,-21,-1001,910,-1540,-140,,,,,,,0x03,
12881,-91,-18,-999,1750,-1400,70,,,,,,,0x03,
12891,-93,-13,-994,1680,-1120,280,,,,,,,0x03,
12901,-92,-14,-1000,1750,-840,420,,,,,,,0x03,
12910,-88,-17,-998,1820,-700,420,,,,,,,0x03,
12920,-90,-16,-997,1610,-420,560,,,,,,,0x03,
12930,-90,-22,-999,1610,-280,560,,,,,,,0x03,
12939,-87,-27,-1004,1820,0,490,,,,,,,0x03,
12949,-88,-25,-1004,2030,140,560,,,,,,,0x03,
12959,-91,-23,-1009,2030,210,560,,,,,,,0x03,
12968,-86,-24,-1008,1890,0,420,,,,,,,0x03,
12978,-86,-25,-1007,1330,0,420,,,,,,,0x03,
12988,-85,-25,-1010,770,-70,420,,,,,,,0x03,
12997,-84,-30,-1013,630,-210,350,,,,,,,0x03,
13007,-84,-30,-1014,700,-350,210,,,,,,,0x03,
13017,-85,-27,-1016,560,-630,70,,,,,,,0x03,
13026,-84,-26,-1014,280,-840,-140,,,,,,,0x03,
13036,-87,-25,-1009,-420,-1120,-280,,,,,,,0x03,
13045,-88,-28,-1008,-1050,-1120,-490,,,,,,,0x03,
13055,-89,-32,-1004,-1330,-1260,-490,,,,,,,0x03,
13065,-87,-29,-1004,-1260,-1190,-560,,,,,,,0x03,
13074,-85,-29,-1007,-840,-1190,-560,,,,,,,0x03,
13084,-87,-25,-1009,-840,-1260,-560,,,,,,,0x03,
13094,-91,-22,-1013,-1120,-1470,-700,,,,,,,0x03,
13103,-91,-18,-1009,-1610,-1750,-840,,,,,,,0x03,
13113,-92,-16,-1004,-2590,-1750,-980,,,,,,,0x03,
13123,-92,-22,-1006,-3430,-1750,-910,,,,,,,0x03,
13132,-91,-27,-1004,-3500,-1750,-840,,,,,,,0x03,
13142,-93,-29,-1003,-3080,-1610,-770,,,,,,,0x03,
13152,-93,-28,-1007,-2450,-1610,-630,,,,,,,0x03,
13161,-87,-25,-1007,-1680,-1680,-560,,,,,,,0x03,
13171,-86,-20,-1008,-1260,-1610,-700,,,,,,,0x03,
13181,-86,-11,-1005,-1470,-1680,-700,,,,,,,0x03,
13190,-89,-12,-1002,-2100,-1680,-700,,,,,,,0x03,
13200,-89,-12,-1007,-2660,-1750,-700,,,,,,,0x03,
13210,-88,-17,-1002,-3080,-1750,-770,,,,,,,0x03,
13219,-89,-21,-1003,-3220,-1400,-700,,,,,,,0x03,
13229,-89,-25,-999,-2660,-1330,-490,,,,,,,0x03,
13239,-86,-24,-1000,-1680,-1050,-420,,,,,,,0x03,
13248,-87,-21,-1001,-840,-840,-280,,,,,,,0x03,
13258,-85,-15,-1001,-560,-700,-70,,,,,,,0x03,
13268,-84,-13,-1004,-350,-560,-70,,,,,,,0x03,
13277,-86,-11,-1005,-350,-490,-70,,,,,,,0x03,
13287,-86,-12,-1005,-280,-490,70,,,,,,,0x03,
13297,-87,-15,-1003,-350,-560,210,,,,,,,0x03,
13306,-84,-20,-1004,0,-560,280,,,,,,,0x03,
13316,-85,-19,-1008,840,-420,420,,,,,,,0x03,
13326,-88,-17,-1008,1610,-490,490,,,,,,,0x03,
13335,-88,-15,-1010,1960,-490,560,,,,,,,0x03,
13345,-88,-15,-1006,2030,-490,490,,,,,,,0x03,
13354,-92,-16,-1004,2170,-420,420,,,,,,,0x03,
13364,-91,-16,-1002,2380,-350,420,,,,,,,0x03,
13374,-92,-17,-1001,2380,-280,490,,,,,,,0x03,
13383,-92,-19,-1003,2100,-140,490,,,,,,,0x03,
13393,-94,-19,-1003,2030,0,490,,,,,,,0x03,
13403,-94,-18,-1006,2030,0,350,,,,,,,0x03,
13412,-94,-17,-1008,2170,0,280,,,,,,,0x03,
13422,-96,-15,-1003,1750,0,210,,,,,,,0x03,
13432,-98,-16,-1002,1260,0,140,,,,,,,0x03,
13441,-96,-20,-1007,1190,0,0,,,,,,,0x03,
13451,-94,-22,-1006,980,0,0,,,,,,,0x03,
13461,-93,-21,-1005,840,0,0,,,,,,,0x03,
13470,-92,-22,-1009,630,0,-140,,,,,,,0x03,
13480,-90,-20,-1015,700,-210,-210,,,,,,,0x03,
