#Format version: 1.0
time[ms],accX[mg],accY[mg],accZ[mg],gyroX[mdps],gyroY[mdps],gyroZ[mdps],magnX[mG],magnY[mG],magnZ[mG],press[hPa],temp[°C],hum[0,-999,-109,51,-210,-490,-70,,,,,,,0x03,
10,-998,-110,53,-70,-700,0,,,,,,,0x03,
19,-996,-108,52,-70,-840,140,,,,,,,0x03,
29,-997,-107,54,70,-980,140,,,,,,,0x03,
39,-997,-106,55,350,-1050,-70,,,,,,,0x03,
48,-997,-108,56,490,-1050,-140,,,,,,,0x03,
58,-996,-108,55,560,-1120,-140,,,,,,,0x03,
68,-995,-108,57,630,-1190,-140,,,,,,,0x03,
77,-996,-106,58,560,-1120,-140,,,,,,,0x03,
87,-996,-107,58,490,-1050,-280,,,,,,,0x03,
97,-995,-107,57,280,-840,-280,,,,,,,0x03,
106,-996,-106,59,140,-700,-420,,,,,,,0x03,
116,-997,-106,58,140,-560,-490,,,,,,,0x03,
126,-997,-109,54,280,-490,-490,,,,,,,0x03,
135,-998,-113,53,140,-700,-280,,,,,,,0x03,
145,-996,-111,52,140,-980,0,,,,,,,0x03,
155,-997,-108,54,280,-1260,140,,,,,,,0x03,
164,-996,-105,56,490,-1470,140,,,,,,,0x03,
174,-997,-104,58,560,-1540,-70,,,,,,,0x03,
184,-996,-103,58,560,-1400,-280,,,,,,,0x03,
193,-995,-102,59,350,-1120,-490,,,,,,,0x03,
203,-994,-103,61,210,-910,-700,,,,,,,0x03,
213,-997,-106,59,140,-560,-910,,,,,,,0x03,
222,-997,-109,57,140,-280,-980,,,,,,,0x03,
232,-996,-111,54,-70,-280,-840,,,,,,,0x03,
242,-996,-110,56,-70,-420,-770,,,,,,,0x03,
252,-997,-110,54,140,-700,-700,,,,,,,0x03,
261,-998,-114,54,280,-1050,-560,,,,,,,0x03,
271,-997,-112,55,280,-1260,-280,,,,,,,0x03,
281,-995,-108,55,210,-1470,0,,,,,,,0x03,
290,-997,-108,59,210,-1470,70,,,,,,,0x03,
300,-995,-105,59,280,-1400,-70,,,,,,,0x03,
310,-995,-105,60,280,-1330,-140,,,,,,,0x03,
319,-995,-105,60,210,-1050,-280,,,,,,,0x03,
329,-995,-107,59,140,-770,-280,,,,,,,0x03,
339,-996,-110,56,140,-700,-280,,,,,,,0x03,
348,-997,-109,55,-140,-700,-70,,,,,,,0x03,
358,-996,-109,57,-140,-840,210,,,,,,,0x03,
368,-996,-107,56,-210,-910,350,,,,,,,0x03,
377,-997,-108,56,-350,-980,420,,,,,,,0x03,
387,-996,-107,57,-280,-1260,420,,,,,,,0x03,
397,-996,-105,59,-350,-1190,490,,,,,,,0x03,
406,-996,-105,60,-420,-980,280,,,,,,,0x03,
416,-996,-106,62,-490,-630,210,,,,,,,0x03,
426,-995,-106,61,-700,-140,280,,,,,,,0x03,
435,-996,-106,62,-840,280,210,,,,,,,0x03,
445,-996,-108,61,-1050,700,280,,,,,,,0x03,
455,-994,-106,58,-1260,980,420,,,,,,,0x03,
464,-997,-107,60,-1400,910,420,,,,,,,0x03,
474,-996,-105,59,-1470,910,420,,,,,,,0x03,
484,-996,-105,56,-1470,910,280,,,,,,,0x03,
493,-995,-108,63,-1400,1050,210,,,,,,,0x03,
503,-999,-102,47,-910,1540,210,,,,,,,0x03,
513,-995,-106,56,-1470,1260,210,,,,,,,0x03,
522,-997,-107,53,-1470,1330,140,,,,,,,0x03,
532,-997,-108,51,-1260,1330,350,,,,,,,0x03,
542,-998,-107,48,-1120,910,420,,,,,,,0x03,
551,-998,-108,50,-770,280,560,,,,,,,0x03,
561,-998,-107,49,-490,-210,630,,,,,,,0x03,
571,-998,-106,51,-420,-560,840,,,,,,,0x03,
580,-997,-106,54,-490,-560,980,,,,,,,0x03,
590,-996,-106,54,-560,-420,1050,,,,,,,0x03,
600,-996,-105,52,-490,-420,1050,,,,,,,0x03,
609,-997,-105,51,-560,-420,1190,,,,,,,0x03,
619,-996,-104,52,-560,-420,1260,,,,,,,0x03,
629,-997,-105,52,-490,-630,1190,,,,,,,0x03,
638,-998,-104,50,-280,-700,1190,,,,,,,0x03,
648,-996,-104,51,0,-840,1190,,,,,,,0x03,
658,-997,-105,51,-70,-980,1470,,,,,,,0x03,
667,-996,-103,54,-70,-1050,1680,,,,,,,0x03,
677,-997,-101,57,-70,-980,1680,,,,,,,0x03,
687,-997,-103,58,-210,-840,1750,,,,,,,0x03,
697,-997,-102,54,-350,-560,1820,,,,,,,0x03,
706,-996,-105,53,-1120,-490,2240,,,,,,,0x03,
716,-998,-107,52,-1610,-560,2450,,,,,,,0x03,
726,-999,-109,53,-2030,-700,3220,,,,,,,0x03,
735,-996,-106,52,-1960,-980,3850,,,,,,,0x03,
745,-996,-104,53,-1820,-980,4340,,,,,,,0x03,
755,-997,-103,51,-1680,-910,4690,,,,,,,0x03,
764,-998,-103,51,-1470,-840,4970,,,,,,,0x03,
774,-997,-102,50,-1330,-700,5320,,,,,,,0x03,
784,-998,-100,49,-1050,-770,5530,,,,,,,0x03,
793,-1001,-100,49,-770,-1050,5740,,,,,,,0x03,
803,-999,-96,46,-490,-1540,6020,,,,,,,0x03,
813,-999,-93,44,-560,-1960,6300,,,,,,,0x03,
822,-998,-94,44,-910,-2590,6860,,,,,,,0x03,
832,-998,-89,50,-1050,-3080,7000,,,,,,,0x03,
842,-998,-84,53,-910,-3290,7210,,,,,,,0x03,
851,-997,-80,56,-560,-3290,6860,,,,,,,0x03,
861,-997,-77,56,-280,-3080,6720,,,,,,,0x03,
871,-998,-78,57,-420,-3010,6160,,,,,,,0x03,
880,-997,-80,58,-210,-2940,5810,,,,,,,0x03,
890,-999,-78,58,70,-2940,5670,,,,,,,0x03,
900,-998,-80,59,420,-3220,5390,,,,,,,0x03,
909,-998,-78,60,840,-3360,5180,,,,,,,0x03,
919,-998,-75,61,1050,-3500,4900,,,,,,,0x03,
929,-998,-77,60,770,-3220,4690,,,,,,,0x03,
938,-997,-77,62,350,-2730,4550,,,,,,,0x03,
948,-998,-77,65,0,-2310,4550,,,,,,,0x03,
958,-997,-76,66,-70,-1750,4480,,,,,,,0x03,
967,-998,-72,64,-70,-1260,4410,,,,,,,0x03,
977,-998,-70,63,0,-1050,4200,,,,,,,0x03,
987,-998,-74,65,-70,-840,4060,,,,,,,0x03,
996,-997,-75,63,-140,-420,4130,,,,,,,0x03,
1006,-998,-74,61,-420,-140,4340,,,,,,,0x03,
1016,-999,-72,61,-420,-140,4480,,,,,,,0x03,
1025,-1000,-73,57,-70,-140,4690,,,,,,,0x03,
1035,-1000,-75,53,70,-420,4970,,,,,,,0x03,
1045,-998,-72,53,210,-980,5110,,,,,,,0x03,
1054,-1001,-70,56,280,-1470,5250,,,,,,,0x03,
1064,-1001,-67,58,420,-1610,5460,,,,,,,0x03,
1074,-1000,-66,59,560,-1680,5600,,,,,,,0x03,
1083,-998,-62,60,350,-1750,5530,,,,,,,0x03,
1093,-999,-59,64,210,-1400,5320,,,,,,,0x03,
1103,-1000,-59,65,0,-910,5110,,,,,,,0x03,
1112,-999,-60,66,-140,-560,4690,,,,,,,0x03,
1122,-999,-58,67,0,-140,4410,,,,,,,0x03,
1132,-997,-57,62,0,210,4270,,,,,,,0x03,
1142,-998,-57,61,0,350,3780,,,,,,,0x03,
1151,-1001,-59,61,0,350,3150,,,,,,,0x03,
1161,-1000,-58,60,70,210,3080,,,,,,,0x03,
1171,-999,-59,58,140,70,3220,,,,,,,0x03,
1180,-1000,-60,57,280,-70,3430,,,,,,,0x03,
1190,-1002,-60,56,350,-280,3850,,,,,,,0x03,
1200,-1001,-59,55,210,-420,4270,,,,,,,0x03,
1209,-999,-59,55,420,-560,4480,,,,,,,0x03,
1219,-1002,-62,55,840,-910,4900,,,,,,,0x03,
1229,-1003,-61,53,910,-1610,5460,,,,,,,0x03,
1238,-1002,-58,56,910,-2310,5880,,,,,,,0x03,
1248,-997,-50,60,1190,-2940,6090,,,,,,,0x03,
1258,-999,-47,61,1540,-3010,5880,,,,,,,0x03,
1267,-999,-45,62,1540,-2940,5390,,,,,,,0x03,
1277,-999,-43,63,1470,-2730,5390,,,,,,,0x03,
1287,-998,-41,64,1610,-2590,5320,,,,,,,0x03,
1296,-1000,-40,66,1400,-2030,4830,,,,,,,0x03,
1306,-1000,-40,64,910,-1400,4340,,,,,,,0x03,
1316,-999,-37,66,420,-1050,4130,,,,,,,0x03,
1325,-998,-36,68,280,-700,3710,,,,,,,0x03,
1335,-997,-39,66,210,-210,3220,,,,,,,0x03,
1345,-998,-37,66,140,70,2800,,,,,,,0x03,
1354,-999,-38,66,210,350,2240,,,,,,,0x03,
1364,-999,-40,66,350,700,1820,,,,,,,0x03,
1374,-999,-39,65,630,910,1750,,,,,,,0x03,
1383,-1000,-41,63,1120,1120,1820,,,,,,,0x03,
1393,-1001,-43,56,980,1050,1960,,,,,,,0x03,
1403,-1004,-46,57,490,980,1890,,,,,,,0x03,
1412,-1002,-41,59,280,840,2170,,,,,,,0x03,
1422,-1000,-38,60,490,630,2450,,,,,,,0x03,
1432,-1000,-37,62,770,630,2450,,,,,,,0x03,
1441,-1001,-37,61,1050,700,2240,,,,,,,0x03,
1451,-1000,-37,61,1260,770,2170,,,,,,,0x03,
1461,-1000,-37,59,1120,910,2030,,,,,,,0x03,
1470,-1001,-35,59,1050,980,1960,,,,,,,0x03,
1480,-1000,-34,57,980,1120,1890,,,,,,,0x03,
1490,-1001,-34,55,910,1120,1610,,,,,,,0x03,
1499,-1002,-37,53,910,910,1470,,,,,,,0x03,
1509,-1004,-39,53,700,560,1610,,,,,,,0x03,
1519,-1001,-37,55,840,280,1960,,,,,,,0x03,
1528,-1000,-36,57,1050,210,2170,,,,,,,0x03,
1538,-1002,-38,59,1120,280,2170,,,,,,,0x03,
1548,-1003,-39,62,1050,560,2380,,,,,,,0x03,
1557,-1000,-37,63,1050,840,3010,,,,,,,0x03,
1567,-1000,-32,63,1330,1330,3290,,,,,,,0x03,
1577,-999,-31,63,1330,1750,3150,,,,,,,0x03,
1587,-1000,-33,60,1260,2030,3220,,,,,,,0x03,
1596,-1001,-33,59,1330,2170,3430,,,,,,,0x03,
1606,-1003,-35,54,1120,2310,3500,,,,,,,0x03,
1616,-1005,-35,52,560,2170,3640,,,,,,,0x03,
1625,-1003,-34,53,-140,2100,4270,,,,,,,0x03,
1635,-1001,-31,50,-630,1820,4830,,,,,,,0x03,
1645,-1000,-27,54,-980,1820,4970,,,,,,,0x03,
1654,-1001,-23,55,-980,1750,4760,,,,,,,0x03,
1664,-1000,-20,54,-630,1680,4550,,,,,,,0x03,
1674,-1000,-20,54,-280,1610,4270,,,,,,,0x03,
1683,-1000,-20,53,-350,2030,4270,,,,,,,0x03,
1693,-999,-19,49,-420,2730,3920,,,,,,,0x03,
1703,-1001,-21,48,-630,3080,3430,,,,,,,0x03,
1712,-1003,-26,47,-770,3360,3290,,,,,,,0x03,
1722,-1004,-27,42,-770,3220,3710,,,,,,,0x03,
1732,-1004,-27,44,-630,2800,4410,,,,,,,0x03,
1741,-1003,-26,40,-560,2800,4970,,,,,,,0x03,
1751,-1004,-25,41,-630,2240,5250,,,,,,,0x03,
1761,-1003,-23,45,-490,1820,5460,,,,,,,0x03,
1770,-1002,-16,45,-210,1610,5670,,,,,,,0x03,
1780,-1001,-14,47,350,1330,5810,,,,,,,0x03,
1790,-1001,-14,47,1120,1190,6020,,,,,,,0x03,
1799,-1001,-12,47,1470,1470,6160,,,,,,,0x03,
1809,-1001,-12,48,1820,1820,6300,,,,,,,0x03,
1819,-1001,-10,41,1890,2170,6580,,,,,,,0x03,
1828,-1001,-7,38,1820,2170,6510,,,,,,,0x03,
1838,-1003,-5,41,1890,1890,6370,,,,,,,0x03,
1848,-1001,-2,38,2100,1610,6300,,,,,,,0x03,
1857,-1000,0,37,2240,1470,5810,,,,,,,0x03,
1867,-1001,-1,34,2170,1190,5110,,,,,,,0x03,
1877,-1003,-4,34,2100,700,4900,,,,,,,0x03,
1886,-1005,-4,34,2030,0,5040,,,,,,,0x03,
1896,-1001,-1,33,2100,-700,5320,,,,,,,0x03,
1906,-1001,0,33,2030,-1260,5250,,,,,,,0x03,
1915,-1003,0,38,1680,-1540,5180,,,,,,,0x03,
1925,-1003,0,42,1610,-1680,5110,,,,,,,0x03,
1935,-1001,1,44,1470,-1750,5180,,,,,,,0x03,
1944,-1001,5,44,1190,-1750,5110,,,,,,,0x03,
1954,-1003,6,49,840,-1890,4900,,,,,,,0x03,
1964,-1001,7,50,420,-1400,4900,,,,,,,0x03,
1973,-998,11,50,210,-630,4690,,,,,,,0x03,
1983,-999,10,51,0,-70,3990,,,,,,,0x03,
1993,-1002,7,50,-350,630,3290,,,,,,,0x03,
2002,-1000,5,47,-840,1050,3220,,,,,,,0x03,
2012,-1001,3,48,-1120,1330,3290,,,,,,,0x03,
2022,-1003,2,47,-980,1820,3500,,,,,,,0x03,
2032,-1002,4,42,-1050,2170,3780,,,,,,,0x03,
2041,-1002,3,41,-1050,2100,3920,,,,,,,0x03,
2051,-1002,5,38,-980,1820,4130,,,,,,,0x03,
2061,-1003,5,40,-770,1260,4270,,,,,,,0x03,
2070,-1004,4,41,-420,840,4620,,,,,,,0x03,
2080,-1002,7,40,-210,560,5040,,,,,,,0x03,
2090,-1001,10,43,0,630,5110,,,,,,,0x03,
2099,-998,14,39,210,1120,4970,,,,,,,0x03,
2109,-1000,18,37,70,1470,4690,,,,,,,0x03,
2119,-1000,21,38,70,1540,4270,,,,,,,0x03,
2128,-1002,19,35,420,1330,3850,,,,,,,0x03,
2138,-1003,16,31,910,1050,3710,,,,,,,0x03,
2148,-1002,16,29,980,630,3920,,,,,,,0x03,
2157,-1005,12,29,1120,280,4130,,,,,,,0x03,
2167,-1003,10,27,980,0,4690,,,,,,,0x03,
2177,-1001,15,26,840,-770,5040,,,,,,,0x03,
2186,-1005,18,31,840,-1540,5320,,,,,,,0x03,
2196,-1004,19,32,980,-2240,5600,,,,,,,0x03,
2206,-1001,24,32,1050,-2800,5810,,,,,,,0x03,
2215,-997,33,36,980,-3010,5530,,,,,,,0x03,
2225,-997,38,40,1050,-2870,4830,,,,,,,0x03,
2235,-999,40,42,1050,-2450,4060,,,,,,,0x03,
2244,-1000,41,44,840,-1750,3150,,,,,,,0x03,
2254,-1001,38,45,630,-770,2240,,,,,,,0x03,
2264,-1000,36,42,280,210,1750,,,,,,,0x03,
2273,-995,36,36,-70,490,1260,,,,,,,0x03,
2283,-997,35,36,-70,210,630,,,,,,,0x03,
2293,-1001,33,38,140,-210,140,,,,,,,0x03,
2302,-1001,30,37,490,-350,-280,,,,,,,0x03,
2312,-1000,29,34,910,-560,-350,,,,,,,0x03,
2322,-1005,24,34,1190,-630,-280,,,,,,,0x03,
2331,-1006,20,33,1260,-560,-140,,,,,,,0x03,
2341,-1002,19,28,1050,-910,210,,,,,,,0x03,
2351,-1002,22,30,980,-1470,770,,,,,,,0x03,
2360,-1005,22,36,770,-1960,1120,,,,,,,0x03,
2370,-1001,27,37,770,-2170,1330,,,,,,,0x03,
2380,-999,30,42,980,-2310,1400,,,,,,,0x03,
2389,-999,31,45,1190,-2170,1260,,,,,,,0x03,
2399,-1000,29,45,1190,-1610,1120,,,,,,,0x03,
2409,-1000,29,45,840,-1330,1400,,,,,,,0x03,
2418,-997,33,43,560,-910,1540,,,,,,,0x03,
2428,-1000,34,43,560,-630,1120,,,,,,,0x03,
2438,-1002,32,36,630,-350,630,,,,,,,0x03,
2447,-1001,31,32,420,-420,420,,,,,,,0x03,
2457,-1001,32,30,350,-910,420,,,,,,,0x03,
2467,-1001,34,28,420,-1470,490,,,,,,,0x03,
2477,-1002,37,31,490,-2240,350,,,,,,,0x03,
2486,-1001,35,36,840,-2800,210,,,,,,,0x03,
2496,-1003,34,35,1260,-3010,-70,,,,,,,0x03,
2506,-1001,33,34,1330,-3500,-280,,,,,,,0x03,
2515,-1001,30,37,1400,-3710,-210,,,,,,,0x03,
2525,-1001,29,42,1470,-4340,-70,,,,,,,0x03,
2535,-1000,28,43,1680,-4550,140,,,,,,,0x03,
2544,-1000,28,48,1680,-4550,350,,,,,,,0x03,
2554,-1000,29,50,1470,-4200,350,,,,,,,0x03,
2564,-1001,27,55,1400,-3570,490,,,,,,,0x03,
2573,-1001,29,53,1050,-2800,770,,,,,,,0x03,
2583,-1000,33,51,630,-2240,840,,,,,,,0x03,
2593,-1002,34,51,630,-1960,700,,,,,,,0x03,
2602,-999,35,50,770,-1750,700,,,,,,,0x03,
2612,-998,36,47,700,-1470,490,,,,,,,0x03,
2622,-997,38,50,420,-1050,-70,,,,,,,0x03,
2631,-1001,38,49,350,-560,-490,,,,,,,0x03,
2641,-1000,38,47,280,-350,-700,,,,,,,0x03,
2651,-1000,38,46,70,-420,-980,,,,,,,0x03,
2660,-1000,38,45,-210,-560,-1470,,,,,,,0x03,
2670,-999,39,45,-210,-770,-1820,,,,,,,0x03,
2680,-997,39,43,70,-980,-2240,,,,,,,0x03,
2689,-999,35,40,70,-1400,-2800,,,,,,,0x03,
2699,-1003,31,42,-140,-1820,-3290,,,,,,,0x03,
2709,-1001,31,43,0,-2030,-3220,,,,,,,0x03,
2718,-1001,32,43,280,-2240,-3150,,,,,,,0x03,
2728,-1000,32,42,560,-2660,-3500,,,,,,,0x03,
2738,-1002,29,39,560,-3150,-4130,,,,,,,0x03,
2747,-1002,27,38,700,-3920,-4480,,,,,,,0x03,
2757,-1002,28,38,980,-4900,-4690,,,,,,,0x03,
2767,-1003,25,45,1050,-5670,-4830,,,,,,,0x03,
2776,-1003,21,49,1400,-5740,-4480,,,,,,,0x03,
2786,-998,20,50,1680,-5530,-3920,,,,,,,0x03,
2796,-1001,19,52,1750,-5180,-3360,,,,,,,0x03,
2805,-1002,19,51,1540,-4830,-2940,,,,,,,0x03,
2815,-1002,20,50,1190,-5040,-2520,,,,,,,0x03,
2825,-1001,23,53,840,-5390,-2240,,,,,,,0x03,
2834,-999,24,57,770,-5390,-2240,,,,,,,0x03,
2844,-999,25,60,1190,-5320,-2240,,,,,,,0x03,
2854,-1003,20,62,1470,-5180,-2030,,,,,,,0x03,
2863,-1000,18,61,1260,-4550,-1680,,,,,,,0x03,
2873,-998,23,56,1050,-4130,-1400,,,,,,,0x03,
2883,-998,27,59,770,-4060,-1400,,,,,,,0x03,
2892,-1001,28,54,630,-4130,-1960,,,,,,,0x03,
2902,-1000,28,55,490,-4620,-2380,,,,,,,0x03,
2912,-999,29,55,280,-5040,-2380,,,,,,,0x03,
2922,-997,30,51,0,-5180,-2590,,,,,,,0x03,
2931,-999,32,52,-560,-5740,-3430,,,,,,,0x03,
2941,-1000,31,58,-770,-6230,-4270,,,,,,,0x03,
2951,-997,33,60,-560,-6440,-4690,,,,,,,0x03,
2960,-993,35,62,0,-6510,-5530,,,,,,,0x03,
2970,-999,28,67,560,-6090,-6650,,,,,,,0x03,
2980,-1001,21,60,700,-5670,-7280,,,,,,,0x03,
2989,-1000,14,59,630,-6020,-7350,,,,,,,0x03,
2999,-1002,10,55,210,-7140,-7350,,,,,,,0x03,
3009,-1003,6,63,-350,-8470,-7280,,,,,,,0x03,
3018,-1003,4,71,-210,-9520,-6860,,,,,,,0x03,
3028,-1000,3,78,770,-10150,-6370,,,,,,,0x03,
3038,-1002,-3,78,700,-9380,-5180,,,,,,,0x03,
3047,-1001,-1,74,280,-9240,-4690,,,,,,,0x03,
3057,-1001,0,80,-140,-9590,-4410,,,,,,,0x03,
3067,-1001,3,86,210,-10010,-3990,,,,,,,0x03,
3076,-1000,5,89,1120,-9870,-3360,,,,,,,0x03,
3086,-999,2,93,1680,-8820,-2940,,,,,,,0x03,
3096,-998,2,91,1610,-7350,-2590,,,,,,,0x03,
3105,-1000,1,92,1260,-6160,-2170,,,,,,,0x03,
3115,-999,4,95,1050,-5040,-1610,,,,,,,0x03,
3125,-996,10,95,1330,-4060,-1330,,,,,,,0x03,
3134,-999,7,95,1750,-3080,-1540,,,,,,,0x03,
3144,-1000,4,91,1750,-1890,-1470,,,,,,,0x03,
3154,-998,3,88,1400,-1050,-1120,,,,,,,0x03,
3163,-1000,3,86,910,-560,-700,,,,,,,0x03,
3173,-999,1,81,490,-280,-350,,,,,,,0x03,
3183,-1001,1,80,70,-420,-140,,,,,,,0x03,
3192,-1001,3,83,-280,-840,280,,,,,,,0x03,
3202,-999,7,84,-140,-980,490,,,,,,,0x03,
3212,-998,9,85,140,-910,420,,,,,,,0x03,
3221,-998,9,85,280,-910,280,,,,,,,0x03,
3231,-998,8,85,70,-980,140,,,,,,,0x03,
3241,-996,10,85,70,-1050,0,,,,,,,0x03,
3250,-1000,8,85,210,-1190,-210,,,,,,,0x03,
3260,-1000,6,85,-140,-1330,-210,,,,,,,0x03,
3270,-1000,7,85,-280,-1330,-140,,,,,,,0x03,
3279,-997,10,89,-210,-1260,-210,,,,,,,0x03,
3289,-996,10,91,140,-1120,-420,,,,,,,0x03,
3299,-997,10,88,420,-840,-910,,,,,,,0x03,
3308,-998,7,88,350,-770,-1260,,,,,,,0x03,
3318,-999,4,87,280,-770,-1400,,,,,,,0x03,
3328,-1000,2,89,140,-1050,-1400,,,,,,,0x03,
3337,-1000,1,89,140,-1190,-1330,,,,,,,0x03,
3347,-997,2,87,210,-1120,-910,,,,,,,0x03,
3357,-999,2,89,70,-910,-630,,,,,,,0x03,
3367,-1000,2,89,-140,-980,-630,,,,,,,0x03,
3376,-997,5,89,-70,-1190,-490,,,,,,,0x03,
3386,-997,7,90,140,-1260,-490,,,,,,,0x03,
3396,-998,6,87,210,-840,-560,,,,,,,0x03,
3405,-999,5,87,-70,-560,-560,,,,,,,0x03,
3415,-999,6,87,-210,-280,-420,,,,,,,0x03,
3425,-998,7,88,-70,-140,-280,,,,,,,0x03,
3434,-997,8,89,70,140,-280,,,,,,,0x03,
3444,-1000,7,84,-70,630,-560,,,,,,,0x03,
3454,-1000,6,85,-490,490,-770,,,,,,,0x03,
3463,-1000,7,80,-700,210,-700,,,,,,,0x03,
3473,-997,6,81,-840,-420,-700,,,,,,,0x03,
3483,-997,5,82,-560,-630,-910,,,,,,,0x03,
3492,-997,4,81,-280,-700,-840,,,,,,,0x03,
3502,-1001,1,84,0,-770,-700,,,,,,,0x03,
3512,-1002,0,85,140,-560,-420,,,,,,,0x03,
3521,-1000,3,84,70,-700,0,,,,,,,0x03,
3531,-1000,3,83,140,-980,70,,,,,,,0x03,
3541,-1002,2,84,210,-1330,0,,,,,,,0x03,
3550,-1000,1,85,350,-1680,140,,,,,,,0x03,
3560,-997,4,84,630,-2030,420,,,,,,,0x03,
3570,-999,6,88,630,-2170,490,,,,,,,0x03,
3579,-997,8,91,490,-1820,420,,,,,,,0x03,
3589,-997,11,92,490,-1330,280,,,,,,,0x03,
3599,-998,12,92,560,-840,0,,,,,,,0x03,
3608,-997,11,89,350,-490,-280,,,,,,,0x03,
3618,-1000,11,83,210,-490,-770,,,,,,,0x03,
3628,-1002,8,81,70,-910,-1120,,,,,,,0x03,
3637,-1000,7,78,70,-1260,-1120,,,,,,,0x03,
3647,-999,7,77,280,-1610,-910,,,,,,,0x03,
3657,-999,8,79,350,-1960,-700,,,,,,,0x03,
3666,-998,9,83,420,-2170,-770,,,,,,,0x03,
3676,-997,11,86,770,-2170,-910,,,,,,,0x03,
3686,-998,8,89,770,-2170,-1190,,,,,,,0x03,
3695,-998,8,90,490,-1890,-1190,,,,,,,0x03,
3705,-997,5,92,420,-1540,-1190,,,,,,,0x03,
3715,-998,2,93,350,-1260,-1260,,,,,,,0x03,
3724,-999,0,92,280,-1120,-1050,,,,,,,0x03,
3734,-999,-2,93,0,-1190,-840,,,,,,,0x03,
3744,-998,-2,93,-140,-1260,-490,,,,,,,0x03,
3753,-999,-2,95,-140,-1190,-280,,,,,,,0x03,
3763,-998,-2,92,-70,-1190,0,,,,,,,0x03,
3773,-998,0,92,0,-1050,210,,,,,,,0x03,
3782,-997,4,93,70,-910,350,,,,,,,0x03,
3792,-998,7,90,350,-700,210,,,,,,,0x03,
3802,-998,8,87,490,-490,140,,,,,,,0x03,
3812,-999,9,84,350,-490,0,,,,,,,0x03,
3821,-999,9,85,420,-560,-140,,,,,,,0x03,
3831,-998,11,82,700,-700,-140,,,,,,,0x03,
3841,-999,10,82,1050,-910,-210,,,,,,,0x03,
3850,-1000,10,82,1050,-1120,-490,,,,,,,0x03,
3860,-1001,6,85,1120,-1540,-630,,,,,,,0x03,
3870,-999,5,83,1120,-1820,-560,,,,,,,0x03,
3879,-998,6,85,980,-1960,-420,,,,,,,0x03,
3889,-1000,2,88,770,-2100,-490,,,,,,,0x03,
3899,-996,4,87,560,-1960,-140,,,,,,,0x03,
3908,-998,6,93,350,-1890,0,,,,,,,0x03,
3918,-997,8,96,280,-1540,-140,,,,,,,0x03,
3928,-995,11,94,140,-1190,-350,,,,,,,0x03,
3937,-997,10,97,140,-840,-770,,,,,,,0x03,
3947,-998,8,96,210,-630,-1050,,,,,,,0x03,
3957,-999,4,95,350,-490,-1190,,,,,,,0x03,
3966,-998,4,94,70,-420,-1120,,,,,,,0x03,
3976,-997,3,95,-280,-70,-1120,,,,,,,0x03,
3986,-999,2,93,-210,280,-1120,,,,,,,0x03,
3995,-998,2,92,-140,420,-910,,,,,,,0x03,
4005,-998,1,89,70,490,-770,,,,,,,0x03,
4015,-998,1,88,280,420,-700,,,,,,,0x03,
4024,-999,-1,87,350,140,-630,,,,,,,0x03,
4034,-1000,0,87,280,-210,-210,,,,,,,0x03,
4044,-1000,1,90,210,-490,70,,,,,,,0x03,
4053,-998,3,92,280,-420,210,,,,,,,0x03,
4063,-998,4,92,280,-350,140,,,,,,,0x03,
4073,-998,4,92,210,-210,140,,,,,,,0x03,
4082,-999,4,91,140,-70,140,,,,,,,0x03,
4092,-997,4,91,70,70,0,,,,,,,0x03,
4102,-998,4,87,140,140,-70,,,,,,,0x03,
4111,-1000,2,87,0,-70,0,,,,,,,0x03,
4121,-1000,4,85,-70,-350,70,,,,,,,0x03,
4131,-998,6,85,70,-560,210,,,,,,,0x03,
4140,-1000,7,85,140,-700,140,,,,,,,0x03,
4150,-1000,6,84,210,-770,210,,,,,,,0x03,
4160,-1000,7,85,70,-1120,140,,,,,,,0x03,
4169,-998,10,88,210,-1540,-70,,,,,,,0x03,
4179,-998,10,88,490,-1610,-350,,,,,,,0x03,
4189,-997,9,89,420,-1540,-700,,,,,,,0x03,
4198,-998,7,91,350,-1190,-910,,,,,,,0x03,
4208,-1000,3,88,350,-1120,-770,,,,,,,0x03,
4218,-998,0,86,210,-1330,-630,,,,,,,0x03,
4227,-999,1,87,140,-1610,-350,,,,,,,0x03,
4237,-999,3,89,140,-1680,-70,,,,,,,0x03,
4247,-997,6,92,210,-1610,0,,,,,,,0x03,
4257,-997,6,93,280,-1400,-140,,,,,,,0x03,
4266,-997,8,93,280,-1260,-420,,,,,,,0x03,
4276,-996,10,93,140,-1120,-560,,,,,,,0x03,
4286,-997,10,93,70,-910,-770,,,,,,,0x03,
4295,-997,8,93,-210,-420,-1190,,,,,,,0x03,
4305,-997,7,93,-420,-210,-1470,,,,,,,0x03,
4315,-998,4,91,-490,0,-1750,,,,,,,0x03,
4324,-999,1,87,-560,70,-1610,,,,,,,0x03,
4334,-1001,0,86,-280,-420,-1260,,,,,,,0x03,
4344,-999,-1,85,-280,-630,-910,,,,,,,0x03,
4353,-999,0,86,-280,-910,-560,,,,,,,0x03,
4363,-1000,3,87,-140,-1120,-280,,,,,,,0x03,
4373,-999,6,90,-140,-1330,-210,,,,,,,0x03,
4382,-998,8,91,0,-1330,-280,,,,,,,0x03,
4392,-997,10,89,0,-1120,-490,,,,,,,0x03,
4402,-995,10,89,-210,-910,-770,,,,,,,0x03,
4411,-998,8,89,-280,-770,-980,,,,,,,0x03,
4421,-999,4,87,-210,-910,-1050,,,,,,,0x03,
4431,-999,3,87,0,-980,-980,,,,,,,0x03,
4440,-999,1,86,0,-1120,-840,,,,,,,0x03,
4450,-1001,0,87,0,-1260,-840,,,,,,,0x03,
4460,-1000,0,90,140,-1470,-700,,,,,,,0x03,
4469,-998,0,89,140,-1610,-350,,,,,,,0x03,
4479,-998,2,90,70,-1820,-210,,,,,,,0x03,
4489,-998,4,94,0,-1890,-210,,,,,,,0x03,
4498,-998,5,92,70,-1890,-210,,,,,,,0x03,
4508,-997,4,93,70,-1890,-280,,,,,,,0x03,
4518,-998,6,95,0,-1680,-280,,,,,,,0x03,
4527,-996,7,95,0,-1260,-350,,,,,,,0x03,
4537,-996,8,95,70,-910,-490,,,,,,,0x03,
4547,-997,8,94,210,-560,-840,,,,,,,0x03,
4556,-998,5,93,210,-280,-1120,,,,,,,0x03,
4566,-999,1,90,70,-210,-1190,,,,,,,0x03,
4576,-999,3,90,-70,-280,-1120,,,,,,,0x03,
4585,-998,2,91,-70,-490,-910,,,,,,,0x03,
4595,-998,1,90,140,-560,-840,,,,,,,0x03,
4605,-998,0,93,140,-630,-630,,,,,,,0x03,
4614,-1000,-1,95,70,-560,-420,,,,,,,0x03,
4624,-999,0,95,0,-280,0,,,,,,,0x03,
4634,-998,3,95,-210,-140,280,,,,,,,0x03,
4643,-998,3,95,-420,-70,210,,,,,,,0x03,
4653,-998,5,96,-630,-70,-70,,,,,,,0x03,
4663,-998,5,94,-350,-140,-210,,,,,,,0x03,
4672,-998,4,92,-210,0,-420,,,,,,,0x03,
4682,-998,2,90,-420,70,-490,,,,,,,0x03,
4692,-998,3,90,-280,280,-560,,,,,,,0x03,
4702,-998,3,90,-70,280,-560,,,,,,,0x03,
4711,-1000,1,87,140,350,-560,,,,,,,0x03,
4721,-1000,1,86,140,280,-350,,,,,,,0x03,
4731,-1000,2,85,70,-140,-140,,,,,,,0x03,
4740,-1000,3,88,350,-560,-70,,,,,,,0x03,
4750,-999,2,91,560,-840,0,,,,,,,0x03,
4760,-998,1,91,770,-1050,0,,,,,,,0x03,
4769,-999,1,89,770,-1050,0,,,,,,,0x03,
4779,-999,1,90,560,-1190,0,,,,,,,0x03,
4789,-999,5,91,700,-1190,70,,,,,,,0x03,
4798,-998,4,90,840,-1120,70,,,,,,,0x03,
4808,-998,4,89,910,-1120,-70,,,,,,,0x03,
4818,-999,4,89,840,-1050,-70,,,,,,,0x03,
4827,-998,3,91,840,-1120,70,,,,,,,0x03,
4837,-998,3,89,910,-1050,210,,,,,,,0x03,
4847,-997,5,91,770,-1120,280,,,,,,,0x03,
4856,-998,2,94,630,-910,350,,,,,,,0x03,
4866,-997,4,96,490,-630,490,,,,,,,0x03,
4876,-997,5,95,490,-350,420,,,,,,,0x03,
4885,-997,5,95,490,-70,210,,,,,,,0x03,
4895,-998,3,93,210,140,70,,,,,,,0x03,
4905,-997,5,91,140,280,140,,,,,,,0x03,
4914,-997,6,93,70,280,210,,,,,,,0x03,
4924,-998,4,91,70,420,350,,,,,,,0x03,
4934,-999,4,90,-70,560,560,,,,,,,0x03,
4943,-999,6,91,-280,630,630,,,,,,,0x03,
4953,-998,6,91,-140,700,490,,,,,,,0x03,
4963,-999,4,87,0,700,560,,,,,,,0x03,
4972,-1000,5,86,-70,350,490,,,,,,,0x03,
4982,-998,7,87,-210,140,210,,,,,,,0x03,
4992,-998,10,88,-70,0,0,,,,,,,0x03,
5001,-998,7,88,70,0,-140,,,,,,,0x03,
5011,-999,4,88,70,70,-210,,,,,,,0x03,
5021,-998,3,86,0,70,0,,,,,,,0x03,
5030,-1000,5,86,-140,-140,70,,,,,,,0x03,
5040,-999,5,87,-70,-420,70,,,,,,,0x03,
5050,-998,5,87,280,-630,70,,,,,,,0x03,
5059,-998,6,86,420,-840,70,,,,,,,0x03,
5069,-998,7,84,350,-840,70,,,,,,,0x03,
5079,-998,8,84,140,-980,70,,,,,,,0x03,
5088,-999,9,87,0,-1260,0,,,,,,,0x03,
5098,-997,10,88,280,-1120,-210,,,,,,,0x03,
5108,-996,11,88,490,-980,-490,,,,,,,0x03,
5117,-998,7,87,630,-840,-770,,,,,,,0x03,
5127,-999,7,86,490,-910,-700,,,,,,,0x03,
5137,-998,8,88,490,-1120,-630,,,,,,,0x03,
5147,-999,5,90,630,-1050,-630,,,,,,,0x03,
5156,-998,6,91,630,-700,-490,,,,,,,0x03,
5166,-998,5,90,350,-420,-490,,,,,,,0x03,
5176,-999,3,89,-70,-280,-420,,,,,,,0x03,
5185,-998,6,90,-140,-350,-350,,,,,,,0x03,
5195,-997,8,89,70,-350,-280,,,,,,,0x03,
5205,-998,7,91,140,-210,-420,,,,,,,0x03,
5214,-998,5,91,210,70,-560,,,,,,,0x03,
5224,-998,6,88,140,140,-420,,,,,,,0x03,
5234,-998,5,88,70,210,-420,,,,,,,0x03,
5243,-998,5,89,-140,280,-490,,,,,,,0x03,
5253,-999,7,90,-140,420,-490,,,,,,,0x03,
5263,-997,8,88,-70,490,-420,,,,,,,0x03,
5272,-998,8,86,-210,490,-560,,,,,,,0x03,
5282,-1000,7,84,-210,490,-630,,,,,,,0x03,
5292,-999,5,83,-280,210,-560,,,,,,,0x03,
5301,-1000,6,83,-210,-70,-350,,,,,,,0x03,
5311,-999,6,84,0,-210,-350,,,,,,,0x03,
5321,-999,7,85,0,-420,-350,,,,,,,0x03,
5330,-998,7,86,140,-350,-490,,,,,,,0x03,
5340,-999,7,88,210,-280,-630,,,,,,,0x03,
5350,-997,6,85,140,-210,-560,,,,,,,0x03,
5359,-1000,4,83,70,-280,-700,,,,,,,0x03,
5369,-1000,3,86,0,-630,-700,,,,,,,0x03,
5379,-998,4,84,0,-840,-490,,,,,,,0x03,
5388,-998,5,85,-70,-980,-350,,,,,,,0x03,
5398,-998,5,87,70,-910,-350,,,,,,,0x03,
5408,-999,4,85,210,-910,-350,,,,,,,0x03,
5417,-998,5,85,210,-1120,-280,,,,,,,0x03,
5427,-996,6,88,280,-1190,-210,,,,,,,0x03,
5437,-997,9,91,350,-1050,-280,,,,,,,0x03,
5446,-998,7,91,350,-630,-420,,,,,,,0x03,
5456,-997,6,90,350,-280,-490,,,,,,,0x03,
5466,-997,6,89,70,-140,-560,,,,,,,0x03,
5475,-999,5,90,-70,-70,-770,,,,,,,0x03,
5485,-998,3,89,-280,0,-980,,,,,,,0x03,
5495,-998,3,89,-350,70,-910,,,,,,,0x03,
5504,-998,5,91,-350,280,-770,,,,,,,0x03,
5514,-998,6,90,-280,560,-910,,,,,,,0x03,
5524,-998,5,90,350,560,-1330,,,,,,,0x03,
5533,-1000,4,91,420,560,-1190,,,,,,,0x03,
5543,-996,4,90,70,1260,-1050,,,,,,,0x03,
5553,-1000,0,88,-280,1540,-1050,,,,,,,0x03,
5562,-1000,1,88,-490,1610,-1050,,,,,,,0x03,
5572,-1000,2,86,-770,1610,-910,,,,,,,0x03,
5582,-1000,1,83,-840,1260,-910,,,,,,,0x03,
5591,-999,3,81,-840,1120,-700,,,,,,,0x03,
5601,-998,5,82,-980,1120,-630,,,,,,,0x03,
5611,-1000,6,82,-910,1190,-770,,,,,,,0x03,
5621,-999,6,84,-560,1330,-770,,,,,,,0x03,
5630,-999,5,80,-490,1260,-770,,,,,,,0x03,
5640,-1001,5,80,-630,1260,-980,,,,,,,0x03,
5650,-998,7,78,-980,1190,-1190,,,,,,,0x03,
5659,-999,6,76,-1260,1400,-1400,,,,,,,0x03,
5669,-1000,5,75,-1260,1470,-1400,,,,,,,0x03,
5679,-1001,2,73,-1120,1050,-1260,,,,,,,0x03,
5688,-1000,0,74,-1050,560,-980,,,,,,,0x03,
5698,-999,1,77,-840,210,-630,,,,,,,0x03,
5708,-1000,2,78,-490,140,-420,,,,,,,0x03,
5717,-999,4,79,-280,280,-350,,,,,,,0x03,
5727,-998,5,80,-210,420,-490,,,,,,,0x03,
5737,-1000,4,80,-70,560,-700,,,,,,,0x03,
5746,-998,5,81,-70,560,-770,,,,,,,0x03,
5756,-998,2,83,-70,840,-910,,,,,,,0x03,
5766,-998,1,81,0,1120,-980,,,,,,,0x03,
5775,-1000,-1,80,-140,1190,-980,,,,,,,0x03,
5785,-1000,-1,82,-140,1330,-630,,,,,,,0x03,
5795,-998,2,82,-70,1540,-420,,,,,,,0x03,
5804,-999,3,83,0,1960,-490,,,,,,,0x03,
5814,-998,4,84,70,2520,-560,,,,,,,0x03,
5824,-997,5,82,70,3150,-630,,,,,,,0x03,
5833,-997,8,85,70,4060,-980,,,,,,,0x03,
5843,-996,11,84,280,4970,-1610,,,,,,,0x03,
5853,-998,5,88,840,6090,-2030,,,,,,,0x03,
5862,-996,12,81,910,7350,-2380,,,,,,,0x03,
5872,-998,8,85,1260,8190,-3010,,,,,,,0x03,
5882,-997,6,84,2240,9100,-3220,,,,,,,0x03,
5891,-997,4,78,3640,9940,-3640,,,,,,,0x03,
5901,-999,-4,69,4830,10220,-4130,,,,,,,0x03,
5911,-1006,-13,53,4970,9450,-4690,,,,,,,0x03,
5920,-1007,-18,49,4200,7910,-4270,,,,,,,0x03,
5930,-1008,-8,35,3500,5950,-3360,,,,,,,0x03,
5940,-1001,-4,43,2870,3360,-2730,,,,,,,0x03,
5949,-1004,-5,44,2660,2240,-2520,,,,,,,0x03,
5959,-1004,-4,42,2450,1680,-2310,,,,,,,0x03,
5969,-1002,-6,45,2030,1400,-1820,,,,,,,0x03,
5978,-1002,-4,47,1610,1050,-1330,,,,,,,0x03,
5988,-1001,-1,51,1400,770,-1050,,,,,,,0x03,
5998,-999,0,56,1400,700,-1190,,,,,,,0x03,
6007,-1001,0,59,1120,1120,-1540,,,,,,,0x03,
6017,-1000,-2,61,700,1610,-1680,,,,,,,0x03,
6027,-999,-2,62,350,2100,-1680,,,,,,,0x03,
6036,-1000,-3,62,140,2450,-1820,,,,,,,0x03,
6046,-1000,-4,63,-210,2940,-1890,,,,,,,0x03,
6056,-1001,-7,62,-560,3640,-1960,,,,,,,0x03,
6066,-1002,-9,64,-910,4410,-1750,,,,,,,0x03,
6075,-1000,-8,64,-1190,5460,-1470,,,,,,,0x03,
6085,-1000,-8,65,-1400,6510,-1260,,,,,,,0x03,
6095,-999,-6,61,-1470,7490,-1120,,,,,,,0x03,
6104,-999,-6,55,-1540,8400,-1190,,,,,,,0x03,
6114,-1001,-6,52,-1610,8680,-1400,,,,,,,0x03,
6124,-1001,-4,48,-1750,8890,-1680,,,,,,,0x03,
6133,-999,-2,44,-1470,8680,-1890,,,,,,,0x03,
6143,-1001,-6,40,-1190,8330,-2170,,,,,,,0x03,
6153,-1005,-10,40,-980,7980,-2310,,,,,,,0x03,
6162,-1002,-14,42,-420,8120,-1960,,,,,,,0x03,
6172,-1004,-10,21,70,7840,-1260,,,,,,,0x03,
6182,-1004,-15,20,0,6300,-840,,,,,,,0x03,
6191,-1007,-17,20,-350,4970,-700,,,,,,,0x03,
6201,-1004,-13,22,-70,3430,0,,,,,,,0x03,
6211,-1004,-11,28,560,2520,630,,,,,,,0x03,
6220,-1004,-10,32,980,2520,910,,,,,,,0x03,
6230,-1002,-8,31,1190,3080,1260,,,,,,,0x03,
6240,-1001,-7,33,1260,3360,1470,,,,,,,0x03,
6249,-1001,-10,35,1470,3640,1400,,,,,,,0x03,
6259,-1003,-3,27,1680,3500,1400,,,,,,,0x03,
6269,-1002,-5,37,1330,3220,1610,,,,,,,0x03,
6278,-1003,-7,38,1540,3430,1400,,,,,,,0x03,
6288,-1003,-7,37,1680,4060,1540,,,,,,,0x03,
6298,-1002,-9,34,1680,4550,1820,,,,,,,0x03,
6307,-1001,-7,31,1750,4690,2030,,,,,,,0x03,
6317,-1002,-5,27,1820,4480,1750,,,,,,,0x03,
6327,-1004,-3,24,1960,4130,1330,,,,,,,0x03,
6336,-1003,-2,25,1960,3780,1190,,,,,,,0x03,
6346,-1004,-2,26,2170,3780,1330,,,,,,,0x03,
6356,-1002,-1,22,1890,4130,1400,,,,,,,0x03,
6365,-1002,-3,21,1470,4200,1470,,,,,,,0x03,
6375,-1004,-3,21,1190,4410,1680,,,,,,,0x03,
6385,-1004,-3,20,1050,4340,2030,,,,,,,0x03,
6394,-1003,-3,19,1260,4130,2310,,,,,,,0x03,
6404,-1004,-4,17,1050,4060,2380,,,,,,,0x03,
6414,-1002,-2,14,700,4270,2310,,,,,,,0x03,
6423,-1005,-3,11,560,4200,2310,,,,,,,0x03,
6433,-1003,0,8,1050,3290,2030,,,,,,,0x03,
6443,-1005,2,7,840,2800,2380,,,,,,,0x03,
6452,-998,10,8,840,2660,2030,,,,,,,0x03,
6462,-1001,8,10,1050,2590,1470,,,,,,,0x03,
6472,-1006,4,10,1260,3010,840,,,,,,,0x03,
6481,-1004,0,9,1120,3150,1120,,,,,,,0x03,
6491,-1001,3,10,1470,3080,1540,,,,,,,0x03,
6501,-1001,6,13,1890,3150,1610,,,,,,,0x03,
6511,-1000,5,19,2240,3500,1260,,,,,,,0x03,
6520,-1000,6,20,2730,4130,1050,,,,,,,0x03,
6530,-1001,7,27,3360,4690,910,,,,,,,0x03,
6540,-1000,7,31,4200,5880,700,,,,,,,0x03,
6549,-997,9,29,4900,7140,420,,,,,,,0x03,
6559,-999,7,21,5320,7840,-350,,,,,,,0x03,
6569,-1002,6,15,5460,7840,-1120,,,,,,,0x03,
6578,-1001,7,6,5250,7140,-1750,,,,,,,0x03,
6588,-1003,5,-1,5250,5600,-2240,,,,,,,0x03,
6598,-1006,-1,-6,4900,3990,-2520,,,,,,,0x03,
6607,-1006,-4,-4,4690,2450,-2660,,,,,,,0x03,
6617,-1005,-2,-1,4270,1610,-1960,,,,,,,0x03,
6627,-1000,1,-1,3710,1820,-1470,,,,,,,0x03,
6636,-998,8,-2,3220,2660,-1470,,,,,,,0x03,
6646,-998,8,-3,2380,3430,-2240,,,,,,,0x03,
6656,-1000,7,-4,1540,4340,-3570,,,,,,,0x03,
6665,-1001,4,-2,770,5320,-4550,,,,,,,0x03,
6675,-1003,2,0,350,6440,-4760,,,,,,,0x03,
6685,-1000,0,-4,-210,7490,-4690,,,,,,,0x03,
6694,-999,-1,-8,-980,7980,-5110,,,,,,,0x03,
6704,-998,0,-11,-2100,8820,-5950,,,,,,,0x03,
6714,-997,4,-12,-3150,9240,-7140,,,,,,,0x03,
6723,-999,6,-8,-3640,9520,-8400,,,,,,,0x03,
6733,-1000,8,-6,-3990,10220,-9450,,,,,,,0x03,
6743,-998,8,-1,-4550,11480,-10500,,,,,,,0x03,
6752,-993,11,-6,-5390,13510,-11900,,,,,,,0x03,
6762,-993,9,-6,-6580,15470,-14000,,,,,,,0x03,
6772,-995,4,-7,-7700,17640,-16380,,,,,,,0x03,
6781,-996,0,-9,-8960,20020,-18410,,,,,,,0x03,
6791,-998,-8,-15,-9450,21910,-19460,,,,,,,0x03,
6801,-1000,-20,-16,-9450,23450,-19880,,,,,,,0x03,
6810,-999,-29,-35,-9520,24640,-19740,,,,,,,0x03,
6820,-1001,-37,-50,-9380,24500,-19670,,,,,,,0x03,
6830,-1003,-47,-53,-9380,23520,-19530,,,,,,,0x03,
6839,-1006,-55,-57,-9100,22680,-18830,,,,,,,0x03,
6849,-1004,-60,-64,-8610,21980,-17150,,,,,,,0x03,
6859,-1002,-63,-69,-7910,21140,-15120,,,,,,,0x03,
6868,-1005,-72,-75,-7000,20370,-13300,,,,,,,0x03,
6878,-1010,-83,-80,-5740,18970,-10780,,,,,,,0x03,
6888,-1010,-90,-82,-4410,17570,-7420,,,,,,,0x03,
6897,-1008,-83,-99,-3010,16520,-3990,,,,,,,0x03,
6907,-1005,-91,-100,-2310,13720,-980,,,,,,,0x03,
6917,-1007,-85,-104,-1540,11270,1260,,,,,,,0x03,
6926,-1009,-81,-111,-700,7980,3710,,,,,,,0x03,
6936,-1010,-70,-107,350,4130,5530,,,,,,,0x03,
6946,-1007,-62,-105,1120,1050,7070,,,,,,,0x03,
6956,-997,-49,-103,1680,-1330,7700,,,,,,,0x03,
6965,-998,-43,-93,1820,-3010,7840,,,,,,,0x03,
6975,-1000,-39,-86,1470,-3640,7980,,,,,,,0x03,
6985,-995,-29,-81,1190,-3640,7770,,,,,,,0x03,
6994,-995,-26,-74,1260,-3430,7000,,,,,,,0x03,
7004,-998,-26,-71,980,-3010,5810,,,,,,,0x03,
7014,-998,-28,-66,560,-1890,4690,,,,,,,0x03,
7023,-997,-31,-63,210,-770,4340,,,,,,,0x03,
7033,-994,-30,-65,140,420,4130,,,,,,,0x03,
7043,-995,-32,-69,0,1540,3430,,,,,,,0x03,
7052,-1001,-40,-69,-280,2310,2730,,,,,,,0x03,
7062,-1001,-43,-72,-490,3080,3150,,,,,,,0x03,
7072,-998,-38,-78,-420,3290,3780,,,,,,,0x03,
7081,-1000,-37,-74,-280,3640,3710,,,,,,,0x03,
7091,-999,-34,-77,-210,4270,3500,,,,,,,0x03,
7101,-999,-33,-79,-280,4410,3500,,,,,,,0x03,
7110,-999,-32,-79,-350,4480,3570,,,,,,,0x03,
7120,-998,-28,-86,-700,4410,3430,,,,,,,0x03,
7130,-998,-27,-87,-770,3990,3010,,,,,,,0x03,
7139,-998,-26,-91,-560,3500,2730,,,,,,,0x03,
7149,-1000,-27,-91,-420,3080,2380,,,,,,,0x03,
7159,-998,-25,-95,-420,2730,2380,,,,,,,0x03,
7168,-996,-25,-95,-420,2240,2100,,,,,,,0x03,
7178,-1001,-27,-90,-140,1890,1680,,,,,,,0x03,
7188,-999,-27,-92,0,1750,1470,,,,,,,0x03,
7197,-996,-25,-93,140,1260,1400,,,,,,,0x03,
7207,-999,-24,-89,210,770,910,,,,,,,0x03,
7217,-1000,-25,-89,280,770,630,,,,,,,0x03,
7226,-998,-24,-90,420,630,630,,,,,,,0x03,
7236,-997,-25,-92,420,490,420,,,,,,,0x03,
7246,-998,-26,-92,350,350,-210,,,,,,,0x03,
7255,-1000,-29,-93,420,-210,-630,,,,,,,0x03,
7265,-1001,-31,-92,560,-700,-280,,,,,,,0x03,
7275,-1001,-31,-93,910,-980,210,,,,,,,0x03,
7284,-1001,-33,-89,980,-1050,350,,,,,,,0x03,
7294,-1001,-34,-90,910,-560,560,,,,,,,0x03,
7304,-998,-29,-93,770,-630,1120,,,,,,,0x03,
7313,-997,-26,-92,770,-980,1190,,,,,,,0x03,
7323,-997,-23,-89,840,-1260,910,,,,,,,0x03,
7333,-998,-22,-87,910,-1400,560,,,,,,,0x03,
7342,-998,-22,-88,1120,-1400,280,,,,,,,0x03,
7352,-997,-23,-86,1120,-1260,0,,,,,,,0x03,
7362,-999,-26,-87,910,-840,-140,,,,,,,0x03,
7371,-998,-26,-91,630,-700,-140,,,,,,,0x03,
7381,-999,-27,-89,490,-910,70,,,,,,,0x03,
7391,-998,-24,-89,560,-840,140,,,,,,,0x03,
7401,-998,-24,-91,560,-910,-280,,,,,,,0x03,
7410,-1000,-27,-87,700,-980,-560,,,,,,,0x03,
7420,-1001,-28,-91,630,-1050,-210,,,,,,,0x03,
7430,-998,-26,-89,420,-1400,0,,,,,,,0x03,
7439,-997,-24,-89,420,-1610,-140,,,,,,,0x03,
7449,-998,-23,-88,350,-1820,-350,,,,,,,0x03,
7459,-1000,-24,-88,210,-1750,-490,,,,,,,0x03,
7468,-998,-21,-86,140,-1400,-630,,,,,,,0x03,
7478,-999,-24,-84,280,-1260,-910,,,,,,,0x03,
7488,-1001,-30,-84,490,-1050,-840,,,,,,,0x03,
7497,-1000,-31,-85,210,-980,-280,,,,,,,0x03,
7507,-998,-29,-85,70,-840,70,,,,,,,0x03,
7517,-997,-25,-86,-70,-840,0,,,,,,,0x03,
7526,-998,-23,-86,0,-910,-210,,,,,,,0x03,
7536,-999,-26,-85,210,-910,-350,,,,,,,0x03,
7546,-999,-28,-86,210,-700,-350,,,,,,,0x03,
7555,-999,-29,-91,210,-490,-210,,,,,,,0x03,
7565,-1000,-29,-91,-70,-630,-210,,,,,,,0x03,
7575,-1001,-27,-89,-70,-1050,-70,,,,,,,0x03,
7584,-998,-23,-91,70,-1400,140,,,,,,,0x03,
7594,-997,-21,-91,210,-1750,70,,,,,,,0x03,
7604,-998,-23,-91,350,-1750,-280,,,,,,,0x03,
7613,-1000,-27,-88,210,-1890,-350,,,,,,,0x03,
7623,-1002,-30,-87,350,-2030,0,,,,,,,0x03,
7633,-998,-26,-87,560,-2030,420,,,,,,,0x03,
7642,-999,-28,-87,700,-1960,560,,,,,,,0x03,
7652,-1001,-31,-88,630,-1960,770,,,,,,,0x03,
7662,-1000,-27,-89,560,-2240,1120,,,,,,,0x03,
7671,-997,-24,-83,490,-2380,1120,,,,,,,0x03,
7681,-998,-24,-78,560,-2310,910,,,,,,,0x03,
7691,-1001,-24,-78,770,-2030,980,,,,,,,0x03,
7700,-999,-24,-80,770,-1540,980,,,,,,,0x03,
7710,-997,-22,-84,630,-1330,910,,,,,,,0x03,
7720,-999,-22,-86,490,-1330,560,,,,,,,0x03,
7729,-1000,-23,-86,350,-1470,350,,,,,,,0x03,
7739,-1000,-24,-85,280,-1610,420,,,,,,,0x03,
7749,-998,-22,-83,420,-1680,490,,,,,,,0x03,
7758,-999,-22,-84,420,-1470,420,,,,,,,0x03,
7768,-1000,-24,-85,350,-1400,280,,,,,,,0x03,
7778,-1003,-24,-83,210,-1400,560,,,,,,,0x03,
7787,-999,-24,-84,140,-1330,980,,,,,,,0x03,
7797,-998,-22,-82,140,-1260,1190,,,,,,,0x03,
7807,-997,-20,-81,70,-1190,1050,,,,,,,0x03,
7816,-998,-19,-81,0,-840,770,,,,,,,0x03,
7826,-1000,-21,-78,-140,-420,420,,,,,,,0x03,
7836,-998,-21,-81,-70,-140,490,,,,,,,0x03,
7846,-997,-20,-82,-70,-70,350,,,,,,,0x03,
7855,-998,-23,-85,-210,-70,0,,,,,,,0x03,
7865,-1000,-25,-85,-350,-280,-140,,,,,,,0x03,
7875,-1000,-22,-87,-280,-560,210,,,,,,,0x03,
7884,-999,-20,-87,-140,-840,280,,,,,,,0x03,
7894,-1000,-21,-84,0,-980,70,,,,,,,0x03,
7904,-1001,-22,-84,0,-840,140,,,,,,,0x03,
7913,-1000,-23,-86,0,-770,350,,,,,,,0x03,
7923,-1000,-22,-85,0,-770,490,,,,,,,0x03,
7933,-998,-19,-84,140,-770,490,,,,,,,0x03,
7942,-998,-19,-85,280,-1050,210,,,,,,,0x03,
7952,-1001,-20,-82,350,-1190,70,,,,,,,0x03,
7962,-999,-20,-83,420,-1050,140,,,,,,,0x03,
7971,-998,-18,-85,280,-980,140,,,,,,,0x03,
7981,-1000,-18,-84,350,-980,-140,,,,,,,0x03,
7991,-999,-19,-85,420,-980,-140,,,,,,,0x03,
8000,-998,-20,-84,490,-980,-70,,,,,,,0x03,
8010,-1000,-21,-84,420,-980,0,,,,,,,0x03,
8020,-999,-21,-84,210,-910,140,,,,,,,0x03,
8029,-1000,-20,-84,210,-980,350,,,,,,,0x03,
8039,-998,-21,-83,140,-1260,350,,,,,,,0x03,
8049,-1000,-23,-82,210,-1330,350,,,,,,,0x03,
8058,-999,-23,-80,70,-1190,770,,,,,,,0x03,
8068,-998,-20,-80,70,-1050,1050,,,,,,,0x03,
8078,-998,-18,-80,210,-770,840,,,,,,,0x03,
8087,-998,-18,-79,210,-770,630,,,,,,,0x03,
8097,-999,-17,-81,420,-840,630,,,,,,,0x03,
8107,-998,-17,-80,350,-840,490,,,,,,,0x03,
8116,-999,-17,-82,-70,-630,140,,,,,,,0x03,
8126,-1000,-16,-78,-140,-560,-140,,,,,,,0x03,
8136,-1000,-16,-79,0,-420,-210,,,,,,,0x03,
8145,-1000,-19,-81,210,-70,-280,,,,,,,0x03,
8155,-999,-18,-83,210,70,-140,,,,,,,0x03,
8165,-999,-17,-85,70,210,-70,,,,,,,0x03,
8174,-998,-19,-86,70,210,-210,,,,,,,0x03,
8184,-1000,-20,-86,0,0,-210,,,,,,,0x03,
8194,-999,-20,-86,280,-420,-70,,,,,,,0x03,
8203,-1001,-21,-85,420,-700,0,,,,,,,0x03,
8213,-1002,-22,-85,420,-630,140,,,,,,,0x03,
8223,-999,-22,-86,140,-770,420,,,,,,,0x03,
8232,-1000,-21,-82,-70,-1050,630,,,,,,,0x03,
8242,-999,-18,-80,-70,-1050,770,,,,,,,0x03,
8252,-999,-16,-79,-210,-1050,700,,,,,,,0x03,
8261,-1000,-16,-77,-140,-840,630,,,,,,,0x03,
8271,-998,-15,-80,-70,-350,560,,,,,,,0x03,
8281,-998,-14,-81,-70,-70,350,,,,,,,0x03,
8291,-997,-12,-83,0,140,-70,,,,,,,0x03,
8300,-999,-13,-87,0,140,-490,,,,,,,0x03,
8310,-1001,-18,-88,0,-70,-700,,,,,,,0x03,
8320,-1001,-20,-87,-140,-280,-560,,,,,,,0x03,
8329,-999,-17,-89,-140,-560,-210,,,,,,,0x03,
8339,-998,-16,-87,-70,-840,-210,,,,,,,0x03,
8349,-1000,-17,-83,0,-980,-280,,,,,,,0x03,
8358,-1000,-18,-84,70,-980,70,,,,,,,0x03,
8368,-999,-16,-84,-70,-910,350,,,,,,,0x03,
8378,-998,-18,-81,-210,-840,140,,,,,,,0x03,
8387,-1001,-20,-79,-210,-630,0,,,,,,,0x03,
8397,-1000,-20,-81,-210,-490,210,,,,,,,0x03,
8407,-1000,-19,-82,-280,-560,420,,,,,,,0x03,
8416,-999,-17,-81,-420,-630,420,,,,,,,0x03,
8426,-999,-17,-82,-350,-560,420,,,,,,,0x03,
8436,-999,-17,-85,-140,-560,490,,,,,,,0x03,
8445,-997,-13,-85,-210,-560,420,,,,,,,0x03,
8455,-999,-11,-84,-140,-490,0,,,,,,,0x03,
8465,-1001,-13,-84,0,-350,-280,,,,,,,0x03,
8474,-998,-14,-86,70,-280,-210,,,,,,,0x03,
8484,-999,-13,-87,-70,-210,-210,,,,,,,0x03,
8494,-1001,-17,-87,-210,-210,-210,,,,,,,0x03,
8503,-999,-17,-90,-70,-350,0,,,,,,,0x03,
8513,-1001,-19,-88,-280,-700,280,,,,,,,0x03,
8523,-1001,-19,-86,-280,-910,560,,,,,,,0x03,
8532,-999,-15,-82,-140,-910,840,,,,,,,0x03,
8542,-998,-13,-79,70,-770,840,,,,,,,0x03,
8552,-999,-12,-80,210,-420,630,,,,,,,0x03,
8561,-1000,-14,-78,210,-140,490,,,,,,,0x03,
8571,-999,-16,-78,280,140,210,,,,,,,0x03,
8581,-999,-19,-78,280,350,210,,,,,,,0x03,
8590,-1001,-22,-78,420,700,350,,,,,,,0x03,
8600,-1001,-27,-78,490,1120,1120,,,,,,,0x03,
8610,-1003,-25,-83,630,1260,2380,,,,,,,0x03,
8619,-999,-19,-84,700,1050,3290,,,,,,,0x03,
8629,-998,-12,-89,210,1330,3640,,,,,,,0x03,
8639,-999,-5,-92,70,1470,3780,,,,,,,0x03,
8648,-999,0,-98,-350,1400,3710,,,,,,,0x03,
8658,-997,5,-100,-840,1190,3220,,,,,,,0x03,
8668,-998,9,-99,-560,630,2380,,,,,,,0x03,
8677,-997,7,-102,-140,-210,1470,,,,,,,0x03,
8687,-997,2,-102,210,-1050,630,,,,,,,0x03,
8697,-997,-4,-97,490,-1820,-70,,,,,,,0x03,
8706,-998,-9,-94,700,-2450,-560,,,,,,,0x03,
8716,-998,-12,-89,980,-2940,-910,,,,,,,0x03,
8726,-999,-19,-82,1120,-3150,-1260,,,,,,,0x03,
8736,-999,-22,-78,1330,-3080,-1610,,,,,,,0x03,
8745,-998,-23,-76,1540,-3010,-1820,,,,,,,0x03,
8755,-1000,-25,-74,1750,-3080,-1750,,,,,,,0x03,
8765,-1001,-25,-73,1960,-2940,-1330,,,,,,,0x03,
8774,-1002,-22,-75,2030,-2800,-630,,,,,,,0x03,
8784,-1001,-19,-79,2450,-2940,280,,,,,,,0x03,
8794,-999,-18,-81,2100,-2940,420,,,,,,,0x03,
8803,-1000,-14,-84,1540,-2590,280,,,,,,,0x03,
8813,-1001,-12,-82,1260,-2450,560,,,,,,,0x03,
8823,-1001,-9,-80,980,-2450,1120,,,,,,,0x03,
8832,-1000,-8,-81,840,-2310,1540,,,,,,,0x03,
8842,-1001,-8,-79,560,-2170,2100,,,,,,,0x03,
8852,-1000,-5,-79,210,-2100,2660,,,,,,,0x03,
8861,-995,0,-76,-630,-1540,2660,,,,,,,0x03,
8871,-998,1,-75,-1330,-560,1960,,,,,,,0x03,
8881,-999,3,-72,-1540,-70,1330,,,,,,,0x03,
8890,-996,3,-74,-1890,630,1120,,,,,,,0x03,
8900,-998,1,-77,-2310,1190,700,,,,,,,0x03,
8910,-999,0,-78,-2590,1540,280,,,,,,,0x03,
8919,-1000,-2,-83,-2800,1750,140,,,,,,,0x03,
8929,-998,-4,-88,-3010,1750,0,,,,,,,0x03,
8939,-1001,-7,-88,-3220,1540,-280,,,,,,,0x03,
8948,-1001,-8,-89,-3010,1260,-210,,,,,,,0x03,
8958,-998,-7,-88,-2660,840,-210,,,,,,,0x03,
8968,-1000,-8,-91,-2310,770,-490,,,,,,,0x03,
8977,-1000,-9,-91,-1890,490,-770,,,,,,,0x03,
8987,-1002,-12,-90,-1470,0,-910,,,,,,,0x03,
8997,-1001,-14,-93,-700,-490,-630,,,,,,,0x03,
9006,-999,-13,-93,-420,-1050,-350,,,,,,,0x03,
9016,-999,-12,-93,-350,-1610,-280,,,,,,,0x03,
9026,-998,-7,-92,-140,-2100,-210,,,,,,,0x03,
9035,-999,-5,-88,140,-2590,-350,,,,,,,0x03,
9045,-998,-4,-85,490,-2800,-630,,,,,,,0x03,
9055,-999,-4,-83,560,-2800,-840,,,,,,,0x03,
9064,-998,-3,-81,630,-2730,-840,,,,,,,0x03,
9074,-1002,-6,-81,1190,-2590,-700,,,,,,,0x03,
9084,-999,-8,-82,1540,-2800,-350,,,,,,,0x03,
9093,-1000,-9,-84,1470,-2730,-420,,,,,,,0x03,
9103,-999,-7,-82,1260,-2800,-490,,,,,,,0x03,
9113,-999,-6,-78,1120,-2660,-350,,,,,,,0x03,
9122,-999,-5,-77,910,-2240,-420,,,,,,,0x03,
9132,-1000,-3,-76,490,-1750,-560,,,,,,,0x03,
9142,-997,-2,-77,420,-1400,-560,,,,,,,0x03,
9151,-999,-2,-74,210,-1190,-560,,,,,,,0x03,
9161,-999,-4,-75,-70,-770,-700,,,,,,,0x03,
9171,-1000,-4,-76,-210,-280,-700,,,,,,,0x03,
9181,-999,-5,-77,-280,70,-700,,,,,,,0x03,
9190,-999,-7,-79,-280,490,-770,,,,,,,0x03,
9200,-1001,-9,-82,-280,630,-770,,,,,,,0x03,
9210,-1000,-12,-84,-350,560,-630,,,,,,,0x03,
9219,-1001,-10,-86,-560,490,-210,,,,,,,0x03,
9229,-1000,-10,-84,-700,210,140,,,,,,,0x03,
9239,-1000,-7,-81,-420,70,280,,,,,,,0x03,
9248,-1000,-8,-81,-210,0,210,,,,,,,0x03,
9258,-1000,-8,-82,-70,210,140,,,,,,,0x03,
9268,-999,-7,-82,-280,350,210,,,,,,,0x03,
9277,-998,-6,-82,-350,350,210,,,,,,,0x03,
9287,-999,-4,-84,-420,280,140,,,,,,,0x03,
9297,-999,-5,-84,-420,70,-70,,,,,,,0x03,
9306,-1000,-6,-86,-210,-140,-140,,,,,,,0x03,
9316,-999,-7,-86,-70,-350,0,,,,,,,0x03,
9326,-999,-6,-87,0,-490,0,,,,,,,0x03,
9335,-999,-7,-86,0,-770,-70,,,,,,,0x03,
9345,-1000,-8,-82,-140,-910,-140,,,,,,,0x03,
9355,-999,-8,-81,-140,-770,-70,,,,,,,0x03,
9364,-999,-7,-81,-70,-840,70,,,,,,,0x03,
9374,-999,-7,-82,-70,-840,0,,,,,,,0x03,
9384,-999,-5,-82,-210,-630,-140,,,,,,,0x03,
9393,-999,-6,-81,-280,-700,-140,,,,,,,0x03,
9403,-998,-7,-78,-280,-630,-140,,,,,,,0x03,
9413,-999,-6,-78,-350,-350,-70,,,,,,,0x03,
9422,-999,-4,-80,-280,-140,-70,,,,,,,0x03,
9432,-998,-4,-81,-350,-70,-210,,,,,,,0x03,
9442,-999,-5,-83,-490,0,-490,,,,,,,0x03,
9451,-1000,-7,-85,-420,0,-560,,,,,,,0x03,
9461,-999,-8,-85,-350,-350,-280,,,,,,,0x03,
9471,-999,-8,-86,-70,-700,-140,,,,,,,0x03,
9480,-999,-8,-87,140,-1050,-70,,,,,,,0x03,
9490,-999,-8,-86,140,-1260,0,,,,,,,0x03,
9500,-1000,-8,-82,140,-1470,70,,,,,,,0x03,
9509,-1000,-8,-81,420,-1610,490,,,,,,,0x03,
9519,-1002,-8,-82,910,-1680,910,,,,,,,0x03,
9529,-1001,-14,-86,1260,-1960,1400,,,,,,,0x03,
9538,-1001,-14,-89,1540,-2450,1960,,,,,,,0x03,
9548,-1000,-15,-91,1890,-3150,2520,,,,,,,0x03,
9558,-1006,-13,-94,2520,-3990,3220,,,,,,,0x03,
9567,-997,-8,-89,2520,-4900,3920,,,,,,,0x03,
9577,-998,-1,-85,2800,-5180,3780,,,,,,,0x03,
9587,-999,1,-80,3290,-5320,3570,,,,,,,0x03,
9596,-998,1,-78,3640,-5460,3360,,,,,,,0x03,
9606,-1002,-2,-74,3570,-5250,3360,,,,,,,0x03,
9616,-1000,0,-73,3360,-4760,3710,,,,,,,0x03,
9626,-998,2,-74,3010,-4690,3920,,,,,,,0x03,
9635,-1000,1,-73,2870,-4550,3780,,,,,,,0x03,
9645,-1001,2,-71,2730,-4620,3640,,,,,,,0x03,
9655,-1000,5,-73,2660,-4550,3500,,,,,,,0x03,
9664,-997,8,-67,2520,-4200,2940,,,,,,,0x03,
9674,-999,10,-67,2310,-3570,2310,,,,,,,0x03,
9684,-999,9,-67,2030,-3010,1890,,,,,,,0x03,
9693,-999,9,-67,1540,-2520,1610,,,,,,,0x03,
9703,-998,10,-68,1190,-2310,1330,,,,,,,0x03,
9713,-1001,8,-69,980,-2100,910,,,,,,,0x03,
9722,-999,5,-71,560,-1960,700,,,,,,,0x03,
9732,-998,6,-72,210,-1540,420,,,,,,,0x03,
9742,-999,9,-70,140,-1400,140,,,,,,,0x03,
9751,-1001,8,-70,280,-1260,-210,,,,,,,0x03,
9761,-998,6,-71,490,-1190,-350,,,,,,,0x03,
9771,-1000,6,-73,560,-1330,-420,,,,,,,0x03,
9780,-1000,8,-71,700,-1610,-700,,,,,,,0x03,
9790,-1000,6,-72,770,-1820,-1050,,,,,,,0x03,
9800,-1003,0,-71,700,-1890,-1050,,,,,,,0x03,
9809,-1004,-2,-71,420,-1750,-560,,,,,,,0x03,
9819,-1004,-4,-68,70,-1680,70,,,,,,,0x03,
9829,-1004,-3,-67,0,-1330,700,,,,,,,0x03,
9838,-999,1,-68,70,-1330,1120,,,,,,,0x03,
9848,-998,3,-66,350,-1330,1190,,,,,,,0x03,
9858,-1002,4,-66,420,-1120,910,,,,,,,0x03,
9867,-1001,3,-67,420,-980,980,,,,,,,0x03,
9877,-1000,6,-71,560,-980,1260,,,,,,,0x03,
9887,-1000,3,-72,560,-1260,1610,,,,,,,0x03,
9896,-1000,3,-71,700,-1820,1820,,,,,,,0x03,
9906,-1001,2,-71,560,-1820,1960,,,,,,,0x03,
9916,-1003,1,-72,770,-2100,2520,,,,,,,0x03,
9925,-1005,-1,-74,1050,-2800,3500,,,,,,,0x03,
9935,-1005,-1,-75,1260,-3710,4760,,,,,,,0x03,
9945,-1001,0,-76,1540,-4550,5740,,,,,,,0x03,
9954,-1001,4,-70,1610,-5250,6440,,,,,,,0x03,
9964,-1002,11,-67,1820,-5600,6860,,,,,,,0x03,
9974,-1000,14,-64,1960,-5600,6930,,,,,,,0x03,
9983,-997,19,-62,2030,-5460,6720,,,,,,,0x03,
9993,-997,24,-60,2170,-5180,6090,,,,,,,0x03,
10003,-994,28,-58,1680,-4480,5250,,,,,,,0x03,
10012,-997,28,-56,1190,-3570,4130,,,,,,,0x03,
10022,-997,28,-54,1120,-2870,3430,,,,,,,0x03,
10032,-996,28,-58,910,-2310,2660,,,,,,,0x03,
10041,-995,27,-57,490,-1680,1470,,,,,,,0x03,
10051,-999,22,-55,0,-980,700,,,,,,,0x03,
10061,-1001,21,-56,70,-490,560,,,,,,,0x03,
10071,-1000,20,-59,210,-350,630,,,,,,,0x03,
10080,-1000,17,-63,70,-350,630,,,,,,,0x03,
10090,-1001,18,-63,-140,-560,700,,,,,,,0x03,
10100,-1000,21,-65,-280,-910,910,,,,,,,0x03,
10109,-998,25,-66,-70,-1260,700,,,,,,,0x03,
10119,-1000,22,-67,-140,-1470,140,,,,,,,0x03,
10129,-1001,23,-66,-280,-1680,-210,,,,,,,0x03,
10138,-1000,23,-64,-280,-1820,-350,,,,,,,0x03,
10148,-1000,25,-62,-140,-1890,-490,,,,,,,0x03,
10158,-999,24,-62,140,-1820,-700,,,,,,,0x03,
10167,-1001,20,-61,280,-1890,-770,,,,,,,0x03,
10177,-1002,15,-63,210,-1890,-630,,,,,,,0x03,
10187,-1001,17,-63,210,-1960,-350,,,,,,,0x03,
10196,-999,20,-60,210,-2170,-280,,,,,,,0x03,
10206,-1000,19,-57,490,-2170,-420,,,,,,,0x03,
10216,-1002,17,-57,490,-2100,-350,,,,,,,0x03,
10225,-1001,18,-57,490,-1960,-210,,,,,,,0x03,
10235,-1000,20,-57,490,-1820,-210,,,,,,,0x03,
10245,-1001,19,-57,630,-1960,-140,,,,,,,0x03,
10254,-1001,20,-59,840,-1890,-140,,,,,,,0x03,
10264,-999,21,-58,770,-1890,-210,,,,,,,0x03,
10274,-1000,19,-57,770,-1890,-210,,,,,,,0x03,
10283,-1001,20,-57,490,-1820,-140,,,,,,,0x03,
10293,-1000,21,-57,280,-1820,0,,,,,,,0x03,
10303,-1001,21,-54,280,-1890,70,,,,,,,0x03,
10312,-1002,19,-54,280,-1750,140,,,,,,,0x03,
10322,-999,21,-57,210,-1470,350,,,,,,,0x03,
10332,-1001,20,-55,0,-1470,420,,,,,,,0x03,
10341,-1001,20,-56,0,-1400,420,,,,,,,0x03,
10351,-1001,22,-59,140,-1470,420,,,,,,,0x03,
10361,-1001,22,-61,-210,-1680,350,,,,,,,0x03,
10370,-1002,22,-57,-210,-1750,70,,,,,,,0x03,
10380,-1001,23,-57,-140,-1680,70,,,,,,,0x03,
10390,-1000,22,-57,-140,-1680,0,,,,,,,0x03,
10399,-1002,18,-54,0,-1680,0,,,,,,,0x03,
10409,-1002,21,-56,70,-1680,420,,,,,,,0x03,
10419,-1000,23,-57,140,-1820,490,,,,,,,0x03,
10428,-999,22,-52,140,-1750,0,,,,,,,0x03,
10438,-999,22,-53,140,-1470,-280,,,,,,,0x03,
10448,-1000,23,-54,140,-1260,-280,,,,,,,0x03,
10457,-1001,23,-53,0,-1190,-490,,,,,,,0x03,
10467,-1000,24,-55,140,-1120,-770,,,,,,,0x03,
10477,-1001,23,-56,280,-1330,-770,,,,,,,0x03,
10486,-1000,22,-55,350,-1330,-840,,,,,,,0x03,
10496,-1000,23,-56,210,-1190,-840,,,,,,,0x03,
10506,-1000,25,-55,140,-1120,-980,,,,,,,0x03,
10516,-1000,23,-53,210,-1120,-1120,,,,,,,0x03,
10525,-1002,19,-50,210,-910,-1050,,,,,,,0x03,
10535,-1001,17,-51,210,-490,-840,,,,,,,0x03,
10545,-1001,17,-53,0,-210,-560,,,,,,,0x03,
10554,-1001,18,-53,-210,70,-350,,,,,,,0x03,
10564,-999,21,-54,0,0,-280,,,,,,,0x03,
10574,-1000,23,-55,70,-280,-560,,,,,,,0x03,
10583,-1000,20,-56,140,-280,-840,,,,,,,0x03,
10593,-1001,21,-56,-70,-350,-980,,,,,,,0x03,
10603,-1001,22,-56,-70,-560,-840,,,,,,,0x03,
10612,-1002,22,-56,70,-630,-770,,,,,,,0x03,
10622,-1002,19,-57,140,-910,-770,,,,,,,0x03,
10632,-1003,17,-58,70,-910,-560,,,,,,,0x03,
10641,-1003,19,-56,-70,-980,-210,,,,,,,0x03,
10651,-1000,20,-54,70,-1050,0,,,,,,,0x03,
10661,-999,21,-53,140,-1260,-70,,,,,,,0x03,
10670,-1002,22,-52,210,-1400,-140,,,,,,,0x03,
10680,-1002,19,-50,420,-1260,-210,,,,,,,0x03,
10690,-998,20,-53,490,-1120,-280,,,,,,,0x03,
10699,-999,22,-52,420,-840,-630,,,,,,,0x03,
10709,-1000,22,-51,490,-700,-1120,,,,,,,0x03,
10719,-1001,17,-47,630,-560,-1260,,,,,,,0x03,
10728,-1005,21,-63,1750,490,-1330,,,,,,,0x03,
10738,-999,16,-49,420,-350,-910,,,,,,,0x03,
10748,-1003,20,-59,420,0,-1050,,,,,,,0x03,
10757,-1001,19,-54,630,-490,-630,,,,,,,0x03,
10767,-1003,17,-54,630,-490,-350,,,,,,,0x03,
10777,-1001,17,-53,1050,-350,-140,,,,,,,0x03,
10786,-999,20,-58,630,-280,140,,,,,,,0x03,
10796,-1001,25,-56,420,-210,-70,,,,,,,0x03,
10806,-1000,21,-52,280,-350,-420,,,,,,,0x03,
10815,-1002,20,-54,210,-420,-700,,,,,,,0x03,
10825,-1000,21,-54,0,-140,-490,,,,,,,0x03,
10835,-1001,21,-56,70,-70,-490,,,,,,,0x03,
10844,-1000,21,-60,280,-140,-420,,,,,,,0x03,
10854,-1001,18,-61,280,-560,-280,,,,,,,0x03,
10864,-1000,21,-59,280,-910,-210,,,,,,,0x03,
10873,-1000,22,-56,280,-1190,-350,,,,,,,0x03,
10883,-1000,21,-56,560,-1260,-630,,,,,,,0x03,
10893,-1002,18,-56,770,-1400,-700,,,,,,,0x03,
10902,-1002,17,-57,630,-1470,-490,,,,,,,0x03,
10912,-999,20,-57,420,-1470,-420,,,,,,,0x03,
10922,-999,21,-54,490,-1540,-560,,,,,,,0x03,
10931,-1001,20,-54,700,-1400,-840,,,,,,,0x03,
10941,-999,19,-55,910,-1470,-980,,,,,,,0x03,
10951,-999,18,-53,910,-1680,-840,,,,,,,0x03,
10960,-1001,17,-54,910,-1610,-700,,,,,,,0x03,
10970,-999,19,-53,770,-1610,-630,,,,,,,0x03,
10980,-1000,20,-52,700,-1540,-770,,,,,,,0x03,
10990,-1001,19,-54,840,-1330,-980,,,,,,,0x03,
10999,-1003,16,-54,770,-1400,-980,,,,,,,0x03,
11009,-1002,17,-53,770,-1470,-770,,,,,,,0x03,
11019,-1002,18,-52,490,-1540,-560,,,,,,,0x03,
11028,-1002,18,-50,350,-1540,-420,,,,,,,0x03,
11038,-1000,18,-48,420,-1470,-350,,,,,,,0x03,
11048,-1001,19,-50,420,-1330,-210,,,,,,,0x03,
11057,-1002,18,-51,280,-1120,-280,,,,,,,0x03,
11067,-1002,17,-50,140,-980,-350,,,,,,,0x03,
11077,-1001,17,-49,140,-910,-350,,,,,,,0x03,
11086,-1001,18,-48,210,-770,-140,,,,,,,0x03,
11096,-1001,21,-51,-70,-350,-70,,,,,,,0x03,
11106,-999,22,-51,-280,-140,-140,,,,,,,0x03,
11115,-1000,23,-54,-350,-70,-210,,,,,,,0x03,
11125,-1000,24,-55,-210,-140,-350,,,,,,,0x03,
11135,-1002,21,-58,-70,-280,-420,,,,,,,0x03,
11144,-1001,19,-59,-210,-560,-560,,,,,,,0x03,
11154,-1003,19,-57,-280,-700,-350,,,,,,,0x03,
11164,-1002,21,-57,-140,-1050,-210,,,,,,,0x03,
11173,-1000,20,-54,70,-1400,-210,,,,,,,0x03,
11183,-1000,19,-54,280,-1470,-350,,,,,,,0x03,
11193,-1003,19,-52,350,-1400,-490,,,,,,,0x03,
11202,-1000,19,-53,280,-1330,-490,,,,,,,0x03,
11212,-1001,18,-52,140,-1400,-420,,,,,,,0x03,
11222,-1002,18,-50,0,-1400,-350,,,,,,,0x03,
11231,-1001,18,-48,-280,-1260,-420,,,,,,,0x03,
11241,-1002,19,-45,-280,-1120,-560,,,,,,,0x03,
11251,-1001,21,-46,-210,-770,-630,,,,,,,0x03,
11260,-1000,19,-47,-70,-560,-770,,,,,,,0x03,
11270,-1001,17,-49,70,-350,-910,,,,,,,0x03,
11280,-1001,16,-49,70,-210,-910,,,,,,,0x03,
11289,-1001,15,-50,0,70,-770,,,,,,,0x03,
11299,-1001,16,-54,0,420,-420,,,,,,,0x03,
11309,-1001,18,-55,-140,420,-280,,,,,,,0x03,
11318,-1002,19,-55,-70,280,-280,,,,,,,0x03,
11328,-1001,17,-55,-280,70,-140,,,,,,,0x03,
11338,-1002,19,-56,-560,-70,0,,,,,,,0x03,
11347,-1001,21,-54,-630,-210,140,,,,,,,0x03,
11357,-1000,22,-54,-560,-280,210,,,,,,,0x03,
11367,-1001,21,-55,-490,-140,0,,,,,,,0x03,
11376,-1003,20,-54,-560,0,-140,,,,,,,0x03,
11386,-1000,21,-55,-350,280,-70,,,,,,,0x03,
11396,-999,23,-54,-210,350,-70,,,,,,,0x03,
11405,-1000,21,-55,-280,210,-280,,,,,,,0x03,
11415,-1000,23,-55,-280,210,-420,,,,,,,0x03,
11425,-1000,21,-53,-350,70,-630,,,,,,,0x03,
11435,-999,22,-52,-350,70,-840,,,,,,,0x03,
11444,-999,19,-52,-350,70,-1120,,,,,,,0x03,
11454,-999,16,-51,-210,70,-1330,,,,,,,0x03,
11464,-1002,19,-51,70,0,-1120,,,,,,,0x03,
11473,-1001,13,-50,-210,280,-840,,,,,,,0x03,
11483,-1002,15,-50,-280,770,-910,,,,,,,0x03,
11493,-1000,13,-51,-280,840,-700,,,,,,,0x03,
11502,-1002,14,-54,-210,910,-420,,,,,,,0x03,
11512,-1001,16,-54,-210,980,-490,,,,,,,0x03,
11522,-1000,17,-55,-350,980,-420,,,,,,,0x03,
11531,-1001,20,-55,-490,1120,-350,,,,,,,0x03,
11541,-1000,23,-54,-560,1400,-490,,,,,,,0x03,
11551,-999,24,-54,-490,1540,-770,,,,,,,0x03,
11560,-998,26,-56,-770,1960,-1190,,,,,,,0x03,
11570,-998,27,-54,-1330,2450,-1820,,,,,,,0x03,
11580,-998,26,-53,-1540,3150,-2520,,,,,,,0x03,
11589,-1001,22,-54,-1330,3640,-2590,,,,,,,0x03,
11599,-1001,18,-58,-1120,3990,-2310,,,,,,,0x03,
11609,-999,17,-56,-1330,4340,-2520,,,,,,,0x03,
11618,-999,16,-59,-1680,5040,-2870,,,,,,,0x03,
11628,-1002,11,-59,-1540,5530,-2870,,,,,,,0x03,
11638,-1006,4,-64,-1470,5950,-2380,,,,,,,0x03,
11647,-1005,0,-69,-1330,5740,-1190,,,,,,,0x03,
11657,-1006,3,-73,-1120,5180,280,,,,,,,0x03,
11667,-1000,9,-75,-1260,4410,1120,,,,,,,0x03,
11676,-1000,14,-75,-1190,3710,1190,,,,,,,0x03,
11686,-1000,17,-73,-1260,3290,1050,,,,,,,0x03,
11696,-1001,19,-72,-1190,3220,1050,,,,,,,0x03,
11705,-998,22,-70,-1050,3150,910,,,,,,,0x03,
11715,-1000,24,-68,-840,3430,840,,,,,,,0x03,
11725,-999,21,-68,-560,3850,700,,,,,,,0x03,
11734,-999,20,-66,-420,4270,490,,,,,,,0x03,
11744,-999,18,-68,-280,4970,210,,,,,,,0x03,
11754,-999,15,-70,-210,5530,70,,,,,,,0x03,
11763,-1001,14,-68,-70,5880,140,,,,,,,0x03,
11773,-994,12,-60,700,6650,140,,,,,,,0x03,
11783,-1002,18,-86,910,7070,-70,,,,,,,0x03,
11792,-999,14,-77,70,6790,-140,,,,,,,0x03,
11802,-996,16,-72,-140,7070,-350,,,,,,,0x03,
11812,-1000,22,-85,280,8120,-560,,,,,,,0x03,
11821,-996,14,-68,-70,8680,-560,,,,,,,0x03,
11831,-1003,20,-82,-210,10430,-490,,,,,,,0x03,
11841,-997,21,-89,-560,11130,-420,,,,,,,0x03,
11850,-996,17,-97,-770,10850,-700,,,,,,,0x03,
11860,-1001,23,-102,-840,9660,-980,,,,,,,0x03,
11870,-997,17,-98,-1890,9310,-1120,,,,,,,0x03,
11880,-997,20,-88,-1680,9520,-1470,,,,,,,0x03,
11889,-997,21,-88,-980,10990,-1820,,,,,,,0x03,
11899,-993,22,-91,-1120,12460,-1680,,,,,,,0x03,
11909,-996,22,-102,-910,13510,-2100,,,,,,,0x03,
11918,-998,17,-101,-1050,13720,-2450,,,,,,,0x03,
11928,-998,15,-101,-1120,13720,-2660,,,,,,,0x03,
11938,-997,12,-101,-980,13860,-2660,,,,,,,0x03,
11947,-997,10,-105,-770,14210,-2310,,,,,,,0x03,
11957,-995,12,-110,-770,14560,-2240,,,,,,,0x03,
11967,-995,9,-113,-420,14210,-1960,,,,,,,0x03,
11976,-999,11,-109,350,13720,-1400,,,,,,,0x03,
11986,-998,10,-117,560,13300,-1050,,,,,,,0x03,
11996,-996,8,-116,840,13160,-560,,,,,,,0x03,
12005,-997,8,-114,1400,13930,-140,,,,,,,0x03,
12015,-999,9,-118,2660,15050,700,,,,,,,0x03,
12025,-997,10,-124,3010,15260,1820,,,,,,,0x03,
12034,-993,5,-136,3360,14910,3010,,,,,,,0x03,
12044,-991,9,-144,3360,14000,3570,,,,,,,0x03,
12054,-995,12,-145,2730,13020,3430,,,,,,,0x03,
12063,-995,9,-143,2800,12460,3500,,,,,,,0x03,
12073,-993,13,-150,2520,12740,3430,,,,,,,0x03,
12083,-990,13,-157,1750,12390,3500,,,,,,,0x03,
12092,-991,18,-165,1190,11830,3220,,,,,,,0x03,
12102,-993,20,-168,490,9800,2870,,,,,,,0x03,
12112,-995,23,-168,910,7770,2940,,,,,,,0x03,
12121,-991,28,-167,1120,5600,3220,,,,,,,0x03,
12131,-988,27,-168,1330,3780,3010,,,,,,,0x03,
12141,-990,28,-167,1470,2800,2450,,,,,,,0x03,
12150,-988,28,-168,1330,2030,1610,,,,,,,0x03,
12160,-986,27,-165,1050,910,560,,,,,,,0x03,
12170,-989,24,-160,910,-140,-280,,,,,,,0x03,
12179,-992,17,-153,770,-560,-700,,,,,,,0x03,
12189,-992,16,-152,700,-420,-630,,,,,,,0x03,
12199,-991,18,-149,630,-140,-140,,,,,,,0x03,
12208,-990,19,-151,700,70,0,,,,,,,0x03,
12218,-989,20,-154,980,-280,-140,,,,,,,0x03,
12228,-989,19,-154,1050,-630,-490,,,,,,,0x03,
12237,-990,18,-156,1120,-910,-840,,,,,,,0x03,
12247,-989,18,-160,1050,-1330,-1050,,,,,,,0x03,
12257,-990,19,-159,840,-1750,-1470,,,,,,,0x03,
12266,-993,20,-154,980,-2170,-1400,,,,,,,0x03,
12276,-992,19,-155,1190,-2520,-910,,,,,,,0x03,
12286,-992,20,-156,1330,-3080,-420,,,,,,,0x03,
12295,-992,18,-152,980,-3360,-350,,,,,,,0x03,
12305,-993,19,-154,490,-3010,-350,,,,,,,0x03,
12315,-991,20,-152,350,-3080,-280,,,,,,,0x03,
12325,-990,22,-153,490,-3640,-280,,,,,,,0x03,
12334,-989,25,-154,560,-4130,-770,,,,,,,0x03,
12344,-990,22,-155,350,-4410,-1400,,,,,,,0x03,
12354,-991,16,-143,350,-4690,-1540,,,,,,,0x03,
12363,-995,18,-148,140,-3850,-1050,,,,,,,0x03,
12373,-992,20,-147,210,-3780,-910,,,,,,,0x03,
12383,-992,19,-139,560,-3710,-700,,,,,,,0x03,
12392,-991,21,-149,560,-3150,-840,,,,,,,0x03,
12402,-987,24,-156,490,-3500,-1400,,,,,,,0x03,
12412,-988,26,-149,350,-3850,-2170,,,,,,,0x03,
12421,-990,27,-153,420,-4270,-3290,,,,,,,0x03,
12431,-989,28,-154,910,-5180,-4060,,,,,,,0x03,
12441,-992,24,-154,1260,-5880,-4620,,,,,,,0x03,
12450,-989,20,-146,1610,-6580,-5110,,,,,,,0x03,
12460,-991,22,-155,1820,-6650,-5530,,,,,,,0x03,
12470,-989,24,-155,1960,-7840,-6440,,,,,,,0x03,
12479,-995,16,-149,2380,-9100,-7210,,,,,,,0x03,
12489,-1000,5,-140,2940,-10150,-6720,,,,,,,0x03,
12499,-997,5,-139,3570,-10080,-5320,,,,,,,0x03,
12508,-994,2,-131,3710,-9800,-4410,,,,,,,0x03,
12518,-1001,-5,-124,3150,-8680,-3570,,,,,,,0x03,
12528,-1002,-7,-121,2170,-7070,-1960,,,,,,,0x03,
12537,-995,-4,-121,1260,-5880,-280,,,,,,,0x03,
12547,-995,0,-119,630,-5040,770,,,,,,,0x03,
12557,-994,3,-114,210,-4200,980,,,,,,,0x03,
12566,-993,9,-115,140,-3290,770,,,,,,,0x03,
12576,-994,10,-116,420,-2800,630,,,,,,,0x03,
12586,-993,11,-119,630,-2170,350,,,,,,,0x03,
12595,-995,11,-126,910,-1680,140,,,,,,,0x03,
12605,-995,9,-127,1120,-1680,280,,,,,,,0x03,
12615,-997,7,-131,1260,-1540,490,,,,,,,0x03,
12624,-994,8,-134,1190,-1540,700,,,,,,,0x03,
12634,-995,11,-135,770,-1470,700,,,,,,,0x03,
12644,-995,12,-134,560,-1610,560,,,,,,,0x03,
12653,-996,15,-135,350,-1960,490,,,,,,,0x03,
12663,-993,18,-131,70,-2100,280,,,,,,,0x03,
12673,-991,19,-130,-70,-1960,-420,,,,,,,0x03,
12682,-993,18,-127,140,-1890,-980,,,,,,,0x03,
12692,-994,16,-127,420,-2030,-1400,,,,,,,0x03,
12702,-992,16,-131,490,-2170,-1820,,,,,,,0x03,
12711,-993,12,-131,490,-2310,-2170,,,,,,,0x03,
12721,-993,15,-129,560,-2520,-2380,,,,,,,0x03,
12731,-992,15,-129,560,-2730,-2870,,,,,,,0x03,
12740,-993,15,-130,560,-3010,-3710,,,,,,,0x03,
12750,-996,10,-127,420,-3360,-4200,,,,,,,0x03,
12760,-996,6,-125,490,-3430,-4060,,,,,,,0x03,
12770,-997,3,-122,700,-3500,-3640,,,,,,,0x03,
12779,-999,-2,-119,770,-3150,-2940,,,,,,,0x03,
12789,-998,-2,-122,840,-2450,-1960,,,,,,,0x03,
12799,-995,0,-122,630,-2310,-1190,,,,,,,0x03,
12808,-996,2,-122,350,-2310,-980,,,,,,,0x03,
12818,-997,3,-118,210,-2450,-1120,,,,,,,0x03,
12828,-997,4,-116,490,-2450,-840,,,,,,,0x03,
12837,-993,7,-117,700,-1890,-630,,,,,,,0x03,
12847,-993,6,-116,420,-1190,-770,,,,,,,0x03,
12857,-994,4,-117,280,-560,-980,,,,,,,0x03,
12866,-999,0,-115,70,0,-630,,,,,,,0x03,
12876,-996,0,-119,-140,490,210,,,,,,,0x03,
12886,-993,2,-120,-350,630,560,,,,,,,0x03,
12895,-996,3,-120,-490,770,210,,,,,,,0x03,
12905,-997,3,-119,-420,980,140,,,,,,,0x03,
12915,-997,3,-121,-280,980,560,,,,,,,0x03,
12924,-998,2,-122,-140,1050,1050,,,,,,,0x03,
12934,-996,1,-124,-350,1330,1540,,,,,,,0x03,
12944,-995,5,-128,-490,1260,1820,,,,,,,0x03,
12953,-996,6,-131,-630,980,1820,,,,,,,0x03,
12963,-994,7,-129,-770,560,1680,,,,,,,0x03,
12973,-994,9,-128,-630,140,1470,,,,,,,0x03,
12982,-994,13,-127,-560,-210,1260,,,,,,,0x03,
12992,-993,16,-125,-210,-420,1050,,,,,,,0x03,
13002,-994,14,-126,280,-560,560,,,,,,,0x03,
13011,-993,14,-130,490,-700,210,,,,,,,0x03,
13021,-993,12,-132,490,-910,-70,,,,,,,0x03,
13031,-995,11,-132,280,-1330,-420,,,,,,,0x03,
13040,-996,11,-132,420,-1890,-490,,,,,,,0x03,
13050,-995,10,-131,630,-2520,-630,,,,,,,0x03,
13060,-994,10,-129,770,-3080,-770,,,,,,,0x03,
13069,-994,10,-129,1050,-3360,-910,,,,,,,0x03,
13079,-995,12,-126,1050,-3640,-1050,,,,,,,0x03,
13089,-993,13,-123,1120,-3780,-1540,,,,,,,0x03,
13098,-996,6,-121,1120,-3500,-1820,,,,,,,0x03,
13108,-998,7,-122,560,-2940,-1540,,,,,,,0x03,
13118,-992,4,-110,0,-2240,-1470,,,,,,,0x03,
13127,-997,7,-114,210,-1470,-1050,,,,,,,0x03,
13137,-995,7,-115,350,-910,-630,,,,,,,0x03,
13147,-994,7,-120,280,-770,-840,,,,,,,0x03,
13156,-995,5,-120,280,-910,-1050,,,,,,,0x03,
13166,-997,3,-126,280,-980,-1050,,,,,,,0x03,
13176,-996,4,-126,70,-1330,-700,,,,,,,0x03,
13185,-995,8,-125,-70,-1820,-420,,,,,,,0x03,
13195,-995,9,-123,-210,-2030,-420,,,,,,,0x03,
13205,-996,9,-119,70,-1890,-630,,,,,,,0x03,
13215,-995,7,-117,350,-1540,-630,,,,,,,0x03,
13224,-998,6,-117,350,-1050,-420,,,,,,,0x03,
13234,-997,6,-118,280,-840,-70,,,,,,,0x03,
13244,-993,8,-119,70,-630,70,,,,,,,0x03,
13253,-996,6,-118,-70,-560,-280,,,,,,,0x03,
13263,-997,6,-119,0,-630,-350,,,,,,,0x03,
13273,-996,5,-123,0,-770,-210,,,,,,,0x03,
13282,-994,5,-123,0,-910,-210,,,,,,,0x03,
13292,-996,7,-122,0,-1120,-350,,,,,,,0x03,
13302,-995,10,-122,140,-1120,-420,,,,,,,0x03,
13311,-994,10,-120,350,-1190,-560,,,,,,,0x03,
13321,-994,7,-121,630,-1260,-770,,,,,,,0x03,
13331,-997,4,-122,630,-1260,-770,,,,,,,0x03,
13340,-997,4,-122,280,-1540,-420,,,,,,,0x03,
13350,-996,6,-119,280,-1820,-70,,,,,,,0x03,
13360,-996,8,-118,420,-1680,-70,,,,,,,0x03,
13369,-996,7,-119,490,-1540,-140,,,,,,,0x03,
13379,-996,7,-118,280,-1330,-210,,,,,,,0x03,
13389,-996,7,-117,70,-1190,-140,,,,,,,0x03,
13398,-995,7,-113,140,-1050,-210,,,,,,,0x03,
13408,-996,8,-115,350,-770,-140,,,,,,,0x03,
13418,-994,7,-118,280,-560,0,,,,,,,0x03,
13427,-995,8,-117,210,-350,-210,,,,,,,0x03,
13437,-998,7,-118,280,-210,-490,,,,,,,0x03,
13447,-997,5,-118,560,-140,-280,,,,,,,0x03,
13456,-996,6,-121,560,-140,210,,,,,,,0x03,
13466,-996,7,-120,490,-140,350,,,,,,,0x03,
13476,-996,7,-119,490,-70,280,,,,,,,0x03,
13485,-996,8,-122,560,0,490,,,,,,,0x03,
13495,-996,8,-121,630,-70,700,,,,,,,0x03,
13505,-995,10,-123,350,70,910,,,,,,,0x03,
13514,-992,13,-126,-70,210,630,,,,,,,0x03,
13524,-993,14,-125,-140,-70,70,,,,,,,0x03,
13534,-995,16,-125,70,-420,-490,,,,,,,0x03,
13543,-994,15,-123,420,-770,-910,,,,,,,0x03,
13553,-995,12,-124,490,-1050,-1330,,,,,,,0x03,
13563,-996,6,-125,280,-980,-1540,,,,,,,0x03,
13572,-997,5,-121,140,-1120,-1330,,,,,,,0x03,
13582,-996,5,-122,70,-1190,-980,,,,,,,0x03,
13592,-996,7,-121,70,-1400,-910,,,,,,,0x03,
13601,-997,5,-120,-70,-1610,-910,,,,,,,0x03,
13611,-996,5,-119,70,-1820,-840,,,,,,,0x03,
13621,-995,8,-117,210,-2100,-910,,,,,,,0x03,
13630,-995,9,-118,280,-2240,-1190,,,,,,,0x03,
13640,-995,8,-118,420,-2240,-1540,,,,,,,0x03,
13650,-996,9,-119,280,-2240,-1750,,,,,,,0x03,
13660,-996,8,-118,210,-2380,-1820,,,,,,,0x03,
13669,-995,8,-118,140,-2450,-1750,,,,,,,0x03,
13679,-997,4,-117,140,-2590,-1680,,,,,,,0x03,
13689,-995,9,-118,-210,-2590,-1750,,,,,,,0x03,
13698,-1000,0,-109,-490,-1960,-1890,,,,,,,0x03,
13708,-997,2,-111,-210,-1400,-910,,,,,,,0x03,
13718,-996,5,-117,-280,-1050,-420,,,,,,,0x03,
13727,-998,3,-113,-700,-840,-630,,,,,,,0x03,
13737,-996,2,-115,-840,-420,-490,,,,,,,0x03,
13747,-995,5,-113,-630,-420,70,,,,,,,0x03,
13756,-996,7,-117,-490,-140,140,,,,,,,0x03,
13766,-994,6,-119,-700,0,0,,,,,,,0x03,
13776,-996,4,-117,-630,0,70,,,,,,,0x03,
13785,-998,6,-120,-560,-70,350,,,,,,,0x03,
13795,-994,8,-120,-490,-210,350,,,,,,,0x03,
13805,-995,9,-120,-350,-210,70,,,,,,,0x03,
13814,-996,10,-120,-140,-420,-350,,,,,,,0x03,
13824,-996,10,-120,280,-630,-700,,,,,,,0x03,
13834,-995,9,-121,560,-770,-840,,,,,,,0x03,
13843,-998,6,-121,630,-840,-910,,,,,,,0x03,
13853,-997,4,-121,700,-910,-770,,,,,,,0x03,
13863,-996,4,-120,560,-980,-770,,,,,,,0x03,
13872,-995,4,-117,560,-1120,-560,,,,,,,0x03,
13882,-997,4,-115,630,-980,-490,,,,,,,0x03,
13892,-996,4,-115,630,-840,-490,,,,,,,0x03,
13901,-995,6,-115,770,-770,-490,,,,,,,0x03,
13911,-997,6,-116,700,-770,-490,,,,,,,0x03,
13921,-998,4,-118,560,-770,-560,,,,,,,0x03,
13930,-996,5,-117,350,-1050,-490,,,,,,,0x03,
13940,-996,7,-118,490,-1400,-420,,,,,,,0x03,
13950,-994,8,-120,560,-1540,-490,,,,,,,0x03,
13959,-995,8,-120,420,-1540,-630,,,,,,,0x03,
13969,-997,6,-118,350,-1610,-770,,,,,,,0x03,
13979,-996,8,-119,210,-1750,-630,,,,,,,0x03,
13988,-996,9,-119,210,-1890,-770,,,,,,,0x03,
13998,-995,9,-116,210,-1890,-1050,,,,,,,0x03,
14008,-997,7,-114,210,-1750,-1120,,,,,,,0x03,
14017,-996,4,-113,140,-1400,-1050,,,,,,,0x03,
14027,-997,3,-112,0,-980,-910,,,,,,,0x03,
14037,-998,2,-113,0,-490,-560,,,,,,,0x03,
14046,-996,2,-115,0,-560,-140,,,,,,,0x03,
14056,-996,3,-114,70,-770,0,,,,,,,0x03,
14066,-996,3,-115,140,-770,0,,,,,,,0x03,
14075,-997,4,-116,70,-700,-210,,,,,,,0x03,
14085,-997,4,-117,140,-700,-280,,,,,,,0x03,
14095,-996,5,-116,210,-770,-280,,,,,,,0x03,
14105,-996,6,-116,210,-980,-70,,,,,,,0x03,
14114,-996,7,-115,350,-1050,-140,,,,,,,0x03,
14124,-996,6,-116,280,-910,-210,,,,,,,0x03,
14134,-995,7,-117,280,-770,-350,,,,,,,0x03,
14143,-996,7,-118,0,-840,-490,,,,,,,0x03,
14153,-996,6,-117,-70,-980,-560,,,,,,,0x03,
14163,-995,7,-116,210,-1190,-700,,,,,,,0x03,
14172,-995,7,-116,490,-1330,-700,,,,,,,0x03,
14182,-996,5,-116,560,-1050,-840,,,,,,,0x03,
14192,-996,4,-115,350,-910,-980,,,,,,,0x03,
14201,-998,5,-115,560,-980,-840,,,,,,,0x03,
14211,-997,2,-116,700,-1190,-700,,,,,,,0x03,
14221,-998,0,-117,700,-1330,-700,,,,,,,0x03,
14230,-998,1,-115,840,-1470,-490,,,,,,,0x03,
14240,-996,4,-116,770,-1610,-210,,,,,,,0x03,
14250,-996,4,-117,840,-1960,-350,,,,,,,0x03,
14259,-998,7,-117,980,-2240,-420,,,,,,,0x03,
14269,-996,8,-117,840,-2310,-490,,,,,,,0x03,
14279,-997,6,-117,840,-2450,-560,,,,,,,0x03,
14288,-996,3,-115,840,-2590,-420,,,,,,,0x03,
14298,-998,3,-116,770,-2520,-70,,,,,,,0x03,
14308,-996,5,-121,560,-2730,280,,,,,,,0x03,
14317,-1001,0,-111,630,-3570,560,,,,,,,0x03,
14327,-997,3,-112,840,-3430,700,,,,,,,0x03,
14337,-993,3,-111,350,-3080,840,,,,,,,0x03,
14346,-997,4,-103,280,-2870,1260,,,,,,,0x03,
14356,-997,8,-103,0,-2100,1260,,,,,,,0x03,
14366,-993,12,-107,-70,-1610,910,,,,,,,0x03,
14375,-994,11,-105,0,-1400,490,,,,,,,0x03,
14385,-996,12,-106,140,-1120,70,,,,,,,0x03,
14395,-998,7,-109,350,-840,-350,,,,,,,0x03,
14404,-998,5,-110,280,-630,-350,,,,,,,0x03,
14414,-999,2,-111,-70,-490,-210,,,,,,,0x03,
14424,-998,1,-111,-140,-490,140,,,,,,,0x03,
14433,-997,1,-109,-70,-700,560,,,,,,,0x03,
14443,-997,3,-110,70,-770,910,,,,,,,0x03,
14453,-996,6,-112,0,-840,1050,,,,,,,0x03,
14462,-996,7,-110,-70,-910,840,,,,,,,0x03,
14472,-996,11,-109,-70,-980,630,,,,,,,0x03,
14482,-996,13,-111,70,-980,490,,,,,,,0x03,
14491,-996,14,-110,140,-840,0,,,,,,,0x03,
14501,-997,12,-111,0,-630,-280,,,,,,,0x03,
14511,-997,9,-111,0,-350,-280,,,,,,,0x03,
14520,-997,9,-114,0,-280,-210,,,,,,,0x03,
14530,-996,8,-115,0,-490,-420,,,,,,,0x03,
14540,-996,8,-112,140,-770,-630,,,,,,,0x03,
14550,-998,5,-112,280,-1050,-560,,,,,,,0x03,
14559,-997,5,-113,560,-1190,-420,,,,,,,0x03,
14569,-996,4,-111,630,-1330,-420,,,,,,,0x03,
14579,-998,4,-111,560,-1260,-280,,,,,,,0x03,
14588,-998,6,-111,630,-1330,0,,,,,,,0x03,
14598,-996,8,-111,560,-1470,140,,,,,,,0x03,
14608,-996,11,-112,560,-1540,-70,,,,,,,0x03,
14617,-996,13,-109,490,-1610,-420,,,,,,,0x03,
14627,-997,11,-108,700,-1610,-630,,,,,,,0x03,
14637,-997,11,-110,840,-1470,-910,,,,,,,0x03,
14646,-997,6,-109,770,-1400,-980,,,,,,,0x03,
14656,-998,5,-108,700,-1190,-770,,,,,,,0x03,
14666,-997,4,-109,630,-1120,-490,,,,,,,0x03,
14675,-998,5,-109,700,-1120,-420,,,,,,,0x03,
14685,-997,4,-108,630,-1120,-280,,,,,,,0x03,
14695,-997,6,-108,490,-1050,-140,,,,,,,0x03,
14704,-998,9,-107,490,-1050,0,,,,,,,0x03,
14714,-997,9,-107,350,-1050,-140,,,,,,,0x03,
14724,-997,8,-108,350,-1050,-210,,,,,,,0x03,
14733,-997,7,-107,350,-980,-140,,,,,,,0x03,
14743,-998,9,-108,140,-980,-210,,,,,,,0x03,
14753,-996,9,-109,280,-910,-210,,,,,,,0x03,
14762,-996,8,-109,490,-1050,-210,,,,,,,0x03,
14772,-998,7,-111,630,-980,-280,,,,,,,0x03,
14782,-998,5,-111,490,-1120,-350,,,,,,,0x03,
14791,-998,6,-110,420,-1330,-280,,,,,,,0x03,
14801,-996,8,-109,420,-1330,-70,,,,,,,0x03,
14811,-995,9,-107,420,-1260,-70,,,,,,,0x03,
14820,-997,9,-105,420,-1050,-280,,,,,,,0x03,
14830,-996,10,-106,350,-910,-350,,,,,,,0x03,
14840,-998,8,-104,420,-840,-350,,,,,,,0x03,
14849,-997,7,-107,420,-700,-280,,,,,,,0x03,
14859,-996,6,-108,420,-770,-280,,,,,,,0x03,
14869,-998,5,-108,490,-840,-210,,,,,,,0x03,
14878,-999,6,-110,490,-910,-140,,,,,,,0x03,
14888,-996,6,-110,420,-1050,0,,,,,,,0x03,
14898,-994,7,-109,490,-1190,-70,,,,,,,0x03,
14907,-1001,10,-109,490,-1400,140,,,,,,,0x03,
14917,-999,8,-108,350,-1260,140,,,,,,,0x03,
14927,-997,8,-108,350,-1330,140,,,,,,,0x03,
14936,-998,9,-106,490,-1190,210,,,,,,,0x03,
14946,-996,8,-107,420,-980,210,,,,,,,0x03,
14956,-996,10,-105,280,-980,140,,,,,,,0x03,
14965,-997,10,-105,350,-840,-70,,,,,,,0x03,
14975,-996,9,-105,490,-910,-350,,,,,,,0x03,
14985,-995,9,-107,630,-910,-560,,,,,,,0x03,
14995,-997,7,-107,630,-910,-560,,,,,,,0x03,
15004,-999,5,-107,420,-770,-560,,,,,,,0x03,
15014,-998,5,-107,280,-770,-350,,,,,,,0x03,
15024,-997,7,-105,210,-700,-70,,,,,,,0x03,
15033,-996,9,-106,420,-630,0,,,,,,,0x03,
15043,-996,8,-107,420,-490,-70,,,,,,,0x03,
15053,-998,9,-107,490,-560,-140,,,,,,,0x03,
15062,-998,10,-110,560,-630,-210,,,,,,,0x03,
15072,-998,9,-109,560,-840,-280,,,,,,,0x03,
15082,-999,8,-107,630,-1120,-350,,,,,,,0x03,
15091,-998,7,-107,560,-1190,-210,,,,,,,0x03,
15101,-996,8,-108,630,-1190,-70,,,,,,,0x03,
15111,-996,9,-107,630,-1330,-140,,,,,,,0x03,
15120,-998,8,-107,700,-1400,-420,,,,,,,0x03,
15130,-998,6,-106,700,-1330,-350,,,,,,,0x03,
15140,-996,7,-108,490,-1190,70,,,,,,,0x03,
15149,-997,10,-107,280,-1120,140,,,,,,,0x03,
15159,-997,11,-103,210,-1050,-210,,,,,,,0x03,
15169,-996,10,-103,350,-1050,-350,,,,,,,0x03,
15178,-995,10,-104,420,-980,-210,,,,,,,0x03,
15188,-997,11,-104,280,-840,-420,,,,,,,0x03,
15198,-997,9,-105,280,-770,-560,,,,,,,0x03,
15207,-998,6,-106,350,-770,-630,,,,,,,0x03,
15217,-1000,5,-106,280,-770,-420,,,,,,,0x03,
15227,-998,7,-106,140,-630,-70,,,,,,,0x03,
15236,-997,8,-106,70,-700,210,,,,,,,0x03,
15246,-998,9,-108,140,-700,210,,,,,,,0x03,
15256,-997,10,-109,0,-980,140,,,,,,,0x03,
15265,-998,9,-106,0,-1050,70,,,,,,,0x03,
15275,-996,10,-106,-70,-1050,0,,,,,,,0x03,
15285,-997,12,-104,-70,-1050,-70,,,,,,,0x03,
15294,-996,12,-104,70,-910,-280,,,,,,,0x03,
15304,-997,8,-104,210,-630,-560,,,,,,,0x03,
15314,-999,6,-106,140,-490,-560,,,,,,,0x03,
15323,-998,7,-109,0,-420,-210,,,,,,,0x03,
15333,-996,9,-109,-140,-700,0,,,,,,,0x03,
15343,-998,10,-108,-140,-910,-140,,,,,,,0x03,
15352,-997,11,-106,-70,-1050,-140,,,,,,,0x03,
15362,-997,10,-107,0,-980,-140,,,,,,,0x03,
15372,-997,11,-106,0,-910,-210,,,,,,,0x03,
15381,-998,12,-106,210,-980,-420,,,,,,,0x03,
15391,-998,11,-106,490,-1050,-490,,,,,,,0x03,
15401,-998,8,-107,560,-1050,-490,,,,,,,0x03,
15410,-1000,6,-107,490,-980,-420,,,,,,,0x03,
15420,-999,8,-109,210,-1050,-210,,,,,,,0x03,
15430,-995,11,-108,350,-1260,-70,,,,,,,0x03,
15440,-996,12,-107,630,-1400,-350,,,,,,,0x03,
15449,-997,12,-107,490,-1330,-700,,,,,,,0x03,
15459,-997,10,-105,420,-1120,-910,,,,,,,0x03,
15469,-998,9,-104,350,-980,-770,,,,,,,0x03,
15478,-998,8,-105,280,-980,-560,,,,,,,0x03,
15488,-996,8,-105,350,-1120,-490,,,,,,,0x03,
15498,-999,7,-103,280,-1260,-630,,,,,,,0x03,
15507,-998,6,-105,420,-1190,-490,,,,,,,0x03,
15517,-998,7,-105,210,-1260,-280,,,,,,,0x03,
15527,-996,8,-102,210,-1330,-350,,,,,,,0x03,
15536,-996,9,-102,280,-1260,-280,,,,,,,0x03,
15546,-997,10,-101,140,-1120,-420,,,,,,,0x03,
15556,-999,10,-99,210,-840,-630,,,,,,,0x03,
15565,-999,7,-102,0,-560,-490,,,,,,,0x03,
15575,-997,7,-105,140,-490,-140,,,,,,,0x03,
15585,-996,9,-105,0,-560,-140,,,,,,,0x03,
15594,-997,9,-104,-70,-490,-420,,,,,,,0x03,
15604,-998,8,-102,70,-490,-350,,,,,,,0x03,
15614,-998,9,-102,70,-490,-210,,,,,,,0x03,
15623,-997,9,-105,70,-560,-140,,,,,,,0x03,
15633,-997,10,-104,-70,-560,-140,,,,,,,0x03,
15643,-998,8,-104,-210,-560,-280,,,,,,,0x03,
15652,-997,8,-103,-210,-420,-140,,,,,,,0x03,
15662,-998,7,-104,-280,-350,70,,,,,,,0x03,
15672,-998,8,-104,-350,-350,210,,,,,,,0x03,
15681,-998,9,-104,-350,-490,350,,,,,,,0x03,
15691,-996,12,-104,-210,-630,210,,,,,,,0x03,
15701,-998,11,-104,0,-560,0,,,,,,,0x03,
15710,-999,10,-104,0,-560,-70,,,,,,,0x03,
15720,-997,11,-105,0,-490,70,,,,,,,0x03,
15730,-997,11,-106,-210,-490,-70,,,,,,,0x03,
15739,-997,9,-103,-210,-490,-70,,,,,,,0x03,
15749,-997,8,-104,-140,-280,0,,,,,,,0x03,
15759,-997,9,-106,-210,-210,210,,,,,,,0x03,
15768,-997,11,-105,-210,-210,210,,,,,,,0x03,
15778,-997,12,-105,-350,-350,0,,,,,,,0x03,
15788,-996,11,-105,-210,-490,-210,,,,,,,0x03,
15797,-999,9,-104,70,-560,-140,,,,,,,0x03,
15807,-997,10,-107,140,-560,0,,,,,,,0x03,
15817,-997,8,-106,-70,-560,-70,,,,,,,0x03,
15826,-997,10,-106,-140,-630,0,,,,,,,0x03,
15836,-997,9,-105,-70,-630,210,,,,,,,0x03,
15846,-996,9,-105,-70,-560,350,,,,,,,0x03,
15855,-996,12,-106,-140,-560,420,,,,,,,0x03,
15865,-997,13,-106,-210,-490,210,,,,,,,0x03,
15875,-997,12,-103,-350,-630,0,,,,,,,0x03,
15884,-997,12,-104,-210,-560,70,,,,,,,0x03,
15894,-997,12,-104,-140,-350,140,,,,,,,0x03,
15904,-996,13,-105,-70,-280,0,,,,,,,0x03,
15914,-997,11,-105,-70,-70,-210,,,,,,,0x03,
15923,-998,10,-104,-70,-140,-210,,,,,,,0x03,
15933,-996,10,-106,210,-280,0,,,,,,,0x03,
15943,-998,9,-105,210,-350,-70,,,,,,,0x03,
15952,-999,9,-105,210,-350,0,,,,,,,0x03,
15962,-997,10,-106,140,-280,70,,,,,,,0x03,
15972,-998,11,-107,70,-420,210,,,,,,,0x03,
15981,-996,12,-106,70,-350,140,,,,,,,0x03,
15991,-997,13,-108,140,-560,70,,,,,,,0x03,
16001,-997,13,-106,280,-630,0,,,,,,,0x03,
16010,-998,13,-109,350,-770,0,,,,,,,0x03,
16020,-997,13,-108,350,-980,0,,,,,,,0x03,
16030,-995,14,-106,420,-1050,-140,,,,,,,0x03,
16039,-996,12,-104,280,-910,-420,,,,,,,0x03,
16049,-998,10,-104,210,-420,-490,,,,,,,0x03,
16059,-998,12,-105,0,-210,-210,,,,,,,0x03,
16068,-997,13,-102,-70,-140,-210,,,,,,,0x03,
16078,-995,14,-104,70,0,-280,,,,,,,0x03,
16088,-997,12,-103,0,-70,-350,,,,,,,0x03,
16097,-998,12,-104,70,70,-280,,,,,,,0x03,
16107,-997,12,-108,-70,280,-210,,,,,,,0x03,
16117,-997,14,-107,-280,210,-280,,,,,,,0x03,
16126,-997,13,-108,-280,140,-420,,,,,,,0x03,
16136,-997,11,-108,-280,70,-490,,,,,,,0x03,
16146,-998,10,-107,-280,70,-280,,,,,,,0x03,
16155,-999,9,-108,-350,140,140,,,,,,,0x03,
16165,-996,11,-108,-490,70,560,,,,,,,0x03,
16175,-996,14,-106,-630,70,630,,,,,,,0x03,
16184,-996,16,-103,-630,140,490,,,,,,,0x03,
16194,-995,16,-104,-350,490,140,,,,,,,0x03,
16204,-995,14,-106,-350,700,-140,,,,,,,0x03,
16213,-997,12,-108,-280,840,-350,,,,,,,0x03,
16223,-997,10,-109,-210,910,-350,,,,,,,0x03,
16233,-998,8,-112,-280,770,-210,,,,,,,0x03,
16242,-998,10,-113,-350,420,-70,,,,,,,0x03,
16252,-997,11,-114,-280,70,140,,,,,,,0x03,
16262,-995,15,-112,-140,-70,70,,,,,,,0x03,
16271,-997,18,-111,70,-140,-140,,,,,,,0x03,
16281,-997,17,-110,140,-70,-350,,,,,,,0x03,
16291,-995,17,-112,280,0,-420,,,,,,,0x03,
16300,-996,16,-111,140,70,-420,,,,,,,0x03,
16310,-997,14,-110,70,140,-420,,,,,,,0x03,
16320,-996,14,-110,140,140,-350,,,,,,,0x03,
16329,-995,14,-110,210,70,-420,,,,,,,0x03,
16339,-996,14,-111,210,-70,-630,,,,,,,0x03,
16349,-999,12,-110,140,-350,-770,,,,,,,0x03,
16359,-996,12,-110,70,-420,-700,,,,,,,0x03,
16368,-998,12,-109,0,-420,-560,,,,,,,0x03,
16378,-999,10,-109,210,-420,-490,,,,,,,0x03,
16388,-997,10,-112,350,-420,-280,,,,,,,0x03,
16397,-997,11,-112,280,-490,-140,,,,,,,0x03,
16407,-998,11,-113,140,-630,-210,,,,,,,0x03,
16417,-996,11,-110,70,-840,-210,,,,,,,0x03,
16426,-995,14,-109,350,-1050,70,,,,,,,0x03,
16436,-995,16,-110,280,-1050,70,,,,,,,0x03,
16446,-997,16,-107,0,-980,-280,,,,,,,0x03,
16455,-995,17,-107,0,-630,-420,,,,,,,0x03,
16465,-995,17,-109,140,-490,-700,,,,,,,0x03,
16475,-996,15,-110,420,-490,-1050,,,,,,,0x03,
16484,-998,11,-113,350,-490,-1050,,,,,,,0x03,
16494,-997,10,-114,70,-630,-840,,,,,,,0x03,
16504,-997,11,-113,-70,-840,-700,,,,,,,0x03,
16513,-997,13,-110,-70,-1050,-630,,,,,,,0x03,
16523,-997,13,-109,210,-1120,-560,,,,,,,0x03,
16533,-996,13,-109,140,-910,-490,,,,,,,0x03,
16542,-996,14,-108,0,-770,-630,,,,,,,0x03,
16552,-996,14,-109,70,-630,-770,,,,,,,0x03,
16562,-998,13,-110,70,-630,-840,,,,,,,0x03,
16571,-997,11,-110,0,-630,-910,,,,,,,0x03,
16581,-997,10,-111,-350,-420,-910,,,,,,,0x03,
16591,-996,12,-111,-560,-420,-770,,,,,,,0x03,
16600,-997,12,-111,-420,-560,-700,,,,,,,0x03,
16610,-998,13,-109,-420,-700,-700,,,,,,,0x03,
16620,-996,13,-109,-350,-770,-630,,,,,,,0x03,
16629,-996,13,-110,-420,-700,-560,,,,,,,0x03,
16639,-997,12,-111,-490,-490,-490,,,,,,,0x03,
16649,-996,12,-112,-490,-490,-560,,,,,,,0x03,
16658,-997,13,-111,-420,-630,-560,,,,,,,0x03,
16668,-997,12,-111,-420,-490,-490,,,,,,,0x03,
16678,-996,11,-112,-490,-490,-420,,,,,,,0x03,
16687,-997,11,-111,-490,-420,-420,,,,,,,0x03,
16697,-997,12,-112,-490,-420,-420,,,,,,,0x03,
16707,-997,10,-111,-350,-700,-420,,,,,,,0x03,
16716,-998,10,-112,-210,-770,-210,,,,,,,0x03,
16726,-997,11,-111,-350,-840,0,,,,,,,0x03,
16736,-995,13,-109,-280,-770,0,,,,,,,0x03,
16745,-996,15,-108,-350,-630,-140,,,,,,,0x03,
16755,-997,14,-106,-490,-280,-280,,,,,,,0x03,
16765,-996,14,-108,-490,140,-420,,,,,,,0x03,
16774,-995,14,-109,-490,280,-560,,,,,,,0x03,
16784,-996,14,-109,-420,560,-700,,,,,,,0x03,
16794,-996,12,-109,-350,840,-770,,,,,,,0x03,
16804,-995,13,-110,-280,1050,-770,,,,,,,0x03,
16813,-997,12,-111,-210,1050,-770,,,,,,,0x03,
16823,-996,13,-114,-140,1120,-770,,,,,,,0x03,
16833,-996,12,-114,0,1050,-980,,,,,,,0x03,
16842,-998,11,-112,140,910,-840,,,,,,,0x03,
16852,-998,9,-111,280,910,-560,,,,,,,0x03,
16862,-998,7,-114,420,980,-350,,,,,,,0x03,
16871,-1000,5,-114,560,770,140,,,,,,,0x03,
16881,-998,8,-117,560,630,630,,,,,,,0x03,
16891,-997,10,-117,420,350,770,,,,,,,0x03,
16900,-995,11,-117,420,70,700,,,,,,,0x03,
16910,-997,12,-119,210,-140,630,,,,,,,0x03,
16920,-997,13,-116,-210,-630,420,,,,,,,0x03,
16929,-995,17,-116,70,-910,490,,,,,,,0x03,
16939,-996,17,-117,420,-1400,560,,,,,,,0x03,
16949,-999,12,-118,630,-1750,140,,,,,,,0x03,
16958,-1003,5,-113,770,-2450,70,,,,,,,0x03,
16968,-1005,1,-110,840,-3430,980,,,,,,,0x03,
16978,-1002,10,-105,770,-4340,2240,,,,,,,0x03,
16987,-1001,19,-97,700,-4970,2310,,,,,,,0x03,
16997,-1002,25,-96,1190,-4970,1750,,,,,,,0x03,
17007,-1008,26,-99,1890,-5040,1330,,,,,,,0x03,
17016,-1009,11,-121,3220,-6090,1120,,,,,,,0x03,
17026,-1016,8,-129,4690,-10220,1960,,,,,,,0x03,
17036,-1021,5,-122,4340,-14070,3780,,,,,,,0x03,
17045,-1023,14,-97,4130,-19810,6720,,,,,,,0x03,
17055,-1037,19,-61,5040,-24080,8960,,,,,,,0x03,
17065,-1054,25,-25,4340,-26810,10150,,,,,,,0x03,
17074,-1068,23,8,2730,-28490,11410,,,,,,,0x03,
17084,-1057,34,13,1400,-30730,15540,,,,,,,0x03,
17094,-1021,46,22,630,-34230,21210,,,,,,,0x03,
17103,-1022,87,9,-1050,-34860,25690,,,,,,,0x03,
17113,-994,93,11,-1190,-34580,23870,,,,,,,0x03,
17123,-975,112,6,-2520,-34230,19110,,,,,,,0x03,
17132,-977,105,6,-3780,-29190,13300,,,,,,,0x03,
17142,-979,92,-7,-4200,-22960,7350,,,,,,,0x03,
17152,-983,84,-20,-4480,-17290,700,,,,,,,0x03,
17161,-1000,61,-31,-5460,-10990,-4060,,,,,,,0x03,
17171,-1019,37,-43,-4480,-5600,-6300,,,,,,,0x03,
17181,-1037,23,-54,-2800,-2870,-6370,,,,,,,0x03,
17190,-1049,15,-60,-910,-490,-4550,,,,,,,0x03,
17200,-1052,11,-68,630,1050,-1960,,,,,,,0x03,
17210,-1048,15,-70,2520,3150,490,,,,,,,0x03,
17219,-1037,21,-75,3850,5530,1750,,,,,,,0x03,
17229,-1024,27,-83,4690,8330,1610,,,,,,,0x03,
17239,-1015,28,-93,5040,10990,280,,,,,,,0x03,
17249,-1008,32,-102,4270,12740,-1890,,,,,,,0x03,
17258,-1008,34,-99,3010,14350,-4410,,,,,,,0x03,
17268,-1004,34,-97,2170,15470,-6090,,,,,,,0x03,
17278,-996,33,-102,2450,16030,-6720,,,,,,,0x03,
17287,-980,33,-111,3150,15400,-6580,,,,,,,0x03,
17297,-972,31,-115,3850,13720,-6650,,,,,,,0x03,
17307,-967,28,-109,4200,12040,-6510,,,,,,,0x03,
17316,-963,26,-103,4200,10780,-6300,,,,,,,0x03,
17326,-958,22,-98,4200,9870,-5950,,,,,,,0x03,
17336,-965,17,-91,4130,8750,-5600,,,,,,,0x03,
17345,-969,11,-88,3920,7210,-4340,,,,,,,0x03,
17355,-969,12,-89,3710,5880,-2520,,,,,,,0x03,
17365,-966,14,-87,3010,4340,-1400,,,,,,,0x03,
17374,-967,17,-83,2310,3080,-1610,,,,,,,0x03,
17384,-973,14,-72,1680,2590,-2450,,,,,,,0x03,
17394,-986,11,-65,770,3080,-3010,,,,,,,0x03,
17403,-997,9,-61,0,3570,-2450,,,,,,,0x03,
17413,-1000,11,-63,-420,3780,-1190,,,,,,,0x03,
17423,-995,15,-66,-700,3710,70,,,,,,,0x03,
17432,-989,21,-66,-700,3500,630,,,,,,,0x03,
17442,-988,25,-67,-630,3360,-70,,,,,,,0x03,
17452,-992,26,-70,-910,3220,-1190,,,,,,,0x03,
17461,-995,21,-66,-1400,2940,-1820,,,,,,,0x03,
17471,-994,22,-69,-1400,2660,-1610,,,,,,,0x03,
17481,-989,25,-75,-1540,2800,-1610,,,,,,,0x03,
17490,-986,24,-85,-1470,2940,-1750,,,,,,,0x03,
17500,-985,25,-88,-1120,1960,-1610,,,,,,,0x03,
17510,-986,24,-90,-1400,1190,-1470,,,,,,,0x03,
17519,-990,25,-84,-1610,630,-1750,,,,,,,0x03,
17529,-989,24,-82,-1610,350,-1820,,,,,,,0x03,
17539,-992,25,-81,-1260,140,-1680,,,,,,,0x03,
17548,-993,23,-86,-980,-70,-1470,,,,,,,0x03,
17558,-993,23,-88,-980,-490,-1260,,,,,,,0x03,
17568,-991,26,-90,-910,-1120,-1260,,,,,,,0x03,
17577,-991,25,-88,-700,-2170,-1610,,,,,,,0x03,
17587,-998,23,-83,-420,-3150,-2240,,,,,,,0x03,
17597,-1001,17,-77,-350,-3290,-2660,,,,,,,0x03,
17606,-1001,14,-73,-770,-2940,-2870,,,,,,,0x03,
17616,-1009,11,-70,-1120,-1890,-3220,,,,,,,0x03,
17626,-1007,11,-71,-1680,-1540,-2940,,,,,,,0x03,
17635,-1010,12,-72,-1890,-1470,-2590,,,,,,,0x03,
17645,-1008,13,-74,-2170,-1260,-1960,,,,,,,0x03,
17655,-1002,17,-76,-2450,-1190,-1330,,,,,,,0x03,
17664,-998,22,-77,-2520,-1540,-1120,,,,,,,0x03,
17674,-994,24,-77,-2520,-1610,-1260,,,,,,,0x03,
17684,-993,23,-79,-2380,-1540,-1610,,,,,,,0x03,
17694,-997,22,-79,-2520,-1750,-1960,,,,,,,0x03,
17703,-998,21,-76,-2590,-1750,-1610,,,,,,,0x03,
17713,-992,26,-76,-2380,-1890,-1330,,,,,,,0x03,
17723,-990,32,-72,-2170,-2450,-1330,,,,,,,0x03,
17732,-990,35,-72,-1610,-2800,-1750,,,,,,,0x03,
17742,-992,32,-68,-770,-2870,-2240,,,,,,,0x03,
17752,-990,31,-70,-210,-2520,-2800,,,,,,,0x03,
17761,-990,30,-75,420,-2100,-3430,,,,,,,0x03,
17771,-997,25,-76,630,-1820,-3850,,,,,,,0x03,
17781,-1002,21,-82,910,-1890,-3710,,,,,,,0x03,
17790,-1002,20,-85,1190,-2240,-3080,,,,,,,0x03,
17800,-1005,19,-89,1470,-2520,-2310,,,,,,,0x03,
17810,-1003,23,-92,1470,-2520,-1820,,,,,,,0x03,
17819,-997,26,-96,1190,-2240,-1680,,,,,,,0x03,
17829,-995,27,-100,770,-1820,-2030,,,,,,,0x03,
17839,-994,27,-100,140,-1680,-2870,,,,,,,0x03,
17848,-996,27,-97,-140,-1890,-3430,,,,,,,0x03,
17858,-1003,23,-92,0,-2170,-3360,,,,,,,0x03,
17868,-1005,21,-88,420,-2730,-2590,,,,,,,0x03,
17877,-1002,23,-88,980,-3080,-1540,,,,,,,0x03,
17887,-1001,24,-87,1470,-3500,-1400,,,,,,,0x03,
17897,-1007,22,-83,1610,-3430,-1540,,,,,,,0x03,
17906,-1012,17,-78,1120,-2450,-1470,,,,,,,0x03,
17916,-1012,13,-76,560,-1120,-840,,,,,,,0x03,
17926,-1004,15,-82,350,210,-70,,,,,,,0x03,
17935,-996,16,-84,420,560,140,,,,,,,0x03,
17945,-993,16,-83,770,490,-350,,,,,,,0x03,
17955,-991,15,-81,1120,350,-980,,,,,,,0x03,
17964,-989,13,-80,1750,0,-1190,,,,,,,0x03,
17974,-989,8,-80,2240,-560,-1120,,,,,,,0x03,
17984,-987,5,-82,2240,-1120,-980,,,,,,,0x03,
17993,-986,3,-77,1820,-1400,-700,,,,,,,0x03,
18003,-982,3,-77,1050,-1400,-560,,,,,,,0x03,
18013,-973,2,-73,770,-1470,-700,,,,,,,0x03,
18022,-970,0,-68,840,-1610,-840,,,,,,,0x03,
18032,-965,0,-66,980,-1820,-840,,,,,,,0x03,
18042,-957,-1,-68,980,-2170,-700,,,,,,,0x03,
18051,-952,-1,-61,630,-2870,-700,,,,,,,0x03,
18061,-949,0,-56,420,-3360,-840,,,,,,,0x03,
18071,-942,1,-54,210,-3570,-980,,,,,,,0x03,
18080,-935,5,-58,140,-3920,-1470,,,,,,,0x03,
18090,-934,3,-56,420,-4410,-2450,,,,,,,0x03,
18100,-939,0,-62,210,-4620,-3290,,,,,,,0x03,
18109,-942,0,-71,-70,-4690,-4200,,,,,,,0x03,
18119,-945,-1,-76,-560,-4900,-5180,,,,,,,0x03,
18129,-956,-3,-76,-910,-5740,-6090,,,,,,,0x03,
18139,-972,-11,-73,-980,-6440,-6160,,,,,,,0x03,
18148,-984,-15,-70,-1120,-6300,-5040,,,,,,,0x03,
18158,-985,-12,-74,-1190,-5670,-3360,,,,,,,0x03,
18168,-985,-5,-81,-1330,-5530,-1890,,,,,,,0x03,
18177,-986,0,-84,-1610,-6020,-1400,,,,,,,0x03,
18187,-988,2,-86,-2100,-6370,-1540,,,,,,,0x03,
18197,-989,6,-86,-2520,-6720,-1960,,,,,,,0x03,
18206,-994,10,-86,-2940,-6860,-2380,,,,,,,0x03,
18216,-993,12,-89,-3640,-6580,-2450,,,,,,,0x03,
18226,-992,15,-93,-4060,-6440,-2170,,,,,,,0x03,
18235,-994,19,-90,-4480,-7070,-2030,,,,,,,0x03,
18245,-1006,21,-81,-5040,-7490,-1820,,,,,,,0x03,
18255,-1012,25,-76,-5670,-7000,-1540,,,,,,,0x03,
18264,-1014,35,-70,-6370,-6300,-1540,,,,,,,0x03,
18274,-1019,40,-63,-6650,-4900,-2170,,,,,,,0x03,
18284,-1020,44,-64,-6860,-3640,-3150,,,,,,,0x03,
18293,-1024,44,-64,-6580,-3290,-4200,,,,,,,0x03,
18303,-1032,39,-59,-5810,-3290,-4550,,,,,,,0x03,
18313,-1038,37,-62,-4760,-3430,-3640,,,,,,,0x03,
18322,-1031,39,-65,-3430,-3920,-2310,,,,,,,0x03,
18332,-1023,44,-68,-2030,-5110,-1680,,,,,,,0x03,
18342,-1020,44,-68,-1050,-6230,-1890,,,,,,,0x03,
18351,-1025,44,-64,-490,-6440,-2730,,,,,,,0x03,
18361,-1030,35,-62,-70,-5670,-3850,,,,,,,0x03,
18371,-1040,28,-64,210,-4270,-4620,,,,,,,0x03,
18380,-1045,16,-70,-140,-3080,-4760,,,,,,,0x03,
18390,-1050,14,-74,-210,-2380,-4340,,,,,,,0x03,
18400,-1046,12,-79,-210,-1890,-4060,,,,,,,0x03,
18409,-1047,10,-81,-210,-1470,-3430,,,,,,,0x03,
18419,-1046,7,-83,0,-1050,-2800,,,,,,,0x03,
18429,-1045,6,-84,210,-630,-2030,,,,,,,0x03,
18438,-1045,3,-86,210,-700,-1050,,,,,,,0x03,
18448,-1050,4,-81,70,-840,-490,,,,,,,0x03,
18458,-1050,8,-75,210,-840,-210,,,,,,,0x03,
18467,-1046,9,-74,700,-420,350,,,,,,,0x03,
18477,-1045,9,-71,1260,-70,700,,,,,,,0x03,
18487,-1043,8,-70,1610,420,980,,,,,,,0x03,
18496,-1037,8,-68,1750,1260,1470,,,,,,,0x03,
18506,-1036,7,-64,1820,2100,1820,,,,,,,0x03,
18516,-1033,8,-66,1750,3290,2170,,,,,,,0x03,
18525,-1021,12,-70,1540,3920,2660,,,,,,,0x03,
18535,-1012,15,-75,1820,3990,2730,,,,,,,0x03,
18545,-1007,15,-70,2100,3500,2520,,,,,,,0x03,
18554,-1004,14,-66,2380,3500,2380,,,,,,,0x03,
18564,-997,16,-64,2590,3780,2590,,,,,,,0x03,
18574,-992,19,-61,2730,3710,2800,,,,,,,0x03,
18584,-988,24,-61,3080,3500,2870,,,,,,,0x03,
18593,-984,27,-63,3360,3220,2870,,,,,,,0x03,
18603,-985,24,-63,3570,2870,2590,,,,,,,0x03,
18613,-988,21,-68,3640,2730,2590,,,,,,,0x03,
18622,-989,21,-67,3290,2520,2800,,,,,,,0x03,
18632,-989,23,-67,3220,2030,3290,,,,,,,0x03,
18642,-990,24,-65,3010,1260,3990,,,,,,,0x03,
18651,-990,26,-64,2870,420,4830,,,,,,,0x03,
18661,-991,30,-60,2870,-140,5110,,,,,,,0x03,
18671,-994,32,-56,2870,-630,5040,,,,,,,0x03,
18680,-996,31,-55,3150,-840,4970,,,,,,,0x03,
18690,-1000,30,-54,3360,-770,4900,,,,,,,0x03,
18700,-1002,25,-53,3780,-560,4620,,,,,,,0x03,
18709,-1004,20,-57,3990,-210,4410,,,,,,,0x03,
18719,-1007,17,-57,4060,-140,4270,,,,,,,0x03,
18729,-1007,16,-57,4130,-280,4200,,,,,,,0x03,
18738,-1010,12,-54,4270,-420,3850,,,,,,,0x03,
18748,-1011,6,-56,4970,-420,4060,,,,,,,0x03,
18758,-1012,2,-55,5460,-770,4410,,,,,,,0x03,
18767,-1010,0,-53,5530,-910,4970,,,,,,,0x03,
18777,-1006,0,-53,5530,-560,5180,,,,,,,0x03,
18787,-1002,-1,-57,5110,140,4970,,,,,,,0x03,
18796,-996,-1,-61,4830,630,4410,,,,,,,0x03,
18806,-992,-6,-68,4620,770,3500,,,,,,,0x03,
18816,-994,-16,-68,4340,980,2730,,,,,,,0x03,
18825,-996,-24,-72,3500,1680,2660,,,,,,,0x03,
18835,-989,-23,-78,2520,2240,2870,,,,,,,0x03,
18845,-984,-21,-82,1820,1960,2940,,,,,,,0x03,
18854,-981,-19,-85,1260,1190,2590,,,,,,,0x03,
18864,-977,-20,-85,770,700,2310,,,,,,,0x03,
18874,-970,-17,-92,-70,770,2170,,,,,,,0x03,
18883,-962,-13,-97,-1470,770,1750,,,,,,,0x03,
18893,-958,-6,-96,-2940,350,700,,,,,,,0x03,
18903,-961,-2,-90,-4200,-420,-280,,,,,,,0x03,
18912,-965,0,-81,-4830,-980,-770,,,,,,,0x03,
18922,-969,4,-79,-5180,-1120,-910,,,,,,,0x03,
18932,-971,8,-80,-5740,-1330,-910,,,,,,,0x03,
18941,-975,10,-78,-6300,-1540,-980,,,,,,,0x03,
18951,-979,16,-77,-6860,-1540,-700,,,,,,,0x03,
18961,-983,25,-72,-7420,-1610,-420,,,,,,,0x03,
18970,-988,32,-66,-7770,-1470,-560,,,,,,,0x03,
18980,-991,41,-63,-7700,-980,-560,,,,,,,0x03,
18990,-993,49,-65,-7210,-840,-280,,,,,,,0x03,
18999,-994,58,-68,-6930,-1050,-210,,,,,,,0x03,
19009,-998,64,-63,-6370,-1680,-490,,,,,,,0x03,
19019,-1010,66,-54,-5460,-2240,-700,,,,,,,0x03,
19029,-1021,68,-49,-4480,-1890,-280,,,,,,,0x03,
19038,-1025,69,-46,-3640,-1120,490,,,,,,,0x03,
19048,-1029,72,-47,-2870,-140,1190,,,,,,,0x03,
19058,-1028,74,-50,-2170,770,1680,,,,,,,0x03,
19067,-1028,78,-52,-1330,1330,1680,,,,,,,0x03,
19077,-1032,80,-50,-350,1820,1680,,,,,,,0x03,
19087,-1033,75,-49,630,2170,1400,,,,,,,0x03,
19096,-1033,76,-49,1680,2520,1330,,,,,,,0x03,
19106,-1040,70,-44,2030,3290,1610,,,,,,,0x03,
19116,-1042,65,-41,2520,3990,1750,,,,,,,0x03,
19125,-1041,60,-41,3010,4550,2170,,,,,,,0x03,
19135,-1034,60,-43,3640,4480,2450,,,,,,,0x03,
19145,-1026,55,-45,4130,3990,2590,,,,,,,0x03,
19154,-1022,51,-44,4760,3430,2100,,,,,,,0x03,
19164,-1018,45,-43,5110,2940,1470,,,,,,,0x03,
19174,-1023,35,-41,5460,2870,1050,,,,,,,0x03,
19183,-1024,28,-37,5460,2940,910,,,,,,,0x03,
19193,-1018,34,-28,4620,3710,-280,,,,,,,0x03,
19203,-1018,24,-34,3710,7000,-3360,,,,,,,0x03,
19212,-1018,11,-37,3570,8610,-5950,,,,,,,0x03,
19222,-1023,-4,-49,3850,10220,-7490,,,,,,,0x03,
19232,-1025,-19,-60,4060,11130,-7980,,,,,,,0x03,
19241,-1019,-30,-73,4200,11340,-8050,,,,,,,0x03,
19251,-1006,-37,-90,4410,10850,-8120,,,,,,,0x03,
19261,-998,-46,-105,4620,9100,-8540,,,,,,,0x03,
19270,-997,-56,-116,4620,6440,-9030,,,,,,,0x03,
19280,-996,-66,-123,3850,3780,-9380,,,,,,,0x03,
19290,-994,-72,-126,2590,2450,-9100,,,,,,,0x03,
19299,-985,-69,-133,1260,2310,-8540,,,,,,,0x03,
19309,-975,-63,-137,-70,2310,-7980,,,,,,,0x03,
19319,-971,-55,-141,-1050,2100,-7000,,,,,,,0x03,
19328,-965,-45,-140,-2170,1750,-5670,,,,,,,0x03,
19338,-958,-26,-141,-3080,1610,-4200,,,,,,,0x03,
19348,-949,-5,-138,-3850,1330,-3080,,,,,,,0x03,
19357,-939,13,-133,-4550,840,-2310,,,,,,,0x03,
19367,-934,31,-123,-5320,630,-2450,,,,,,,0x03,
19377,-937,44,-114,-6230,420,-2520,,,,,,,0x03,
19386,-947,56,-99,-6370,-350,-2310,,,,,,,0x03,
19396,-948,62,-90,-6020,-490,-2030,,,,,,,0x03,
19406,-950,71,-86,-5670,-840,-1190,,,,,,,0x03,
19415,-956,76,-76,-5040,-1400,-1120,,,,,,,0x03,
19425,-961,76,-68,-4760,-1680,-1820,,,,,,,0x03,
19435,-973,74,-59,-4340,-2170,-2590,,,,,,,0x03,
19444,-981,63,-50,-3640,-2660,-3640,,,,,,,0x03,
19454,-997,49,-40,-2800,-3150,-3990,,,,,,,0x03,
19464,-1010,35,-31,-2240,-3150,-3990,,,,,,,0x03,
19474,-1021,23,-29,-1680,-3220,-3640,,,,,,,0x03,
19483,-1029,12,-32,-1190,-3570,-3080,,,,,,,0x03,
19493,-1037,0,-29,-1260,-3990,-2520,,,,,,,0x03,
19503,-1047,-6,-31,-1260,-4410,-1540,,,,,,,0x03,
19512,-1044,-9,-33,-980,-4620,-490,,,,,,,0x03,
19522,-1041,-10,-40,-630,-4620,490,,,,,,,0x03,
19532,-1034,-12,-54,-140,-4480,1050,,,,,,,0x03,
19541,-1025,-15,-73,-70,-3990,1120,,,,,,,0x03,
19551,-1018,-18,-91,-420,-3500,770,,,,,,,0x03,
19561,-1013,-21,-106,-1120,-3220,420,,,,,,,0x03,
19570,-1003,-20,-119,-1750,-3010,630,,,,,,,0x03,
19580,-996,-18,-133,-2170,-2940,1190,,,,,,,0x03,
19590,-989,-17,-146,-2870,-3010,1610,,,,,,,0x03,
19599,-987,-17,-153,-3780,-3220,1470,,,,,,,0x03,
19609,-986,-14,-156,-4900,-3290,1470,,,,,,,0x03,
19619,-985,-6,-153,-5880,-3430,1890,,,,,,,0x03,
19628,-983,7,-144,-6440,-3640,2240,,,,,,,0x03,
19638,-987,23,-132,-6720,-3990,2800,,,,,,,0x03,
19648,-986,41,-117,-6370,-4550,3500,,,,,,,0x03,
19657,-984,59,-105,-5250,-5040,4410,,,,,,,0x03,
19667,-982,77,-93,-3570,-6020,5530,,,,,,,0x03,
19677,-982,90,-79,-1750,-6930,6510,,,,,,,0x03,
19686,-982,102,-65,70,-7490,6790,,,,,,,0x03,
19696,-982,109,-50,1750,-7210,6440,,,,,,,0x03,
19706,-986,111,-37,3080,-6020,4970,,,,,,,0x03,
19715,-990,108,-30,4340,-3990,2590,,,,,,,0x03,
19725,-990,102,-29,5530,-1820,0,,,,,,,0x03,
19735,-991,94,-31,6790,-280,-2100,,,,,,,0x03,
19744,-993,83,-32,8540,0,-3290,,,,,,,0x03,
19754,-1002,70,-32,10360,-560,-3360,,,,,,,0x03,
19764,-1006,55,-34,12040,-1190,-3010,,,,,,,0x03,
19773,-1009,43,-38,13370,-1470,-2660,,,,,,,0x03,
19783,-1008,29,-47,14280,-1400,-2450,,,,,,,0x03,
19793,-1005,18,-59,14910,-1330,-2380,,,,,,,0x03,
19802,-1002,8,-68,14980,-1540,-2310,,,,,,,0x03,
19812,-999,3,-77,15050,-1820,-2030,,,,,,,0x03,
19822,-996,-4,-87,15050,-2240,-1610,,,,,,,0x03,
19831,-999,-9,-92,15050,-3220,-1190,,,,,,,0x03,
19841,-995,-15,-97,14840,-3710,-1190,,,,,,,0x03,
19851,-996,-17,-99,14140,-3920,-1190,,,,,,,0x03,
19860,-997,-22,-103,13440,-3850,-1890,,,,,,,0x03,
19870,-1000,-31,-100,12810,-3710,-2310,,,,,,,0x03,
19880,-1005,-38,-100,11690,-3430,-2310,,,,,,,0x03,
19889,-1011,-43,-98,10150,-3080,-2030,,,,,,,0x03,
19899,-1014,-47,-90,8960,-3010,-1610,,,,,,,0x03,
19909,-1015,-51,-95,7910,-1890,-1540,,,,,,,0x03,
19919,-1013,-51,-99,6580,-1400,-1260,,,,,,,0x03,
19928,-1006,-52,-95,5250,-1190,-1470,,,,,,,0x03,
19938,-1006,-52,-91,3780,-630,-1330,,,,,,,0x03,
19948,-1003,-52,-91,2240,-350,-770,,,,,,,0x03,
19957,-999,-49,-86,840,-560,-280,,,,,,,0x03,
19967,-1000,-43,-80,-280,-1190,210,,,,,,,0x03,
19977,-997,-38,-73,-1120,-1750,560,,,,,,,0x03,
19986,-991,-31,-70,-1820,-1960,630,,,,,,,0x03,
19996,-986,-23,-67,-2730,-2030,490,,,,,,,0x03,
20006,-983,-15,-64,-3360,-2240,-70,,,,,,,0x03,
20015,-979,-10,-59,-3780,-2590,-420,,,,,,,0x03,
20025,-983,-5,-59,-3990,-3010,-350,,,,,,,0x03,
20035,-981,-4,-58,-4270,-3290,-140,,,,,,,0x03,
20044,-984,0,-55,-4830,-3710,-140,,,,,,,0x03,
20054,-988,2,-54,-5110,-4130,-140,,,,,,,0x03,
20064,-992,2,-52,-5460,-4690,0,,,,,,,0x03,
20073,-997,7,-48,-5390,-5040,-70,,,,,,,0x03,
20083,-1000,8,-49,-5390,-5250,0,,,,,,,0x03,
20093,-1001,12,-51,-5390,-5460,140,,,,,,,0x03,
20102,-1002,13,-52,-5320,-5530,280,,,,,,,0x03,
20112,-1001,17,-55,-5390,-5460,490,,,,,,,0x03,
20122,-1001,22,-54,-5460,-5460,840,,,,,,,0x03,
20131,-998,27,-55,-5460,-5740,1190,,,,,,,0x03,
20141,-996,32,-52,-5040,-6300,1540,,,,,,,0x03,
20151,-997,36,-50,-4270,-6650,1610,,,,,,,0x03,
20160,-994,39,-50,-3570,-6720,1750,,,,,,,0x03,
20170,-989,48,-53,-3290,-6300,1330,,,,,,,0x03,
20180,-995,44,-46,-2940,-5460,210,,,,,,,0x03,
20189,-999,43,-48,-2240,-4690,0,,,,,,,0x03,
20199,-1002,43,-53,-1680,-4410,140,,,,,,,0x03,
20209,-1003,43,-54,-1120,-4550,490,,,,,,,0x03,
20218,-1005,43,-55,-350,-4480,700,,,,,,,0x03,
20228,-1010,38,-55,70,-4270,840,,,,,,,0x03,
20238,-1015,35,-56,0,-3640,840,,,,,,,0x03,
20247,-1018,32,-58,-140,-2870,840,,,,,,,0x03,
20257,-1021,29,-58,-70,-2520,840,,,,,,,0x03,
20267,-1026,25,-57,70,-2450,770,,,,,,,0x03,
20276,-1028,21,-55,140,-2380,1050,,,,,,,0x03,
20286,-1027,19,-55,280,-2240,1540,,,,,,,0x03,
20296,-1026,18,-55,210,-2240,1890,,,,,,,0x03,
20305,-1026,18,-51,140,-2170,2100,,,,,,,0x03,
20315,-1027,16,-46,140,-1960,1960,,,,,,,0x03,
20325,-1027,14,-39,140,-1680,1610,,,,,,,0x03,
20334,-1027,14,-35,280,-1260,1470,,,,,,,0x03,
20344,-1022,12,-37,420,-840,1190,,,,,,,0x03,
20354,-1022,10,-33,280,-420,770,,,,,,,0x03,
20364,-1022,8,-32,210,0,560,,,,,,,0x03,
20373,-1018,8,-32,280,350,700,,,,,,,0x03,
20383,-1014,7,-33,770,630,700,,,,,,,0x03,
20393,-1015,2,-37,910,770,350,,,,,,,0x03,
20402,-1012,-2,-38,910,1050,-140,,,,,,,0x03,
20412,-1008,-4,-43,980,1400,-490,,,,,,,0x03,
20422,-1006,-7,-47,630,1680,-700,,,,,,,0x03,
20431,-1001,-8,-55,-70,2030,-630,,,,,,,0x03,
20441,-995,-5,-58,-840,1890,-630,,,,,,,0x03,
20451,-994,-3,-57,-1470,1470,-700,,,,,,,0x03,
20460,-992,0,-55,-1960,1190,-770,,,,,,,0x03,
20470,-989,5,-53,-2310,1050,-700,,,,,,,0x03,
20480,-984,10,-55,-2380,840,-840,,,,,,,0x03,
20489,-983,13,-56,-2590,490,-1050,,,,,,,0x03,
20499,-981,17,-54,-2660,210,-1400,,,,,,,0x03,
20509,-982,21,-50,-2660,-140,-1610,,,,,,,0x03,
20518,-986,23,-48,-2520,-350,-1680,,,,,,,0x03,
20528,-985,27,-49,-2100,-420,-1540,,,,,,,0x03,
20538,-984,29,-51,-1820,-630,-1470,,,,,,,0x03,
20547,-985,31,-54,-1820,-840,-1540,,,,,,,0x03,
20557,-984,33,-55,-2030,-1050,-1540,,,,,,,0x03,
20567,-985,35,-55,-2170,-1400,-1470,,,,,,,0x03,
20576,-986,38,-52,-2100,-1680,-1120,,,,,,,0x03,
20586,-990,40,-51,-2100,-1890,-910,,,,,,,0x03,
20596,-994,41,-47,-1890,-2170,-770,,,,,,,0x03,
20605,-996,42,-45,-1470,-2240,-490,,,,,,,0x03,
20615,-997,42,-46,-980,-2310,-140,,,,,,,0x03,
20625,-1000,39,-48,-560,-2310,210,,,,,,,0x03,
20634,-1004,35,-46,-350,-2660,420,,,,,,,0x03,
20644,-1005,32,-45,-210,-2380,560,,,,,,,0x03,
20654,-1006,28,-46,-280,-2100,560,,,,,,,0x03,
20663,-1008,25,-48,-490,-1680,630,,,,,,,0x03,
20673,-1008,23,-49,-630,-1400,700,,,,,,,0x03,
20683,-1009,21,-46,-490,-1330,630,,,,,,,0x03,
20692,-1011,20,-48,-70,-1260,700,,,,,,,0x03,
20702,-1013,20,-51,210,-1330,910,,,,,,,0x03,
20712,-1014,17,-50,350,-1400,910,,,,,,,0x03,
20721,-1018,15,-49,280,-980,630,,,,,,,0x03,
20731,-1017,12,-48,280,-350,420,,,,,,,0x03,
20741,-1019,9,-49,210,140,350,,,,,,,0x03,
20750,-1017,8,-51,140,420,210,,,,,,,0x03,
20760,-1013,9,-53,210,560,140,,,,,,,0x03,
20770,-1009,11,-56,280,350,70,,,,,,,0x03,
20779,-1008,11,-59,280,280,-140,,,,,,,0x03,
20789,-1008,10,-60,210,420,-560,,,,,,,0x03,
20799,-1007,9,-61,-140,700,-840,,,,,,,0x03,
20809,-1010,9,-63,-350,980,-840,,,,,,,0x03,
20818,-1006,11,-64,-630,1050,-630,,,,,,,0x03,
20828,-1003,15,-62,-630,770,-490,,,,,,,0x03,
20838,-1002,18,-60,-490,770,-420,,,,,,,0x03,
20847,-1000,21,-60,-630,840,-350,,,,,,,0x03,
20857,-999,22,-58,-700,1050,-490,,,,,,,0x03,
20867,-999,24,-57,-910,1190,-630,,,,,,,0x03,
20876,-997,26,-58,-700,1260,-560,,,,,,,0x03,
20886,-995,30,-58,-420,1050,-560,,,,,,,0x03,
20896,-994,32,-55,-210,840,-840,,,,,,,0x03,
20905,-997,30,-52,-70,980,-1190,,,,,,,0x03,
20915,-999,28,-51,-140,1260,-1470,,,,,,,0x03,
20925,-999,27,-51,0,1190,-1120,,,,,,,0x03,
20934,-1001,25,-48,210,910,-490,,,,,,,0x03,
20944,-1003,23,-48,350,700,210,,,,,,,0x03,
20954,-1000,21,-50,280,700,840,,,,,,,0x03,
20963,-996,22,-47,210,560,1120,,,,,,,0x03,
20973,-996,25,-47,350,770,1050,,,,,,,0x03,
20983,-991,26,-49,490,1050,980,,,,,,,0x03,
20992,-988,24,-54,700,910,980,,,,,,,0x03,
21002,-987,24,-55,1050,420,1050,,,,,,,0x03,
21012,-986,23,-54,1120,-70,1330,,,,,,,0x03,
21021,-986,25,-55,1190,-350,1470,,,,,,,0x03,
21031,-987,23,-54,1260,-420,1260,,,,,,,0x03,
21041,-987,20,-57,1330,-350,1050,,,,,,,0x03,
21050,-987,20,-62,1400,-420,980,,,,,,,0x03,
21060,-987,18,-65,1120,-910,840,,,,,,,0x03,
21070,-993,15,-61,910,-1470,560,,,,,,,0x03,
21079,-996,14,-60,700,-1470,350,,,,,,,0x03,
21089,-996,15,-62,490,-1330,350,,,,,,,0x03,
21099,-999,12,-62,280,-1330,280,,,,,,,0x03,
21108,-1004,11,-63,140,-1750,280,,,,,,,0x03,
21118,-1005,11,-61,210,-2100,630,,,,,,,0x03,
21128,-1006,14,-58,280,-2380,770,,,,,,,0x03,
21137,-1008,15,-56,280,-2100,700,,,,,,,0x03,
21147,-1011,14,-57,0,-1400,350,,,,,,,0x03,
21157,-1012,13,-56,-350,-840,0,,,,,,,0x03,
21166,-1015,14,-55,-280,-490,-140,,,,,,,0x03,
21176,-1016,13,-54,70,-490,70,,,,,,,0x03,
21186,-1015,12,-55,210,-560,630,,,,,,,0x03,
21195,-1011,15,-56,0,-420,980,,,,,,,0x03,
21205,-1008,18,-57,-210,-140,980,,,,,,,0x03,
21215,-1006,19,-57,-420,280,630,,,,,,,0x03,
21224,-1005,18,-56,-700,560,420,,,,,,,0x03,
21234,-1005,17,-57,-630,770,420,,,,,,,0x03,
21244,-1002,17,-59,-770,770,560,,,,,,,0x03,
21253,-1004,17,-58,-910,490,700,,,,,,,0x03,
21263,-1003,19,-55,-1120,210,910,,,,,,,0x03,
21273,-1002,22,-53,-1190,140,1190,,,,,,,0x03,
21283,-1000,25,-53,-1050,70,1470,,,,,,,0x03,
21292,-995,28,-53,-1190,0,1540,,,,,,,0x03,
21302,-991,32,-55,-1260,-140,1540,,,,,,,0x03,
21312,-989,34,-55,-1260,-280,1190,,,,,,,0x03,
21321,-990,34,-55,-1120,-350,490,,,,,,,0x03,
21331,-993,31,-55,-770,-280,0,,,,,,,0x03,
21341,-995,27,-57,-700,-210,-350,,,,,,,0x03,
21350,-994,25,-58,-490,-490,-350,,,,,,,0x03,
21360,-999,20,-57,-210,-840,-210,,,,,,,0x03,
21370,-998,19,-59,-280,-910,70,,,,,,,0x03,
21379,-994,20,-61,-490,-1120,350,,,,,,,0x03,
21389,-992,19,-59,-770,-1330,140,,,,,,,0x03,
21399,-994,21,-57,-1050,-1190,-140,,,,,,,0x03,
21408,-990,23,-58,-1190,-910,-280,,,,,,,0x03,
21418,-989,22,-60,-1190,-1050,-350,,,,,,,0x03,
21428,-989,24,-62,-1190,-1260,-210,,,,,,,0x03,
21437,-988,28,-61,-1400,-1610,-420,,,,,,,0x03,
21447,-990,27,-57,-1540,-1750,-770,,,,,,,0x03,
21457,-993,26,-55,-1680,-1680,-1120,,,,,,,0x03,
21466,-995,26,-55,-1750,-1540,-1330,,,,,,,0x03,
21476,-1000,24,-55,-1680,-1470,-1330,,,,,,,0x03,
21486,-1005,25,-57,-1610,-1680,-1120,,,,,,,0x03,
21495,-1008,27,-57,-1470,-1820,-910,,,,,,,0x03,
21505,-1008,30,-61,-1470,-1750,-630,,,,,,,0x03,
21515,-1007,33,-62,-1680,-1890,-630,,,,,,,0x03,
21524,-1011,36,-57,-1820,-2100,-910,,,,,,,0x03,
21534,-1014,38,-56,-1680,-2170,-770,,,,,,,0x03,
21544,-1013,41,-53,-1330,-2100,-560,,,,,,,0x03,
21553,-1013,44,-53,-1260,-1750,-490,,,,,,,0x03,
21563,-1012,46,-52,-1120,-1260,-700,,,,,,,0x03,
21573,-1014,44,-49,-1050,-840,-1050,,,,,,,0x03,
21582,-1016,39,-45,-840,-280,-1050,,,,,,,0x03,
21592,-1011,37,-44,-350,70,-420,,,,,,,0x03,
21602,-1005,36,-44,210,350,280,,,,,,,0x03,
21611,-997,35,-45,700,560,840,,,,,,,0x03,
21621,-986,35,-50,1260,840,1540,,,,,,,0x03,
21631,-974,35,-57,1750,980,2100,,,,,,,0x03,
21640,-963,39,-67,2100,910,2590,,,,,,,0x03,
21650,-958,39,-72,2170,560,2800,,,,,,,0x03,
21660,-956,37,-75,2310,0,3080,,,,,,,0x03,
21669,-957,36,-79,2520,-560,3710,,,,,,,0x03,
21679,-958,36,-83,2520,-1260,4410,,,,,,,0x03,
21689,-960,40,-84,2310,-2030,4900,,,,,,,0x03,
21698,-963,44,-83,2170,-3010,4970,,,,,,,0x03,
21708,-972,45,-77,2030,-3780,4690,,,,,,,0x03,
21718,-984,41,-71,1750,-4270,4130,,,,,,,0x03,
21728,-998,36,-65,1330,-4690,3640,,,,,,,0x03,
21737,-1010,30,-54,980,-4970,3430,,,,,,,0x03,
21747,-1021,24,-47,700,-5040,3430,,,,,,,0x03,
21757,-1030,17,-40,350,-4970,3430,,,,,,,0x03,
21766,-1039,10,-30,-210,-4760,3500,,,,,,,0x03,
21776,-1047,6,-22,-560,-4620,3710,,,,,,,0x03,
21786,-1049,4,-16,-770,-4480,3850,,,,,,,0x03,
21795,-1048,5,-13,-980,-4340,3920,,,,,,,0x03,
21805,-1043,6,-11,-840,-3990,3850,,,,,,,0x03,
21815,-1032,7,-13,-700,-3500,3710,,,,,,,0x03,
21824,-1019,11,-24,-210,-2940,3360,,,,,,,0x03,
21834,-1006,16,-36,140,-2730,2870,,,,,,,0x03,
21844,-992,21,-49,560,-2730,2100,,,,,,,0x03,
21853,-985,23,-58,980,-2590,980,,,,,,,0x03,
21863,-981,27,-67,1190,-2380,-210,,,,,,,0x03,
21873,-980,30,-76,1330,-2030,-1400,,,,,,,0x03,
21882,-980,31,-84,1050,-1470,-2450,,,,,,,0x03,
21892,-981,33,-89,630,-1120,-3430,,,,,,,0x03,
21902,-987,33,-89,280,-1050,-4060,,,,,,,0x03,
21911,-994,32,-86,0,-1190,-4270,,,,,,,0x03,
21921,-1001,34,-83,-140,-1400,-4200,,,,,,,0x03,
21931,-1007,35,-77,-630,-1540,-3780,,,,,,,0x03,
21940,-1014,40,-68,-1190,-1540,-3080,,,,,,,0x03,
21950,-1016,46,-58,-1750,-1400,-1960,,,,,,,0x03,
21960,-1017,55,-48,-2100,-1540,-700,,,,,,,0x03,
21969,-1017,63,-39,-2030,-1820,490,,,,,,,0x03,
21979,-1016,73,-27,-1960,-2030,1330,,,,,,,0x03,
21989,-1015,81,-16,-1680,-1890,1540,,,,,,,0x03,
21998,-1014,84,-8,-1330,-1330,1400,,,,,,,0x03,
22008,-1016,82,-3,-1050,-630,1260,,,,,,,0x03,
22018,-1015,81,0,-630,-70,1470,,,,,,,0x03,
22027,-1014,81,3,0,140,1610,,,,,,,0x03,
22037,-1011,77,4,980,210,1680,,,,,,,0x03,
22047,-1010,72,1,1820,210,1890,,,,,,,0x03,
22056,-1009,63,-5,2450,350,1960,,,,,,,0x03,
22066,-1008,54,-10,2800,420,1890,,,,,,,0x03,
22076,-1007,47,-15,2940,490,1680,,,,,,,0x03,
22085,-1005,38,-24,2940,700,1540,,,,,,,0x03,
22095,-1000,34,-31,2940,840,1610,,,,,,,0x03,
22105,-997,29,-39,2730,770,1470,,,,,,,0x03,
22114,-995,24,-43,2520,700,1400,,,,,,,0x03,
22124,-993,21,-48,2100,420,1190,,,,,,,0x03,
22134,-989,18,-53,1540,210,980,,,,,,,0x03,
22143,-989,18,-56,910,-140,910,,,,,,,0x03,
22153,-986,21,-58,420,-560,770,,,,,,,0x03,
22163,-985,27,-63,70,-840,420,,,,,,,0x03,
22173,-984,34,-68,-560,-1120,0,,,,,,,0x03,
22182,-983,41,-71,-1190,-1330,-980,,,,,,,0x03,
22192,-988,47,-70,-1820,-1610,-2240,,,,,,,0x03,
22202,-998,47,-65,-2450,-1960,-3570,,,,,,,0x03,
22211,-1008,45,-56,-3080,-2100,-4410,,,,,,,0x03,
22221,-1013,45,-48,-3710,-2170,-4830,,,,,,,0x03,
22231,-1019,45,-38,-3640,-2170,-5250,,,,,,,0x03,
22240,-1025,41,-30,-3500,-1960,-5810,,,,,,,0x03,
22250,-1024,38,-30,-3150,-1190,-6160,,,,,,,0x03,
22260,-1021,36,-35,-3080,-280,-6160,,,,,,,0x03,
22269,-1018,36,-43,-3360,560,-5880,,,,,,,0x03,
22279,-1012,36,-48,-3570,910,-5810,,,,,,,0x03,
22289,-1011,37,-50,-3920,840,-5600,,,,,,,0x03,
22298,-1011,38,-48,-4060,700,-5320,,,,,,,0x03,
22308,-1012,39,-46,-4130,700,-4690,,,,,,,0x03,
22318,-1011,40,-41,-4060,840,-3920,,,,,,,0x03,
22327,-1009,43,-38,-3990,1050,-3150,,,,,,,0x03,
22337,-1003,49,-37,-3850,1330,-2450,,,,,,,0x03,
22347,-998,49,-40,-3570,1610,-1890,,,,,,,0x03,
22356,-996,49,-45,-3500,1820,-1190,,,,,,,0x03,
22366,-993,54,-48,-3640,1680,-490,,,,,,,0x03,
22376,-991,58,-49,-3640,1330,140,,,,,,,0x03,
22385,-992,61,-45,-3430,770,910,,,,,,,0x03,
22395,-993,64,-45,-2870,560,1330,,,,,,,0x03,
22405,-993,63,-42,-2380,280,1610,,,,,,,0x03,
22414,-997,59,-39,-1890,350,1680,,,,,,,0x03,
22424,-1000,55,-40,-1400,700,1610,,,,,,,0x03,
22434,-998,48,-44,-1190,1050,1610,,,,,,,0x03,
22443,-998,44,-49,-980,1190,1750,,,,,,,0x03,
22453,-997,40,-50,-840,980,1960,,,,,,,0x03,
22463,-996,38,-51,-560,560,2170,,,,,,,0x03,
22472,-994,36,-53,-350,490,2380,,,,,,,0x03,
22482,-994,34,-55,-350,210,2380,,,,,,,0x03,
22492,-994,33,-57,-350,70,2240,,,,,,,0x03,
22501,-994,33,-58,-560,-70,2100,,,,,,,0x03,
22511,-992,33,-58,-420,-210,1820,,,,,,,0x03,
22521,-993,33,-59,-280,-420,1330,,,,,,,0x03,
22530,-996,32,-59,-70,-560,770,,,,,,,0x03,
22540,-1003,29,-56,0,-560,70,,,,,,,0x03,
22550,-1004,27,-59,-140,-350,-210,,,,,,,0x03,
22559,-1001,29,-61,-140,-280,-350,,,,,,,0x03,
22569,-1001,29,-60,0,-560,-700,,,,,,,0x03,
22579,-1003,26,-60,280,-630,-1400,,,,,,,0x03,
22588,-1004,24,-60,420,-490,-2240,,,,,,,0x03,
22598,-1006,22,-63,490,-420,-2590,,,,,,,0x03,
22608,-1006,24,-65,700,-420,-2730,,,,,,,0x03,
22618,-1006,26,-68,700,-490,-3010,,,,,,,0x03,
22627,-1009,27,-66,630,-490,-3570,,,,,,,0x03,
22637,-1012,28,-66,700,-210,-4060,,,,,,,0x03,
22647,-1008,31,-67,700,140,-4200,,,,,,,0x03,
22656,-1007,36,-67,1120,280,-4550,,,,,,,0x03,
22666,-1009,38,-67,1540,70,-4970,,,,,,,0x03,
22676,-1009,40,-64,1890,0,-5180,,,,,,,0x03,
22685,-1010,40,-61,2030,210,-5180,,,,,,,0x03,
22695,-1015,41,-58,1960,630,-4970,,,,,,,0x03,
22705,-1016,43,-55,2030,1050,-4760,,,,,,,0x03,
22714,-1016,44,-51,2030,1470,-4480,,,,,,,0x03,
22724,-1016,42,-49,2520,1890,-4270,,,,,,,0x03,
22734,-1015,42,-46,2940,2170,-3990,,,,,,,0x03,
22743,-1017,38,-42,3080,2450,-3710,,,,,,,0x03,
22753,-1014,38,-39,3220,3010,-3150,,,,,,,0x03,
22763,-1006,39,-38,3570,3360,-2520,,,,,,,0x03,
22772,-996,39,-42,4130,3500,-2100,,,,,,,0x03,
22782,-989,37,-46,4550,3570,-1960,,,,,,,0x03,
22792,-986,34,-53,4550,3640,-2030,,,,,,,0x03,
22801,-980,30,-56,4340,3570,-1960,,,,,,,0x03,
22811,-975,28,-61,4200,3150,-1890,,,,,,,0x03,
22821,-975,24,-63,4340,2450,-1680,,,,,,,0x03,
22830,-979,22,-62,4410,1540,-1050,,,,,,,0x03,
22840,-979,22,-63,4480,770,-280,,,,,,,0x03,
22850,-981,27,-60,4550,140,-140,,,,,,,0x03,
22859,-986,27,-59,4690,0,-560,,,,,,,0x03,
22869,-987,24,-64,4900,560,-1120,,,,,,,0x03,
22879,-991,20,-71,4690,700,-1540,,,,,,,0x03,
22888,-998,13,-74,4410,560,-1820,,,,,,,0x03,
22898,-999,10,-78,4060,350,-1610,,,,,,,0x03,
22908,-1002,9,-77,3570,-140,-1470,,,,,,,0x03,
22917,-1009,6,-72,3220,-490,-1330,,,,,,,0x03,
22927,-1013,5,-67,2870,-560,-980,,,,,,,0x03,
22937,-1011,6,-67,2520,-420,-350,,,,,,,0x03,
22946,-1007,9,-68,2380,-490,70,,,,,,,0x03,
22956,-1005,12,-66,2170,-490,70,,,,,,,0x03,
22966,-1004,15,-66,1890,-350,-70,,,,,,,0x03,
22975,-999,13,-68,1540,-210,-420,,,,,,,0x03,
22985,-998,12,-68,1330,-70,-700,,,,,,,0x03,
22995,-998,10,-68,910,70,-910,,,,,,,0x03,
23004,-999,8,-63,770,-280,-910,,,,,,,0x03,
23014,-999,10,-60,910,-490,-840,,,,,,,0x03,
23024,-1000,10,-60,1050,-630,-980,,,,,,,0x03,
23033,-1001,8,-58,1120,-350,-1260,,,,,,,0x03,
23043,-1003,9,-60,1120,-210,-1400,,,,,,,0x03,
23053,-1003,6,-63,840,-70,-1400,,,,,,,0x03,
23063,-1001,9,-65,420,0,-1400,,,,,,,0x03,
23072,-1000,8,-63,0,-140,-1610,,,,,,,0x03,
23082,-1000,8,-64,-70,-70,-1820,,,,,,,0x03,
23092,-1000,10,-62,-210,-70,-1820,,,,,,,0x03,
23101,-1002,7,-59,-280,70,-1820,,,,,,,0x03,
23111,-1004,6,-59,-560,420,-1540,,,,,,,0x03,
23121,-1001,5,-62,-840,490,-1120,,,,,,,0x03,
23130,-999,7,-64,-910,210,-630,,,,,,,0x03,
23140,-999,9,-61,-1120,-350,-210,,,,,,,0x03,
23150,-1000,11,-57,-1120,-630,-210,,,,,,,0x03,
23159,-998,15,-56,-1260,-560,-210,,,,,,,0x03,
23169,-994,19,-58,-1190,-350,-210,,,,,,,0x03,
23179,-992,21,-60,-1050,-420,-350,,,,,,,0x03,
23188,-992,22,-61,-980,-560,-560,,,,,,,0x03,
23198,-990,24,-62,-700,-630,-700,,,,,,,0x03,
23208,-990,26,-65,-490,-910,-910,,,,,,,0x03,
23217,-993,25,-64,-420,-1190,-980,,,,,,,0x03,
23227,-996,24,-61,-420,-1190,-1190,,,,,,,0x03,
23237,-999,22,-60,-420,-1050,-1330,,,,,,,0x03,
23246,-1002,22,-60,-280,-840,-1330,,,,,,,0x03,
23256,-1004,20,-59,-280,-980,-1330,,,,,,,0x03,
23266,-1004,21,-55,-140,-1120,-1260,,,,,,,0x03,
23275,-1000,22,-54,0,-1190,-910,,,,,,,0x03,
23285,-996,25,-53,350,-1260,-630,,,,,,,0x03,
23295,-992,26,-54,420,-1330,-700,,,,,,,0x03,
23304,-989,28,-57,420,-1190,-1050,,,,,,,0x03,
23314,-988,27,-59,280,-1050,-1470,,,,,,,0x03,
23324,-988,25,-59,210,-1050,-1820,,,,,,,0x03,
23333,-989,25,-60,70,-1260,-2030,,,,,,,0x03,
23343,-991,21,-59,70,-1400,-2310,,,,,,,0x03,
23353,-995,16,-58,-140,-1260,-2240,,,,,,,0x03,
23362,-999,10,-61,-490,-1260,-1890,,,,,,,0x03,
23372,-1000,5,-59,-910,-1470,-1470,,,,,,,0x03,
23382,-1004,1,-57,-1260,-1750,-910,,,,,,,0x03,
23391,-1008,-3,-57,-1680,-1890,-280,,,,,,,0x03,
23401,-1005,-2,-57,-2240,-1750,350,,,,,,,0x03,
23411,-1005,0,-59,-3080,-1680,840,,,,,,,0x03,
23420,-1001,1,-58,-3850,-1750,1120,,,,,,,0x03,
23430,-999,4,-58,-4130,-2030,1330,,,,,,,0x03,
23440,-995,8,-59,-4270,-2520,1540,,,,,,,0x03,
23449,-995,13,-60,-4410,-2870,1540,,,,,,,0x03,
23459,-995,18,-59,-4340,-3080,1330,,,,,,,0x03,
23469,-996,25,-59,-4340,-2940,980,,,,,,,0x03,
23478,-998,28,-60,-4130,-2730,700,,,,,,,0x03,
23488,-998,30,-62,-3570,-2450,350,,,,,,,0x03,
23498,-998,34,-67,-3290,-2170,70,,,,,,,0x03,
23508,-996,38,-70,-3080,-1960,-280,,,,,,,0x03,
23517,-999,41,-72,-2870,-1890,-630,,,,,,,0x03,
23527,-1000,41,-74,-2310,-1890,-910,,,,,,,0x03,
23537,-1004,42,-75,-1680,-1890,-980,,,,,,,0x03,
23546,-1008,42,-76,-1470,-2030,-910,,,,,,,0x03,
23556,-1013,42,-73,-1400,-1750,-770,,,,,,,0x03,
23566,-1016,44,-69,-1540,-1260,-700,,,,,,,0x03,
23575,-1021,43,-60,-1470,-840,-840,,,,,,,0x03,
23585,-1029,42,-56,-1120,-490,-630,,,,,,,0x03,
23595,-1028,41,-52,-490,-350,-70,,,,,,,0x03,
23604,-1029,38,-48,210,-210,210,,,,,,,0x03,
23614,-1030,35,-44,700,70,420,,,,,,,0x03,
23624,-1025,31,-43,1050,700,560,,,,,,,0x03,
23633,-1023,27,-40,1330,1330,560,,,,,,,0x03,
23643,-1022,24,-41,1610,1890,630,,,,,,,0x03,
23653,-1013,20,-42,1680,2240,840,,,,,,,0x03,
23662,-1008,18,-43,1960,2170,840,,,,,,,0x03,
23672,-1003,15,-44,2380,2100,770,,,,,,,0x03,
23682,-996,13,-47,2520,2240,700,,,,,,,0x03,
23691,-988,11,-53,2520,2240,560,,,,,,,0x03,
23701,-979,12,-60,2590,2100,280,,,,,,,0x03,
23711,-973,13,-64,2590,1540,-140,,,,,,,0x03,
23720,-971,12,-65,2590,910,-700,,,,,,,0x03,
23730,-968,12,-66,2590,420,-1330,,,,,,,0x03,
23740,-967,11,-68,2730,-70,-1890,,,,,,,0x03,
23749,-969,9,-73,2870,-350,-2450,,,,,,,0x03,
23759,-966,7,-78,2660,-560,-2870,,,,,,,0x03,
23769,-963,9,-83,2590,-980,-3500,,,,,,,0x03,
23778,-966,9,-87,2520,-1610,-4060,,,,,,,0x03,
23788,-970,7,-91,2590,-2170,-4340,,,,,,,0x03,
23798,-978,8,-93,2310,-2380,-4340,,,,,,,0x03,
23807,-981,11,-95,1820,-2870,-4340,,,,,,,0x03,
23817,-986,14,-95,1540,-3430,-4340,,,,,,,0x03,
23827,-993,15,-92,1400,-4060,-4200,,,,,,,0x03,
23836,-1000,16,-89,1190,-4340,-4060,,,,,,,0x03,
23846,-1008,19,-83,700,-4340,-3990,,,,,,,0x03,
23856,-1014,22,-79,350,-3990,-3710,,,,,,,0x03,
23865,-1019,24,-74,210,-3780,-3150,,,,,,,0x03,
23875,-1025,27,-67,210,-3640,-2450,,,,,,,0x03,
23885,-1029,27,-59,490,-3570,-1610,,,,,,,0x03,
23894,-1031,29,-56,770,-3150,-420,,,,,,,0x03,
23904,-1028,33,-51,980,-2870,630,,,,,,,0x03,
23914,-1028,36,-46,1400,-2520,1400,,,,,,,0x03,
23923,-1026,38,-43,1890,-2100,1750,,,,,,,0x03,
23933,-1029,35,-38,2380,-1470,1820,,,,,,,0x03,
23943,-1034,32,-31,2660,-840,2170,,,,,,,0x03,
23953,-1033,28,-27,3080,-70,2800,,,,,,,0x03,
23962,-1029,25,-27,3500,700,3640,,,,,,,0x03,
23972,-1025,19,-26,3780,1330,4130,,,,,,,0x03,
23982,-1021,11,-26,4130,1960,4340,,,,,,,0x03,
23991,-1015,5,-28,4200,2590,4550,,,,,,,0x03,
24001,-1006,-2,-34,4200,2940,4760,,,,,,,0x03,
24011,-997,-8,-41,4060,3010,4970,,,,,,,0x03,
24020,-988,-12,-44,3920,2730,5040,,,,,,,0x03,
24030,-980,-15,-48,3640,2240,4970,,,,,,,0x03,
24040,-973,-20,-51,3220,1750,4690,,,,,,,0x03,
24049,-969,-24,-58,2660,1400,4270,,,,,,,0x03,
24059,-960,-26,-66,1820,1050,3780,,,,,,,0x03,
24069,-957,-26,-68,980,350,3220,,,,,,,0x03,
24078,-956,-25,-73,350,-560,2520,,,,,,,0x03,
24088,-954,-21,-74,-210,-1540,1820,,,,,,,0x03,
24098,-956,-16,-78,-700,-2450,1190,,,,,,,0x03,
24107,-958,-10,-80,-1400,-3220,560,,,,,,,0x03,
24117,-962,-2,-81,-1890,-3990,-70,,,,,,,0x03,
24127,-967,2,-83,-2380,-4690,-770,,,,,,,0x03,
24136,-974,8,-82,-2870,-5250,-1400,,,,,,,0x03,
24146,-982,13,-81,-3220,-5670,-2100,,,,,,,0x03,
24156,-993,18,-75,-3570,-6020,-2800,,,,,,,0x03,
24165,-1003,22,-70,-3780,-6090,-3290,,,,,,,0x03,
24175,-1012,25,-68,-3850,-5950,-3430,,,,,,,0x03,
24185,-1019,28,-62,-4060,-5810,-3430,,,,,,,0x03,
24194,-1024,31,-59,-3920,-5530,-3290,,,,,,,0x03,
24204,-1029,35,-55,-3850,-5180,-2870,,,,,,,0x03,
24214,-1031,38,-48,-3570,-4900,-2520,,,,,,,0x03,
24223,-1036,40,-43,-3360,-4620,-1890,,,,,,,0x03,
24233,-1036,43,-37,-3220,-4200,-1260,,,,,,,0x03,
24243,-1035,49,-33,-2800,-3640,-630,,,,,,,0x03,
24252,-1029,53,-30,-2450,-3150,-420,,,,,,,0x03,
24262,-1026,57,-28,-1750,-2590,-420,,,,,,,0x03,
24272,-1023,58,-25,-1050,-1820,-420,,,,,,,0x03,
24281,-1020,58,-28,-490,-980,-210,,,,,,,0x03,
24291,-1016,56,-30,-70,-490,70,,,,,,,0x03,
24301,-1012,53,-31,350,-70,560,,,,,,,0x03,
24310,-1010,49,-37,980,280,1050,,,,,,,0x03,
24320,-1007,46,-42,1400,280,1330,,,,,,,0x03,
24330,-1005,41,-45,1750,70,1400,,,,,,,0x03,
24339,-1002,36,-48,2030,140,1610,,,,,,,0x03,
24349,-1001,34,-50,2030,140,1540,,,,,,,0x03,
24359,-1002,30,-50,2030,280,1400,,,,,,,0x03,
24368,-999,28,-53,2100,560,1470,,,,,,,0x03,
24378,-996,27,-58,2170,630,1540,,,,,,,0x03,
24388,-993,26,-60,2240,280,1540,,,,,,,0x03,
24398,-992,27,-61,2310,-140,1400,,,,,,,0x03,
24407,-990,26,-62,2170,-210,1120,,,,,,,0x03,
24417,-989,25,-62,1750,-70,490,,,,,,,0x03,
24427,-992,22,-60,1540,140,-280,,,,,,,0x03,
24436,-992,21,-60,1540,280,-630,,,,,,,0x03,
24446,-992,18,-61,1680,70,-770,,,,,,,0x03,
24456,-991,17,-64,1750,-210,-420,,,,,,,0x03,
24465,-988,19,-66,1540,-700,-280,,,,,,,0x03,
24475,-988,20,-64,1400,-1190,-350,,,,,,,0x03,
24485,-990,21,-62,1260,-1400,-490,,,,,,,0x03,
24494,-994,21,-59,770,-1610,-840,,,,,,,0x03,
24504,-999,18,-54,420,-1610,-1120,,,,,,,0x03,
24514,-1003,18,-50,0,-1540,-1120,,,,,,,0x03,
24523,-1005,19,-45,-140,-1680,-910,,,,,,,0x03,
24533,-1007,20,-43,-140,-1750,-700,,,,,,,0x03,
24543,-1007,21,-41,-140,-1820,-420,,,,,,,0x03,
24552,-1009,22,-40,-70,-2100,-140,,,,,,,0x03,
24562,-1009,25,-35,-70,-2310,-70,,,,,,,0x03,
24572,-1009,26,-32,70,-2240,-140,,,,,,,0x03,
24581,-1009,27,-33,140,-1890,-210,,,,,,,0x03,
24591,-1006,30,-37,140,-1470,-350,,,,,,,0x03,
24601,-1001,32,-41,280,-1260,-560,,,,,,,0x03,
24610,-1001,32,-42,420,-1400,-840,,,,,,,0x03,
24620,-999,28,-46,700,-1400,-910,,,,,,,0x03,
24630,-999,27,-48,770,-1330,-770,,,,,,,0x03,
24639,-996,27,-52,770,-1260,-840,,,,,,,0x03,
24649,-994,26,-50,770,-1260,-1190,,,,,,,0x03,
24659,-998,25,-50,840,-1190,-1610,,,,,,,0x03,
24668,-997,23,-52,980,-1260,-1680,,,,,,,0x03,
24678,-998,20,-54,980,-1260,-1610,,,,,,,0x03,
24688,-998,21,-56,840,-1470,-1470,,,,,,,0x03,
24697,-998,21,-54,630,-1470,-1470,,,,,,,0x03,
24707,-1000,21,-53,350,-1330,-1400,,,,,,,0x03,
24717,-1001,21,-52,420,-1190,-1330,,,,,,,0x03,
24726,-1003,22,-49,420,-1260,-1190,,,,,,,0x03,
24736,-1006,20,-48,560,-1330,-1120,,,,,,,0x03,
24746,-1007,22,-47,560,-1470,-840,,,,,,,0x03,
24755,-1006,22,-45,560,-1400,-910,,,,,,,0x03,
24765,-1007,23,-45,420,-1050,-1120,,,,,,,0x03,
24775,-1007,22,-45,280,-700,-1260,,,,,,,0x03,
24784,-1006,19,-46,420,-490,-1190,,,,,,,0x03,
24794,-1006,17,-49,490,-560,-840,,,,,,,0x03,
24804,-1006,20,-49,560,-1050,-420,,,,,,,0x03,
24813,-1008,19,-44,630,-1470,-210,,,,,,,0x03,
24823,-1010,18,-43,560,-1190,-140,,,,,,,0x03,
24833,-1009,18,-46,280,-560,-210,,,,,,,0x03,
24843,-1007,19,-47,0,-210,-490,,,,,,,0x03,
24852,-1007,19,-48,140,-70,-700,,,,,,,0x03,
24862,-1007,16,-50,350,-140,-840,,,,,,,0x03,
24872,-1006,16,-53,420,-420,-700,,,,,,,0x03,
24881,-1007,15,-53,490,-560,-490,,,,,,,0x03,
24891,-1004,14,-53,280,-630,-350,,,,,,,0x03,
24901,-1002,16,-53,210,-560,-490,,,,,,,0x03,
24910,-999,17,-53,210,-420,-630,,,,,,,0x03,
24920,-999,17,-51,70,-280,-700,,,,,,,0x03,
24930,-998,17,-51,-70,-280,-560,,,,,,,0x03,
24939,-996,20,-51,-70,-350,-560,,,,,,,0x03,
24949,-998,21,-48,-70,-560,-560,,,,,,,0x03,
24959,-998,21,-46,0,-700,-420,,,,,,,0x03,
24968,-996,23,-44,0,-770,-280,,,,,,,0x03,
24978,-996,24,-44,140,-630,-420,,,,,,,0x03,
24988,-994,23,-45,70,-630,-630,,,,,,,0x03,
24997,-994,22,-46,140,-560,-700,,,,,,,0x03,
25007,-995,22,-45,70,-770,-630,,,,,,,0x03,
25017,-994,24,-43,70,-910,-560,,,,,,,0x03,
25026,-996,24,-41,210,-980,-700,,,,,,,0x03,
25036,-998,21,-44,210,-910,-700,,,,,,,0x03,
25046,-998,20,-44,280,-840,-420,,,,,,,0x03,
25055,-997,22,-45,280,-1050,-140,,,,,,,0x03,
25065,-998,22,-43,420,-1400,-70,,,,,,,0x03,
25075,-999,22,-43,420,-1400,-210,,,,,,,0x03,
25084,-1001,22,-45,420,-1260,-280,,,,,,,0x03,
25094,-1003,19,-44,490,-1120,-630,,,,,,,0x03,
25104,-1006,17,-48,350,-980,-770,,,,,,,0x03,
25113,-1004,17,-51,490,-1050,-700,,,,,,,0x03,
25123,-1003,15,-52,770,-1330,-560,,,,,,,0x03,
25133,-1005,14,-52,700,-1470,-490,,,,,,,0x03,
25142,-1003,14,-53,630,-1260,-490,,,,,,,0x03,
25152,-1003,14,-53,350,-1190,-490,,,,,,,0x03,
25162,-1006,13,-52,280,-1190,-490,,,,,,,0x03,
25171,-1006,12,-52,140,-1050,-490,,,,,,,0x03,
25181,-1008,12,-51,0,-840,-420,,,,,,,0x03,
25191,-1007,15,-52,-350,-630,-350,,,,,,,0x03,
25200,-1007,17,-51,-560,-630,-280,,,,,,,0x03,
25210,-1005,18,-50,-560,-560,-280,,,,,,,0x03,
25220,-1003,17,-51,-630,-560,-350,,,,,,,0x03,
25229,-1005,18,-47,-560,-700,-420,,,,,,,0x03,
25239,-1005,19,-44,-560,-560,-350,,,,,,,0x03,
25249,-1002,22,-44,-560,-490,-140,,,,,,,0x03,
25258,-999,23,-47,-420,-280,70,,,,,,,0x03,
25268,-995,28,-47,-490,-280,140,,,,,,,0x03,
25278,-994,29,-45,-560,-490,70,,,,,,,0x03,
25288,-993,31,-43,-490,-630,-70,,,,,,,0x03,
25297,-992,33,-39,-210,-910,-210,,,,,,,0x03,
25307,-993,34,-37,420,-980,-490,,,,,,,0x03,
25317,-995,28,-38,770,-910,-910,,,,,,,0x03,
25326,-999,23,-40,910,-840,-1190,,,,,,,0x03,
25336,-1003,20,-43,700,-560,-1120,,,,,,,0x03,
25346,-1003,18,-45,490,-630,-980,,,,,,,0x03,
25355,-1007,16,-47,560,-700,-910,,,,,,,0x03,
25365,-1008,12,-47,420,-840,-700,,,,,,,0x03,
25375,-1009,11,-50,280,-840,-280,,,,,,,0x03,
25384,-1007,13,-50,140,-980,140,,,,,,,0x03,
25394,-1004,15,-52,140,-1120,70,,,,,,,0x03,
25404,-1004,14,-51,70,-980,-140,,,,,,,0x03,
25413,-1001,15,-50,-280,-700,-210,,,,,,,0x03,
25423,-1000,18,-50,-490,-420,-350,,,,,,,0x03,
25433,-1001,20,-48,-420,-490,-350,,,,,,,0x03,
25442,-1002,21,-47,-350,-630,-210,,,,,,,0x03,
25452,-999,22,-47,-140,-630,0,,,,,,,0x03,
25462,-998,25,-48,-140,-770,210,,,,,,,0x03,
25471,-997,26,-45,-70,-770,0,,,,,,,0x03,
25481,-998,26,-46,-140,-630,-350,,,,,,,0x03,
25491,-996,24,-48,-70,-350,-560,,,,,,,0x03,
25500,-998,23,-48,-70,-350,-770,,,,,,,0x03,
25510,-1001,22,-45,0,-560,-840,,,,,,,0x03,
25520,-1005,20,-42,140,-700,-910,,,,,,,0x03,
25529,-1007,17,-40,140,-700,-840,,,,,,,0x03,
25539,-1008,17,-41,70,-700,-490,,,,,,,0x03,
25549,-1004,18,-44,70,-770,-140,,,,,,,0x03,
25558,-1003,17,-46,70,-980,0,,,,,,,0x03,
25568,-1001,21,-47,-140,-910,70,,,,,,,0x03,
25578,-997,23,-46,-350,-840,0,,,,,,,0x03,
25587,-998,24,-46,-280,-700,-280,,,,,,,0x03,
25597,-998,23,-46,-70,-700,-560,,,,,,,0x03,
25607,-998,23,-47,0,-770,-420,,,,,,,0x03,
25616,-998,24,-49,210,-1050,-280,,,,,,,0x03,
25626,-1001,22,-50,280,-1260,-350,,,,,,,0x03,
25636,-1003,23,-50,210,-1120,-700,,,,,,,0x03,
25645,-1004,22,-48,0,-840,-910,,,,,,,0x03,
25655,-1007,20,-48,-140,-700,-1120,,,,,,,0x03,
25665,-1008,20,-48,140,-560,-1190,,,,,,,0x03,
25674,-1011,17,-48,280,-630,-1050,,,,,,,0x03,
25684,-1011,18,-48,350,-560,-770,,,,,,,0x03,
25694,-1011,16,-48,210,-350,-630,,,,,,,0x03,
25703,-1009,17,-49,140,0,-490,,,,,,,0x03,
25713,-1006,19,-51,210,140,-490,,,,,,,0x03,
25723,-1005,19,-51,210,0,-560,,,,,,,0x03,
25733,-1003,20,-51,280,-70,-560,,,,,,,0x03,
25742,-1000,21,-51,350,-140,-490,,,,,,,0x03,
25752,-1000,22,-49,140,-140,-420,,,,,,,0x03,
25762,-1001,21,-47,70,0,-490,,,,,,,0x03,
25771,-1000,22,-47,0,140,-490,,,,,,,0x03,
25781,-999,22,-45,0,210,-420,,,,,,,0x03,
25791,-998,22,-45,0,140,-350,,,,,,,0x03,
25800,-995,25,-45,210,0,-420,,,,,,,0x03,
25810,-995,24,-45,490,-140,-490,,,,,,,0x03,
25820,-995,23,-46,560,-280,-490,,,,,,,0x03,
25829,-995,23,-46,350,-420,-420,,,,,,,0x03,
25839,-998,24,-43,210,-560,-560,,,,,,,0x03,
25849,-999,22,-40,420,-490,-910,,,,,,,0x03,
25858,-1001,22,-41,560,-280,-910,,,,,,,0x03,
25868,-999,21,-44,700,-210,-770,,,,,,,0x03,
25878,-998,19,-47,910,-350,-630,,,,,,,0x03,
25887,-1000,15,-49,840,-490,-490,,,,,,,0x03,
25897,-998,15,-51,700,-560,-280,,,,,,,0x03,
25907,-998,15,-50,560,-700,-350,,,,,,,0x03,
25916,-1000,14,-51,490,-770,-420,,,,,,,0x03,
25926,-1003,12,-51,350,-700,-420,,,,,,,0x03,
25936,-1001,13,-51,140,-770,-420,,,,,,,0x03,
25945,-1000,15,-51,280,-770,-280,,,,,,,0x03,
25955,-999,14,-53,210,-770,-280,,,,,,,0x03,
25965,-999,15,-52,140,-770,-280,,,,,,,0x03,
25974,-1000,15,-51,-70,-700,-280,,,,,,,0x03,
25984,-999,17,-51,-280,-700,-140,,,,,,,0x03,
25994,-999,19,-51,-210,-910,-140,,,,,,,0x03,
26003,-1001,19,-48,-140,-1190,-210,,,,,,,0x03,
26013,-1002,19,-45,0,-1050,-420,,,,,,,0x03,
26023,-1004,19,-46,70,-840,-630,,,,,,,0x03,
26032,-1005,17,-47,0,-630,-700,,,,,,,0x03,
26042,-1006,15,-49,0,-420,-700,,,,,,,0x03,
