#Format version: 1.0
time[ms],accX[mg],accY[mg],accZ[mg],gyroX[mdps],gyroY[mdps],gyroZ[mdps],magnX[mG],magnY[mG],magnZ[mG],press[hPa],temp[°C],hum[0,-748,608,89,14280,2380,280,,,,,,,0x03,
10,-757,602,99,11830,1680,-700,,,,,,,0x03,
19,-765,634,89,11340,840,-1400,,,,,,,0x03,
29,-765,666,92,8050,-140,-560,,,,,,,0x03,
39,-765,664,95,1820,-1400,-70,,,,,,,0x03,
48,-757,660,96,-4760,-2030,-140,,,,,,,0x03,
58,-753,654,96,-8750,-1960,70,,,,,,,0x03,
67,-756,630,100,-10990,-2450,280,,,,,,,0x03,
77,-759,598,91,-12110,-2940,560,,,,,,,0x03,
87,-759,583,84,-10570,-2660,630,,,,,,,0x03,
96,-764,593,97,-8960,-2660,700,,,,,,,0x03,
106,-763,617,113,-8050,-2450,350,,,,,,,0x03,
116,-754,630,108,-8400,-2310,280,,,,,,,0x03,
125,-749,620,110,-7910,-1890,280,,,,,,,0x03,
135,-755,599,98,-6090,-1190,490,,,,,,,0x03,
145,-767,589,96,-2660,-490,0,,,,,,,0x03,
154,-763,597,98,1610,-140,-140,,,,,,,0x03,
164,-752,627,88,5180,280,0,,,,,,,0x03,
174,-746,660,87,6790,70,140,,,,,,,0x03,
183,-756,659,105,5600,-140,490,,,,,,,0x03,
193,-759,657,116,2870,-210,0,,,,,,,0x03,
202,-754,641,106,1120,-420,-420,,,,,,,0x03,
212,-756,617,98,-420,-910,-70,,,,,,,0x03,
222,-761,634,99,-560,-1120,-630,,,,,,,0x03,
231,-758,679,98,70,-1400,-1400,,,,,,,0x03,
241,-760,681,97,-1960,-1540,-910,,,,,,,0x03,
251,-756,629,102,-4970,-1400,-280,,,,,,,0x03,
260,-747,576,116,-4900,-910,-420,,,,,,,0x03,
270,-742,575,115,-490,-210,-910,,,,,,,0x03,
280,-746,602,117,4270,420,-840,,,,,,,0x03,
289,-753,629,113,5950,840,-630,,,,,,,0x03,
299,-761,663,108,4410,1120,-910,,,,,,,0x03,
308,-762,658,112,0,980,-840,,,,,,,0x03,
318,-755,614,117,-4480,910,-490,,,,,,,0x03,
328,-748,587,113,-4620,1330,-840,,,,,,,0x03,
337,-747,599,105,-1120,1680,-1470,,,,,,,0x03,
347,-753,629,98,2730,1820,-1750,,,,,,,0x03,
357,-754,652,87,4410,1680,-1610,,,,,,,0x03,
366,-756,665,77,2380,1610,-1400,,,,,,,0x03,
376,-762,659,88,-1120,1400,-700,,,,,,,0x03,
386,-760,623,103,-3640,1120,490,,,,,,,0x03,
395,-755,595,106,-3360,910,630,,,,,,,0x03,
405,-758,595,101,-70,1050,140,,,,,,,0x03,
414,-760,603,101,3360,1470,420,,,,,,,0x03,
424,-759,601,100,5600,2170,1050,,,,,,,0x03,
434,-764,602,107,6370,2800,1050,,,,,,,0x03,
443,-762,619,102,7140,3080,560,,,,,,,0x03,
453,-755,653,100,7140,3010,280,,,,,,,0x03,
463,-756,688,94,4830,2590,280,,,,,,,0x03,
472,-763,687,91,0,2100,560,,,,,,,0x03,
482,-762,653,89,-4970,1680,1190,,,,,,,0x03,
492,-754,646,83,-5250,1750,910,,,,,,,0x03,
501,-753,639,75,-3990,1470,630,,,,,,,0x03,
511,-760,641,68,-3150,700,490,,,,,,,0x03,
521,-763,658,72,-3360,140,420,,,,,,,0x03,
530,-760,673,75,-4410,-210,280,,,,,,,0x03,
540,-756,669,83,-6790,-700,140,,,,,,,0x03,
549,-758,646,94,-9170,-1050,0,,,,,,,0x03,
559,-754,609,99,-9310,-1050,-280,,,,,,,0x03,
569,-755,569,94,-7910,-980,-350,,,,,,,0x03,
578,-758,563,97,-3850,-490,-770,,,,,,,0x03,
588,-760,586,99,1120,0,-910,,,,,,,0x03,
598,-763,613,100,4550,350,-840,,,,,,,0x03,
607,-766,648,103,5600,630,-1050,,,,,,,0x03,
617,-763,658,105,3780,840,-1190,,,,,,,0x03,
627,-759,626,98,1610,840,-630,,,,,,,0x03,
636,-755,584,94,1330,1260,-140,,,,,,,0x03,
646,-758,569,96,3430,1890,-140,,,,,,,0x03,
655,-757,606,96,6720,2030,-210,,,,,,,0x03,
665,-761,641,85,7770,1470,210,,,,,,,0x03,
675,-759,657,78,5320,1120,490,,,,,,,0x03,
684,-767,650,84,1750,980,560,,,,,,,0x03,
694,-761,647,86,-280,700,210,,,,,,,0x03,
704,-752,637,88,-70,700,0,,,,,,,0x03,
713,-749,603,87,910,770,700,,,,,,,0x03,
723,-754,578,91,2870,1050,910,,,,,,,0x03,
733,-757,590,92,5810,1470,840,,,,,,,0x03,
742,-759,653,86,8820,1540,280,,,,,,,0x03,
752,-761,698,90,6230,910,560,,,,,,,0x03,
762,-760,697,95,-770,490,1260,,,,,,,0x03,
771,-749,667,92,-5810,630,1750,,,,,,,0x03,
781,-745,634,88,-7140,560,2170,,,,,,,0x03,
790,-746,635,68,-4690,-140,1750,,,,,,,0x03,
800,-759,653,61,-2450,-840,2170,,,,,,,0x03,
810,-766,648,53,-2870,-1120,3430,,,,,,,0x03,
819,-762,653,57,-4830,-1330,2940,,,,,,,0x03,
829,-757,660,72,-6860,-2030,2100,,,,,,,0x03,
839,-755,639,86,-8820,-2800,2030,,,,,,,0x03,
848,-756,599,84,-9520,-3360,2030,,,,,,,0x03,
858,-758,583,82,-7700,-3430,1610,,,,,,,0x03,
868,-767,589,82,-4410,-3430,1330,,,,,,,0x03,
877,-771,608,95,-2310,-3220,1260,,,,,,,0x03,
887,-771,602,115,-2730,-2940,1330,,,,,,,0x03,
896,-761,598,113,-2240,-2310,700,,,,,,,0x03,
906,-748,629,114,210,-1820,-280,,,,,,,0x03,
916,-752,654,105,1330,-1820,-490,,,,,,,0x03,
925,-756,661,89,770,-1820,-840,,,,,,,0x03,
935,-760,642,80,-630,-1610,-700,,,,,,,0x03,
945,-754,629,81,-560,-1540,-770,,,,,,,0x03,
954,-749,623,89,1050,-1610,-560,,,,,,,0x03,
964,-744,621,96,2520,-1400,-280,,,,,,,0x03,
974,-739,648,98,4760,-1260,-280,,,,,,,0x03,
983,-741,675,98,5460,-1260,140,,,,,,,0x03,
993,-753,680,97,3080,-1400,280,,,,,,,0x03,
1003,-756,669,100,-350,-1610,210,,,,,,,0x03,
1012,-753,650,99,-3150,-1470,0,,,,,,,0x03,
1022,-749,630,104,-4760,-1470,-70,,,,,,,0x03,
1031,-750,615,103,-4970,-1610,0,,,,,,,0x03,
1041,-751,622,100,-3710,-1400,-280,,,,,,,0x03,
1051,-753,662,97,-2660,-1330,-700,,,,,,,0x03,
1060,-762,686,89,-3570,-1890,-770,,,,,,,0x03,
1070,-773,650,85,-8050,-2800,-280,,,,,,,0x03,
1080,-772,603,85,-10850,-3220,-350,,,,,,,0x03,
1089,-752,614,84,-7420,-2940,-560,,,,,,,0x03,
1099,-747,614,101,-3710,-2520,0,,,,,,,0x03,
1109,-760,610,99,-1610,-3290,-70,,,,,,,0x03,
1118,-760,614,92,280,-3430,-350,,,,,,,0x03,
1128,-762,627,85,840,-3430,-770,,,,,,,0x03,
1137,-764,643,91,210,-3990,-1540,,,,,,,0x03,
1147,-767,654,95,-1610,-4550,-1680,,,,,,,0x03,
1157,-755,658,99,-3500,-4970,-1890,,,,,,,0x03,
1166,-749,646,114,-6090,-5040,-1750,,,,,,,0x03,
1176,-748,628,125,-7490,-4900,-2100,,,,,,,0x03,
1186,-747,603,122,-6580,-4550,-2170,,,,,,,0x03,
1195,-752,577,114,-4130,-3920,-1820,,,,,,,0x03,
1205,-745,581,117,-630,-3010,-1400,,,,,,,0x03,
1215,-736,625,130,3010,-1890,-560,,,,,,,0x03,
1224,-740,647,138,4480,-1260,560,,,,,,,0x03,
1234,-747,651,125,3990,-630,1260,,,,,,,0x03,
1243,-752,646,110,2520,-350,1050,,,,,,,0x03,
1253,-753,630,99,700,-490,980,,,,,,,0x03,
1263,-758,614,89,280,-770,1610,,,,,,,0x03,
1272,-757,601,91,700,-630,2100,,,,,,,0x03,
1282,-762,627,104,980,-1050,1610,,,,,,,0x03,
1292,-763,672,111,140,-2100,1190,,,,,,,0x03,
1301,-763,675,108,-4690,-3080,1610,,,,,,,0x03,
1311,-764,635,106,-10430,-3570,1400,,,,,,,0x03,
1321,-760,610,105,-11620,-3430,910,,,,,,,0x03,
1330,-747,610,115,-8470,-3080,770,,,,,,,0x03,
1340,-747,628,116,-3430,-2870,840,,,,,,,0x03,
1350,-754,633,112,-700,-3010,560,,,,,,,0x03,
1359,-757,646,104,-210,-3010,-140,,,,,,,0x03,
1369,-758,659,107,-840,-2940,-350,,,,,,,0x03,
1378,-762,635,108,-2520,-3220,70,,,,,,,0x03,
1388,-764,594,115,-4690,-3570,350,,,,,,,0x03,
1398,-756,590,120,-3990,-3430,350,,,,,,,0x03,
1407,-741,647,122,-980,-3150,0,,,,,,,0x03,
1417,-744,697,121,-840,-3430,0,,,,,,,0x03,
1427,-755,696,124,-4970,-3990,280,,,,,,,0x03,
1436,-755,648,124,-9660,-4200,70,,,,,,,0x03,
1446,-743,589,124,-10080,-3500,-70,,,,,,,0x03,
1456,-736,558,127,-5390,-2450,-280,,,,,,,0x03,
1465,-738,570,123,2240,-1960,-560,,,,,,,0x03,
1475,-743,615,131,6860,-1330,0,,,,,,,0x03,
1484,-751,665,140,6790,-770,210,,,,,,,0x03,
1494,-754,684,134,2870,-840,210,,,,,,,0x03,
1504,-756,670,123,-2520,-1400,-70,,,,,,,0x03,
1513,-755,629,116,-6230,-1750,-210,,,,,,,0x03,
1523,-752,592,112,-6510,-1540,-140,,,,,,,0x03,
1533,-746,586,120,-3360,-1050,0,,,,,,,0x03,
1542,-745,610,132,980,-420,420,,,,,,,0x03,
1552,-746,638,130,3850,-210,560,,,,,,,0x03,
1562,-748,644,133,3080,-70,490,,,,,,,0x03,
1571,-756,637,120,1330,-350,350,,,,,,,0x03,
1581,-756,629,115,210,-350,0,,,,,,,0x03,
1591,-758,627,119,-560,-280,70,,,,,,,0x03,
1600,-748,635,121,70,-280,0,,,,,,,0x03,
1610,-746,633,129,70,0,210,,,,,,,0x03,
1619,-753,626,129,-70,210,70,,,,,,,0x03,
1629,-752,619,128,700,490,-280,,,,,,,0x03,
1639,-751,614,119,2170,490,-280,,,,,,,0x03,
1648,-746,631,115,4130,630,140,,,,,,,0x03,
1658,-747,638,124,3850,1120,980,,,,,,,0x03,
1668,-750,627,133,2450,1260,1120,,,,,,,0x03,
1677,-749,635,129,2870,1400,910,,,,,,,0x03,
1687,-749,630,121,2520,1470,1330,,,,,,,0x03,
1697,-750,618,116,1750,1330,1400,,,,,,,0x03,
1706,-750,626,110,2170,1260,1190,,,,,,,0x03,
1716,-749,651,107,3010,1260,1120,,,,,,,0x03,
1725,-751,678,108,3080,980,1120,,,,,,,0x03,
1735,-754,682,108,1470,210,910,,,,,,,0x03,
1745,-759,638,106,-1680,-280,1050,,,,,,,0x03,
1754,-757,606,108,-2730,-350,630,,,,,,,0x03,
1764,-752,615,111,-420,-280,0,,,,,,,0x03,
1774,-755,638,111,1960,-700,70,,,,,,,0x03,
1783,-765,645,111,1610,-1260,350,,,,,,,0x03,
1793,-755,649,112,-280,-1400,-70,,,,,,,0x03,
1803,-752,638,114,-2100,-1400,-280,,,,,,,0x03,
1812,-752,640,114,-2170,-1470,-770,,,,,,,0x03,
1822,-750,630,119,-1610,-1680,-630,,,,,,,0x03,
1832,-750,623,121,-1050,-1680,-700,,,,,,,0x03,
1841,-752,621,122,-210,-1330,-1120,,,,,,,0x03,
1851,-749,620,115,1260,-980,-1190,,,,,,,0x03,
1860,-747,634,112,3010,-840,-1400,,,,,,,0x03,
1870,-748,673,120,3920,-840,-1260,,,,,,,0x03,
1880,-745,672,130,2030,-700,-210,,,,,,,0x03,
1889,-741,638,136,-1680,-560,-70,,,,,,,0x03,
1899,-743,612,124,-2450,-560,-490,,,,,,,0x03,
1909,-743,591,122,-1050,-140,-140,,,,,,,0x03,
1918,-742,610,115,560,280,0,,,,,,,0x03,
1928,-741,658,118,2730,770,-140,,,,,,,0x03,
1938,-752,672,120,1610,840,420,,,,,,,0x03,
1947,-751,656,125,-1050,980,280,,,,,,,0x03,
1957,-748,613,116,-2520,1050,280,,,,,,,0x03,
1966,-753,567,110,-1050,1120,280,,,,,,,0x03,
1976,-759,561,108,2730,1400,420,,,,,,,0x03,
1986,-755,607,122,7350,1470,70,,,,,,,0x03,
1995,-757,661,120,9520,1050,-70,,,,,,,0x03,
2005,-756,679,107,8470,210,-70,,,,,,,0x03,
2015,-762,658,100,5250,-140,-70,,,,,,,0x03,
2024,-764,635,105,2380,-140,-350,,,,,,,0x03,
2034,-759,610,119,1820,140,-70,,,,,,,0x03,
2044,-752,606,112,4410,140,-70,,,,,,,0x03,
2053,-748,633,95,7700,-490,-210,,,,,,,0x03,
2063,-758,657,90,7280,-980,420,,,,,,,0x03,
2072,-759,676,93,3850,-1120,280,,,,,,,0x03,
2082,-749,674,100,-210,-1400,70,,,,,,,0x03,
2092,-741,651,108,-3710,-1260,490,,,,,,,0x03,
2101,-731,644,119,-3780,-770,350,,,,,,,0x03,
2111,-725,646,118,-770,-420,980,,,,,,,0x03,
2121,-733,646,107,1680,140,2590,,,,,,,0x03,
2130,-743,635,96,1330,210,2730,,,,,,,0x03,
2140,-747,656,94,-700,-210,2100,,,,,,,0x03,
2150,-756,675,101,-3430,-840,2100,,,,,,,0x03,
2159,-757,658,97,-6860,-1960,2800,,,,,,,0x03,
2169,-753,637,94,-10010,-2660,2520,,,,,,,0x03,
2179,-757,631,95,-10710,-3080,2030,,,,,,,0x03,
2188,-761,594,100,-10430,-3010,2730,,,,,,,0x03,
2198,-760,575,105,-8680,-2940,2730,,,,,,,0x03,
2207,-755,624,114,-3570,-3010,1470,,,,,,,0x03,
2217,-753,672,113,-490,-3010,1190,,,,,,,0x03,
2227,-759,673,118,-3080,-3220,1120,,,,,,,0x03,
2236,-762,649,117,-6300,-3430,210,,,,,,,0x03,
2246,-754,608,118,-7700,-2730,70,,,,,,,0x03,
2256,-741,595,125,-5110,-1750,-210,,,,,,,0x03,
2265,-735,604,139,-420,-910,-140,,,,,,,0x03,
2275,-733,621,142,3920,-490,-140,,,,,,,0x03,
2285,-742,618,128,6020,140,350,,,,,,,0x03,
2294,-750,611,116,5530,560,140,,,,,,,0x03,
2304,-750,638,113,5250,630,-350,,,,,,,0x03,
2313,-741,684,119,4690,630,-280,,,,,,,0x03,
2323,-738,698,126,1540,280,140,,,,,,,0x03,
2333,-736,674,131,-3150,-140,420,,,,,,,0x03,
2342,-730,634,135,-6370,0,350,,,,,,,0x03,
2352,-731,587,129,-5600,700,350,,,,,,,0x03,
2362,-737,587,109,-350,1260,210,,,,,,,0x03,
2371,-739,643,107,5390,1610,140,,,,,,,0x03,
2381,-749,683,114,6160,1400,630,,,,,,,0x03,
2391,-757,673,117,1540,910,910,,,,,,,0x03,
2400,-757,627,109,-3290,840,700,,,,,,,0x03,
2410,-751,592,120,-4480,1120,490,,,,,,,0x03,
2420,-747,594,122,-1050,1330,350,,,,,,,0x03,
2429,-744,629,117,3080,1540,280,,,,,,,0x03,
2439,-752,657,115,3990,1470,210,,,,,,,0x03,
2448,-755,656,106,2450,1260,-140,,,,,,,0x03,
2458,-757,637,98,910,1190,-350,,,,,,,0x03,
2468,-750,627,94,1610,1190,-700,,,,,,,0x03,
2477,-744,633,100,3500,980,-490,,,,,,,0x03,
2487,-740,652,112,4480,910,0,,,,,,,0x03,
2497,-742,662,119,3920,910,-70,,,,,,,0x03,
2506,-747,653,104,2940,420,-280,,,,,,,0x03,
2516,-753,634,93,1890,-140,280,,,,,,,0x03,
2526,-745,641,97,2450,-70,700,,,,,,,0x03,
2535,-742,665,113,3010,140,910,,,,,,,0x03,
2545,-743,663,122,1470,-210,1470,,,,,,,0x03,
2554,-744,645,117,-210,-350,1680,,,,,,,0x03,
2564,-743,639,106,-210,-140,1470,,,,,,,0x03,
2574,-746,655,88,140,-700,1260,,,,,,,0x03,
2583,-757,674,85,-1260,-1330,1680,,,,,,,0x03,
2593,-767,661,91,-4970,-2170,1820,,,,,,,0x03,
2603,-759,625,100,-8330,-2800,1470,,,,,,,0x03,
2612,-750,596,106,-8120,-3080,1190,,,,,,,0x03,
2622,-744,581,106,-5180,-3010,910,,,,,,,0x03,
2632,-740,608,107,-770,-2730,630,,,,,,,0x03,
2641,-747,636,113,1750,-2520,1050,,,,,,,0x03,
2651,-752,651,115,1610,-2520,1260,,,,,,,0x03,
2661,-745,670,116,1330,-2240,840,,,,,,,0x03,
2670,-743,675,114,420,-2030,490,,,,,,,0x03,
2680,-744,669,117,-1050,-2170,70,,,,,,,0x03,
2689,-740,648,116,-2310,-2310,-70,,,,,,,0x03,
2699,-738,622,107,-1890,-2380,-70,,,,,,,0x03,
2709,-739,613,101,-210,-2240,0,,,,,,,0x03,
2718,-745,634,106,980,-2240,0,,,,,,,0x03,
2728,-744,681,115,1120,-2310,-140,,,,,,,0x03,
2738,-741,717,127,-2030,-2730,-210,,,,,,,0x03,
2747,-740,716,130,-7700,-3500,-350,,,,,,,0x03,
2757,-743,659,126,-13300,-3710,-420,,,,,,,0x03,
2767,-748,589,120,-15050,-3360,-770,,,,,,,0x03,
2776,-737,570,119,-10010,-2380,-1260,,,,,,,0x03,
2786,-726,610,123,-1750,-1540,-1330,,,,,,,0x03,
2795,-733,657,134,2870,-980,-910,,,,,,,0x03,
2805,-741,663,140,2170,-630,-840,,,,,,,0x03,
2815,-741,637,141,-980,-70,-1050,,,,,,,0x03,
2824,-743,621,138,-2030,630,-1540,,,,,,,0x03,
2834,-744,617,134,-560,980,-1610,,,,,,,0x03,
2844,-744,627,128,1470,1330,-1610,,,,,,,0x03,
2853,-744,640,120,2380,1610,-1680,,,,,,,0x03,
2863,-747,636,117,1890,1890,-1470,,,,,,,0x03,
2873,-753,625,111,1680,1890,-1470,,,,,,,0x03,
2882,-751,631,106,2590,1750,-1680,,,,,,,0x03,
2892,-747,667,104,3850,1260,-1540,,,,,,,0x03,
2901,-751,672,106,2520,630,-140,,,,,,,0x03,
2911,-755,619,107,-1470,210,910,,,,,,,0x03,
2921,-748,610,111,-2380,210,70,,,,,,,0x03,
2930,-744,629,121,-490,560,140,,,,,,,0x03,
2940,-750,617,126,-560,280,980,,,,,,,0x03,
2950,-747,614,123,-490,140,770,,,,,,,0x03,
2959,-743,636,115,1190,560,210,,,,,,,0x03,
2969,-744,642,116,1330,980,420,,,,,,,0x03,
2979,-748,622,114,700,980,910,,,,,,,0x03,
2988,-738,613,111,2240,1260,770,,,,,,,0x03,
2998,-734,619,115,4690,1680,840,,,,,,,0x03,
3008,-739,617,112,6020,1890,1260,,,,,,,0x03,
3017,-747,611,111,6510,2030,1610,,,,,,,0x03,
3027,-749,614,107,7560,2100,1820,,,,,,,0x03,
3036,-747,650,108,7910,2100,1540,,,,,,,0x03,
3046,-749,682,115,5740,1680,1680,,,,,,,0x03,
3056,-751,682,118,2170,1260,2030,,,,,,,0x03,
3065,-746,672,108,-140,910,1610,,,,,,,0x03,
3075,-745,667,98,-420,700,980,,,,,,,0x03,
3085,-748,655,94,630,490,700,,,,,,,0x03,
3094,-751,636,92,1540,350,770,,,,,,,0x03,
3104,-745,635,99,2800,490,560,,,,,,,0x03,
3114,-743,663,107,3920,280,420,,,,,,,0x03,
3123,-744,680,113,2170,-350,770,,,,,,,0x03,
3133,-748,683,117,-2380,-840,700,,,,,,,0x03,
3142,-747,678,112,-6860,-1330,490,,,,,,,0x03,
3152,-748,649,107,-10080,-1610,630,,,,,,,0x03,
3162,-746,617,106,-11270,-1680,840,,,,,,,0x03,
3171,-739,611,102,-7980,-1400,560,,,,,,,0x03,
3181,-734,645,95,-1890,-1260,560,,,,,,,0x03,
3191,-746,679,90,1330,-1260,770,,,,,,,0x03,
3200,-751,694,102,-70,-1330,70,,,,,,,0x03,
3210,-741,684,114,-2730,-1190,-420,,,,,,,0x03,
3220,-730,634,121,-4550,-980,-490,,,,,,,0x03,
3229,-733,585,119,-3150,-840,-770,,,,,,,0x03,
3239,-736,578,112,980,-560,-1260,,,,,,,0x03,
3249,-739,624,117,4760,70,-1330,,,,,,,0x03,
3258,-742,687,125,4970,420,-1050,,,,,,,0x03,
3268,-740,709,129,1050,350,-840,,,,,,,0x03,
3277,-736,676,122,-3500,280,-350,,,,,,,0x03,
3287,-733,618,116,-5530,840,-280,,,,,,,0x03,
3297,-743,568,111,-2940,1540,-490,,,,,,,0x03,
3306,-752,549,103,3010,2030,-420,,,,,,,0x03,
3316,-748,601,103,8820,2380,-490,,,,,,,0x03,
3326,-748,686,105,11060,2240,-700,,,,,,,0x03,
3335,-753,730,107,6510,1400,-560,,,,,,,0x03,
3345,-758,706,104,-2030,210,-420,,,,,,,0x03,
3355,-754,647,102,-8050,-210,-770,,,,,,,0x03,
3364,-746,589,101,-8330,70,-1120,,,,,,,0x03,
3374,-732,566,105,-2660,700,-1050,,,,,,,0x03,
3383,-733,576,109,5250,1470,-630,,,,,,,0x03,
3393,-742,617,108,11690,2170,-700,,,,,,,0x03,
3403,-745,655,106,12950,2450,-560,,,,,,,0x03,
3412,-752,662,106,9870,2240,0,,,,,,,0x03,
3422,-754,639,105,6020,1750,210,,,,,,,0x03,
3432,-754,621,104,4130,1400,140,,,,,,,0x03,
3441,-750,624,100,4900,1190,140,,,,,,,0x03,
3451,-738,660,94,6790,1050,0,,,,,,,0x03,
3461,-739,679,87,6650,630,280,,,,,,,0x03,
3470,-747,667,89,4410,420,770,,,,,,,0x03,
3480,-747,643,91,2660,420,980,,,,,,,0x03,
3490,-742,632,91,3150,350,1260,,,,,,,0x03,
3499,-743,656,92,3920,-210,1400,,,,,,,0x03,
3509,-751,676,100,3150,-980,2100,,,,,,,0x03,
3518,-753,647,92,0,-1470,3290,,,,,,,0x03,
3528,-748,639,88,-3010,-1400,2590,,,,,,,0x03,
3538,-747,669,83,-3360,-1890,1540,,,,,,,0x03,
3547,-749,694,83,-4200,-2730,1190,,,,,,,0x03,
3557,-751,685,85,-7000,-3360,1400,,,,,,,0x03,
3567,-743,665,93,-8120,-3430,1540,,,,,,,0x03,
3576,-741,624,94,-6440,-3150,2100,,,,,,,0x03,
3586,-742,583,91,-4130,-3150,1890,,,,,,,0x03,
3596,-742,606,87,700,-3150,910,,,,,,,0x03,
3605,-742,659,94,3640,-3080,770,,,,,,,0x03,
3615,-750,697,99,1470,-3640,910,,,,,,,0x03,
3624,-757,695,105,-4130,-4480,630,,,,,,,0x03,
3634,-754,677,104,-8890,-5040,140,,,,,,,0x03,
3644,-740,655,103,-11060,-5180,-210,,,,,,,0x03,
3653,-735,622,113,-11200,-4900,140,,,,,,,0x03,
3663,-737,611,115,-7630,-4690,-210,,,,,,,0x03,
3673,-739,611,116,-3430,-3920,-280,,,,,,,0x03,
3682,-739,619,113,-770,-3220,-770,,,,,,,0x03,
3692,-737,651,118,1260,-2590,-1330,,,,,,,0x03,
3702,-730,681,129,1470,-2030,-1190,,,,,,,0x03,
3711,-726,686,132,-350,-1680,-700,,,,,,,0x03,
3721,-729,671,132,-3150,-1400,-490,,,,,,,0x03,
3730,-737,631,129,-5320,-1120,-630,,,,,,,0x03,
3740,-739,614,110,-3990,-840,-910,,,,,,,0x03,
3750,-736,637,99,-560,-350,-1330,,,,,,,0x03,
3759,-738,659,107,980,-70,-1120,,,,,,,0x03,
3769,-745,648,119,-280,70,-700,,,,,,,0x03,
3779,-741,624,117,-1120,70,-910,,,,,,,0x03,
3788,-739,614,111,-210,280,-1120,,,,,,,0x03,
3798,-743,645,110,2030,140,-1470,,,,,,,0x03,
3808,-748,683,105,2310,-350,-1260,,,,,,,0x03,
3817,-748,702,97,-140,-910,-1400,,,,,,,0x03,
3827,-752,671,103,-4550,-1330,-1540,,,,,,,0x03,
3837,-744,626,108,-6790,-1260,-1890,,,,,,,0x03,
3846,-735,596,116,-4200,-1050,-2030,,,,,,,0x03,
3856,-734,606,111,1400,-630,-2030,,,,,,,0x03,
3865,-740,649,116,5180,-350,-1960,,,,,,,0x03,
3875,-753,663,121,3780,-560,-1610,,,,,,,0x03,
3885,-753,658,117,-70,-560,-1050,,,,,,,0x03,
3894,-747,620,114,-3010,-280,-420,,,,,,,0x03,
3904,-743,592,109,-3220,-630,-210,,,,,,,0x03,
3914,-746,605,110,-1120,-840,-210,,,,,,,0x03,
3923,-747,634,109,210,-770,-70,,,,,,,0x03,
3933,-748,662,112,-840,-840,140,,,,,,,0x03,
3943,-748,675,109,-3010,-1190,70,,,,,,,0x03,
3952,-742,672,109,-4970,-1400,0,,,,,,,0x03,
3962,-742,639,110,-6370,-1610,0,,,,,,,0x03,
3971,-739,610,110,-5390,-1470,0,,,,,,,0x03,
3981,-741,589,114,-2240,-910,70,,,,,,,0x03,
3991,-748,587,116,1820,-420,140,,,,,,,0x03,
4000,-745,616,115,4830,-140,210,,,,,,,0x03,
4010,-747,659,120,5320,-70,350,,,,,,,0x03,
4020,-750,674,117,2660,-490,560,,,,,,,0x03,
4029,-749,656,110,-1330,-1050,420,,,,,,,0x03,
4039,-747,644,107,-3360,-1330,140,,,,,,,0x03,
4049,-744,642,114,-2450,-1190,-140,,,,,,,0x03,
4058,-741,635,116,-700,-980,70,,,,,,,0x03,
4068,-735,637,119,1470,-630,-140,,,,,,,0x03,
4078,-737,660,124,2870,-140,-560,,,,,,,0x03,
4087,-742,673,125,2240,-140,-630,,,,,,,0x03,
4097,-743,657,114,-350,-490,-490,,,,,,,0x03,
4106,-744,631,107,-2870,-630,-490,,,,,,,0x03,
4116,-741,627,110,-3010,-280,-560,,,,,,,0x03,
4126,-740,633,120,-1610,0,-420,,,,,,,0x03,
4135,-733,642,125,-280,210,-210,,,,,,,0x03,
4145,-729,646,126,980,700,-140,,,,,,,0x03,
4155,-737,633,127,1750,1190,0,,,,,,,0x03,
4164,-742,622,116,3010,1400,-140,,,,,,,0x03,
4174,-748,618,104,4410,1610,0,,,,,,,0x03,
4184,-755,623,101,5180,1680,210,,,,,,,0x03,
4193,-753,647,106,4760,1750,210,,,,,,,0x03,
4203,-747,677,116,3500,1820,350,,,,,,,0x03,
4212,-742,673,119,770,1610,630,,,,,,,0x03,
4222,-742,655,110,-1400,1190,350,,,,,,,0x03,
4232,-743,643,105,-1190,1120,-70,,,,,,,0x03,
4241,-743,645,100,700,1190,-210,,,,,,,0x03,
4251,-743,647,96,2240,980,-210,,,,,,,0x03,
4261,-746,639,103,2170,980,-70,,,,,,,0x03,
4270,-743,630,114,1680,1190,0,,,,,,,0x03,
4280,-736,641,111,2590,1260,-280,,,,,,,0x03,
4290,-733,654,111,3500,1190,-70,,,,,,,0x03,
4299,-743,649,113,3220,1260,420,,,,,,,0x03,
4309,-747,648,113,2380,1400,280,,,,,,,0x03,
4319,-745,645,108,1680,1400,280,,,,,,,0x03,
4328,-747,631,109,1190,1330,700,,,,,,,0x03,
4338,-746,622,103,1330,1050,1050,,,,,,,0x03,
4347,-746,639,92,1960,700,980,,,,,,,0x03,
4357,-749,666,90,1470,280,1540,,,,,,,0x03,
4367,-754,671,91,-700,-420,2170,,,,,,,0x03,
4376,-749,658,95,-3850,-560,2030,,,,,,,0x03,
4386,-745,641,102,-5390,-280,1680,,,,,,,0x03,
4396,-744,619,108,-4830,-350,1470,,,,,,,0x03,
4405,-741,604,103,-2870,-350,1330,,,,,,,0x03,
4415,-739,627,99,840,140,840,,,,,,,0x03,
4425,-741,659,97,3150,350,840,,,,,,,0x03,
4434,-751,669,98,2170,-70,1120,,,,,,,0x03,
4444,-752,650,99,-210,-560,1120,,,,,,,0x03,
4453,-744,640,96,-1610,-770,560,,,,,,,0x03,
4463,-739,648,99,-1260,-770,210,,,,,,,0x03,
4473,-742,659,105,-1120,-1050,560,,,,,,,0x03,
4482,-741,671,106,-1190,-1260,840,,,,,,,0x03,
4492,-743,659,108,-2100,-1050,980,,,,,,,0x03,
4502,-747,624,106,-3080,-980,840,,,,,,,0x03,
4511,-744,598,106,-2310,-770,840,,,,,,,0x03,
4521,-735,626,107,1050,-420,280,,,,,,,0x03,
4531,-738,681,105,3220,-630,280,,,,,,,0x03,
4540,-745,704,106,420,-980,630,,,,,,,0x03,
4550,-747,668,106,-4480,-1190,910,,,,,,,0x03,
4559,-741,613,103,-6580,-980,560,,,,,,,0x03,
4569,-734,600,106,-3640,-420,70,,,,,,,0x03,
4579,-732,634,112,1750,-210,-140,,,,,,,0x03,
4588,-734,671,107,4550,-420,0,,,,,,,0x03,
4598,-740,681,105,2940,-350,0,,,,,,,0x03,
4608,-743,675,104,210,-70,-490,,,,,,,0x03,
4617,-746,650,102,-1400,-210,-350,,,,,,,0x03,
4627,-743,618,105,-1540,-280,210,,,,,,,0x03,
4637,-733,621,118,140,210,140,,,,,,,0x03,
4646,-727,648,123,2800,700,0,,,,,,,0x03,
4656,-735,668,115,3780,910,0,,,,,,,0x03,
4666,-745,669,98,2800,700,-280,,,,,,,0x03,
4675,-748,670,89,1330,560,-490,,,,,,,0x03,
4685,-745,655,93,-420,490,-280,,,,,,,0x03,
4694,-739,629,106,-1470,420,210,,,,,,,0x03,
4704,-736,627,111,-350,140,420,,,,,,,0x03,
4714,-734,654,104,1540,-140,700,,,,,,,0x03,
4723,-739,678,91,1190,-700,770,,,,,,,0x03,
4733,-751,690,80,-1190,-1330,1330,,,,,,,0x03,
4743,-753,678,81,-4550,-1680,1750,,,,,,,0x03,
4752,-752,642,86,-7700,-2240,2100,,,,,,,0x03,
4762,-752,610,100,-8260,-2940,1890,,,,,,,0x03,
4772,-745,617,105,-5460,-3570,1260,,,,,,,0x03,
4781,-738,651,94,-1960,-4270,630,,,,,,,0x03,
4791,-745,684,89,-2310,-4550,420,,,,,,,0x03,
4800,-756,681,94,-5810,-4760,350,,,,,,,0x03,
4810,-752,637,106,-9590,-4970,350,,,,,,,0x03,
4820,-743,601,111,-9590,-4760,280,,,,,,,0x03,
4829,-733,593,116,-6020,-3990,-140,,,,,,,0x03,
4839,-731,618,121,-1890,-3710,-420,,,,,,,0x03,
4849,-738,649,122,-140,-3570,-140,,,,,,,0x03,
4858,-743,664,122,-2030,-3430,280,,,,,,,0x03,
4868,-735,664,122,-4480,-2940,490,,,,,,,0x03,
4878,-732,654,132,-6580,-2380,420,,,,,,,0x03,
4887,-735,649,131,-6440,-2450,0,,,,,,,0x03,
4897,-732,640,122,-5320,-2310,-210,,,,,,,0x03,
4907,-731,621,114,-3990,-1960,-280,,,,,,,0x03,
4916,-736,629,111,-2030,-1610,-490,,,,,,,0x03,
4926,-732,664,118,70,-1260,-770,,,,,,,0x03,
4935,-728,676,129,280,-1190,-420,,,,,,,0x03,
4945,-730,665,135,-1260,-1260,-350,,,,,,,0x03,
4955,-733,648,138,-3150,-1190,-560,,,,,,,0x03,
4964,-736,647,132,-4270,-1120,-980,,,,,,,0x03,
4974,-741,649,128,-4620,-1260,-910,,,,,,,0x03,
4984,-738,639,118,-4060,-1190,-770,,,,,,,0x03,
4993,-737,615,118,-3220,-490,-630,,,,,,,0x03,
5003,-739,607,119,-350,210,-840,,,,,,,0x03,
5013,-735,614,122,4480,980,-770,,,,,,,0x03,
5022,-734,625,130,8190,1750,-420,,,,,,,0x03,
5032,-741,639,131,9030,1960,-350,,,,,,,0x03,
5041,-745,656,124,7630,1820,-350,,,,,,,0x03,
5051,-743,673,119,4900,1540,210,,,,,,,0x03,
5061,-746,664,119,630,1400,910,,,,,,,0x03,
5070,-739,638,126,-2100,1400,770,,,,,,,0x03,
5080,-730,623,123,-700,1820,770,,,,,,,0x03,
5090,-725,619,116,3640,2310,840,,,,,,,0x03,
5099,-734,636,108,7630,2450,840,,,,,,,0x03,
5109,-745,669,96,9940,2310,490,,,,,,,0x03,
5119,-753,693,93,7770,1960,630,,,,,,,0x03,
5128,-751,692,102,2590,1260,700,,,,,,,0x03,
5138,-742,650,108,-2940,420,980,,,,,,,0x03,
5147,-735,612,114,-4970,210,910,,,,,,,0x03,
5157,-734,614,111,-2590,70,700,,,,,,,0x03,
5167,-737,649,107,1050,0,1260,,,,,,,0x03,
5176,-737,668,112,1540,280,2030,,,,,,,0x03,
5186,-743,663,116,-490,210,2100,,,,,,,0x03,
5196,-749,653,105,-1470,70,1680,,,,,,,0x03,
5205,-743,634,105,-1960,70,1540,,,,,,,0x03,
5215,-740,653,102,-1260,-350,980,,,,,,,0x03,
5225,-740,684,106,-1050,-490,910,,,,,,,0x03,
5234,-741,673,105,-3710,-1050,1190,,,,,,,0x03,
5244,-740,650,102,-5810,-1540,910,,,,,,,0x03,
5254,-737,645,106,-5810,-1540,490,,,,,,,0x03,
5263,-737,648,116,-4760,-1540,350,,,,,,,0x03,
5273,-740,643,119,-3920,-1610,210,,,,,,,0x03,
5282,-737,640,118,-3710,-1540,0,,,,,,,0x03,
5292,-734,639,118,-3500,-1190,-280,,,,,,,0x03,
5302,-738,640,113,-2520,-1120,-630,,,,,,,0x03,
5311,-739,637,103,-1470,-1260,-420,,,,,,,0x03,
5321,-737,645,112,-770,-1190,-140,,,,,,,0x03,
5331,-732,656,126,-140,-910,-70,,,,,,,0x03,
5340,-728,657,122,560,-840,-70,,,,,,,0x03,
5350,-736,648,115,1400,-840,-280,,,,,,,0x03,
5360,-743,645,110,1890,-770,-490,,,,,,,0x03,
5369,-740,659,111,2380,-560,-840,,,,,,,0x03,
5379,-736,671,115,2310,-420,-630,,,,,,,0x03,
5388,-734,668,121,1470,-560,-490,,,,,,,0x03,
5398,-733,653,123,70,-700,-700,,,,,,,0x03,
5408,-734,640,121,-350,-350,-910,,,,,,,0x03,
5417,-736,638,119,560,-70,-840,,,,,,,0x03,
5427,-737,637,114,1750,-140,-770,,,,,,,0x03,
5437,-742,638,111,1960,-70,-770,,,,,,,0x03,
5446,-741,644,111,1960,70,-840,,,,,,,0x03,
5456,-735,647,115,1680,70,-980,,,,,,,0x03,
5466,-739,643,119,1260,140,-910,,,,,,,0x03,
5475,-740,637,115,2380,280,-1260,,,,,,,0x03,
5485,-735,644,105,4900,280,-1820,,,,,,,0x03,
5495,-746,667,103,5600,70,-2170,,,,,,,0x03,
5504,-749,687,91,4690,-770,-2730,,,,,,,0x03,
5514,-747,689,88,2030,-1680,-2800,,,,,,,0x03,
5523,-748,677,92,-1540,-2450,-2660,,,,,,,0x03,
5533,-743,665,95,-3360,-3150,-2940,,,,,,,0x03,
5543,-741,653,107,-4340,-3430,-2870,,,,,,,0x03,
5552,-742,630,121,-5040,-3360,-2520,,,,,,,0x03,
5562,-737,599,134,-4970,-2730,-1960,,,,,,,0x03,
5572,-731,571,141,-3080,-1680,-1260,,,,,,,0x03,
5581,-724,591,143,1330,-630,-700,,,,,,,0x03,
5591,-726,624,139,5600,-140,490,,,,,,,0x03,
5601,-733,649,132,5110,420,1400,,,,,,,0x03,
5610,-737,679,117,2730,350,1400,,,,,,,0x03,
5620,-731,688,101,770,350,1540,,,,,,,0x03,
5629,-736,674,91,-1470,140,1820,,,,,,,0x03,
5639,-743,645,91,-2590,-350,1820,,,,,,,0x03,
5649,-739,635,88,-1890,-840,1610,,,,,,,0x03,
5658,-738,662,93,0,-1260,1400,,,,,,,0x03,
5668,-752,671,109,-210,-2030,2100,,,,,,,0x03,
5678,-761,652,114,-2520,-2590,2590,,,,,,,0x03,
5687,-749,648,112,-4690,-2870,1540,,,,,,,0x03,
5697,-746,668,102,-4760,-3710,420,,,,,,,0x03,
5707,-755,688,104,-5390,-4550,280,,,,,,,0x03,
5716,-758,686,110,-7420,-5110,140,,,,,,,0x03,
5726,-750,664,118,-9170,-5180,-280,,,,,,,0x03,
5736,-744,630,119,-9590,-5180,-700,,,,,,,0x03,
5745,-738,603,119,-7630,-5320,-1330,,,,,,,0x03,
5755,-745,606,112,-3990,-5460,-1750,,,,,,,0x03,
5764,-753,648,109,-1890,-6160,-2660,,,,,,,0x03,
5774,-756,695,106,-3010,-7210,-3220,,,,,,,0x03,
5784,-748,717,109,-6930,-8120,-3710,,,,,,,0x03,
5793,-737,701,115,-11480,-8750,-3780,,,,,,,0x03,
5803,-725,646,133,-13580,-8820,-3500,,,,,,,0x03,
5813,-727,576,135,-11270,-8190,-3010,,,,,,,0x03,
5822,-729,563,140,-4620,-7000,-3780,,,,,,,0x03,
5832,-727,613,150,2590,-5810,-4480,,,,,,,0x03,
5842,-728,663,159,5320,-5250,-3990,,,,,,,0x03,
5851,-727,680,162,2660,-4900,-3290,,,,,,,0x03,
5861,-723,664,157,-1680,-4410,-3080,,,,,,,0x03,
5870,-724,637,158,-4550,-3710,-3010,,,,,,,0x03,
5880,-730,622,155,-4690,-3080,-2660,,,,,,,0x03,
5890,-732,608,150,-2730,-2170,-2030,,,,,,,0x03,
5899,-730,612,144,-350,-1260,-1610,,,,,,,0x03,
5909,-729,618,149,1820,0,-1120,,,,,,,0x03,
5919,-735,602,158,2660,980,-140,,,,,,,0x03,
5928,-737,589,150,3990,1680,140,,,,,,,0x03,
5938,-733,615,146,6650,2450,-70,,,,,,,0x03,
5948,-737,654,144,7910,2940,280,,,,,,,0x03,
5957,-746,675,150,5600,3010,630,,,,,,,0x03,
5967,-749,678,138,1960,2520,350,,,,,,,0x03,
5976,-745,665,127,-1050,2100,-140,,,,,,,0x03,
5986,-745,637,124,-3080,1750,-210,,,,,,,0x03,
5996,-744,615,128,-2590,1540,-280,,,,,,,0x03,
6005,-741,612,123,420,1540,-350,,,,,,,0x03,
6015,-741,622,120,3360,1610,-420,,,,,,,0x03,
6025,-742,633,124,4970,1750,-420,,,,,,,0x03,
6034,-745,651,126,4690,1890,-350,,,,,,,0x03,
6044,-748,645,132,2520,1680,70,,,,,,,0x03,
6054,-749,622,134,420,1470,560,,,,,,,0x03,
6063,-747,619,134,210,1260,210,,,,,,,0x03,
6073,-751,634,122,1610,630,0,,,,,,,0x03,
6083,-754,653,110,2380,140,490,,,,,,,0x03,
6092,-753,665,107,1540,-210,630,,,,,,,0x03,
6102,-748,678,112,140,-630,210,,,,,,,0x03,
6111,-743,667,121,-1260,-840,350,,,,,,,0x03,
6121,-738,625,137,-2940,-840,700,,,,,,,0x03,
6131,-735,592,139,-1750,-770,630,,,,,,,0x03,
6140,-734,605,131,1680,-350,420,,,,,,,0x03,
6150,-741,648,130,3920,-350,490,,,,,,,0x03,
6160,-748,667,129,2730,-630,840,,,,,,,0x03,
6169,-746,655,123,-350,-910,840,,,,,,,0x03,
6179,-741,632,123,-2590,-980,630,,,,,,,0x03,
6189,-741,629,133,-2100,-630,490,,,,,,,0x03,
6198,-738,634,134,0,-560,840,,,,,,,0x03,
6208,-740,643,127,1330,-770,770,,,,,,,0x03,
6217,-745,670,121,1120,-980,350,,,,,,,0x03,
6227,-747,664,123,-1610,-1400,420,,,,,,,0x03,
6237,-747,638,126,-4270,-1540,490,,,,,,,0x03,
6246,-737,625,133,-3570,-1260,140,,,,,,,0x03,
6256,-726,625,135,-560,-840,140,,,,,,,0x03,
6266,-731,633,134,2380,-140,280,,,,,,,0x03,
6275,-737,642,134,4130,490,350,,,,,,,0x03,
6285,-743,633,132,4130,910,910,,,,,,,0x03,
6295,-741,624,130,3360,1050,910,,,,,,,0x03,
6304,-734,635,132,3850,1400,980,,,,,,,0x03,
6314,-736,657,136,3920,1540,1190,,,,,,,0x03,
6324,-741,661,138,2450,1400,1330,,,,,,,0x03,
6333,-742,652,129,700,1470,1260,,,,,,,0x03,
6343,-738,648,121,350,1750,980,,,,,,,0x03,
6352,-739,647,119,770,1680,910,,,,,,,0x03,
6362,-741,650,117,1330,1400,840,,,,,,,0x03,
6372,-740,661,116,1890,1330,770,,,,,,,0x03,
6381,-739,662,117,1400,1120,840,,,,,,,0x03,
6391,-743,641,118,280,910,910,,,,,,,0x03,
6401,-745,630,118,0,700,840,,,,,,,0x03,
6410,-737,640,112,1050,420,560,,,,,,,0x03,
6420,-739,657,114,1680,210,770,,,,,,,0x03,
6430,-745,665,122,0,-140,910,,,,,,,0x03,
6439,-747,643,131,-2660,-280,910,,,,,,,0x03,
6449,-742,625,126,-2310,-70,280,,,,,,,0x03,
6458,-739,638,116,280,-70,-70,,,,,,,0x03,
6468,-742,647,121,1750,0,350,,,,,,,0x03,
6478,-743,646,124,2030,140,560,,,,,,,0x03,
6487,-744,646,117,2450,70,280,,,,,,,0x03,
6497,-741,653,111,3570,-280,210,,,,,,,0x03,
6507,-740,650,109,4130,-490,980,,,,,,,0x03,
6516,-740,643,110,4340,-280,2030,,,,,,,0x03,
6526,-740,637,123,4200,-140,1960,,,,,,,0x03,
6536,-743,658,132,4270,-700,980,,,,,,,0x03,
6545,-745,696,112,4480,-1610,0,,,,,,,0x03,
6555,-746,725,92,1680,-2520,-630,,,,,,,0x03,
6565,-752,704,88,-3220,-3780,-910,,,,,,,0x03,
6574,-749,649,89,-6300,-4620,-910,,,,,,,0x03,
6584,-744,611,86,-5810,-5320,-1330,,,,,,,0x03,
6593,-737,619,97,-3360,-5810,-1890,,,,,,,0x03,
6603,-736,656,124,-2310,-6090,-1610,,,,,,,0x03,
6613,-743,667,147,-4130,-6090,-1470,,,,,,,0x03,
6622,-743,648,154,-6930,-6160,-1890,,,,,,,0x03,
6632,-736,617,142,-7770,-5950,-2380,,,,,,,0x03,
6642,-731,598,136,-5040,-4970,-2380,,,,,,,0x03,
6651,-736,605,134,-630,-3850,-2310,,,,,,,0x03,
6661,-741,634,123,3850,-3710,-2520,,,,,,,0x03,
6671,-744,665,116,5390,-3780,-2520,,,,,,,0x03,
6680,-746,665,118,3080,-3570,-2030,,,,,,,0x03,
6690,-737,643,130,-700,-3360,-1750,,,,,,,0x03,
6699,-726,643,149,-2030,-3360,-1890,,,,,,,0x03,
6709,-722,659,151,-1400,-3360,-1820,,,,,,,0x03,
6719,-720,678,145,-1330,-3220,-1890,,,,,,,0x03,
6728,-727,666,128,-2310,-3010,-1680,,,,,,,0x03,
6738,-741,638,118,-3080,-2660,-1470,,,,,,,0x03,
6748,-744,611,126,-2590,-2240,-1190,,,,,,,0x03,
6757,-737,602,140,-490,-1610,-910,,,,,,,0x03,
6767,-733,607,152,1050,-1190,-630,,,,,,,0x03,
6777,-736,636,149,1960,-910,-700,,,,,,,0x03,
6786,-738,653,143,1540,-630,-560,,,,,,,0x03,
6796,-746,635,136,-1120,-490,-140,,,,,,,0x03,
6805,-748,623,125,-1330,-350,-350,,,,,,,0x03,
6815,-741,632,125,420,-140,-420,,,,,,,0x03,
6825,-742,647,135,2030,-140,-420,,,,,,,0x03,
6834,-746,645,131,2030,-490,-490,,,,,,,0x03,
6844,-743,636,129,1050,-560,-560,,,,,,,0x03,
6854,-740,632,128,420,-490,-630,,,,,,,0x03,
6863,-741,639,127,840,-560,-700,,,,,,,0x03,
6873,-736,642,134,770,-490,-350,,,,,,,0x03,
6883,-735,650,148,560,-420,-210,,,,,,,0x03,
6892,-732,677,139,1610,-420,-560,,,,,,,0x03,
6902,-737,672,123,1400,-350,-280,,,,,,,0x03,
6912,-748,645,114,350,-280,-70,,,,,,,0x03,
6921,-748,627,120,-350,-350,-140,,,,,,,0x03,
6931,-743,623,122,560,-420,-210,,,,,,,0x03,
6940,-737,628,135,1050,-490,280,,,,,,,0x03,
6950,-736,641,141,840,-770,700,,,,,,,0x03,
6960,-745,654,131,-560,-1260,630,,,,,,,0x03,
6969,-752,653,118,-3290,-1820,770,,,,,,,0x03,
6979,-754,647,115,-5040,-1890,840,,,,,,,0x03,
6989,-746,630,127,-5880,-1820,980,,,,,,,0x03,
6998,-737,617,141,-4550,-1610,1260,,,,,,,0x03,
7008,-734,609,146,-2100,-1120,1190,,,,,,,0x03,
7018,-735,618,139,1330,-840,840,,,,,,,0x03,
7027,-743,627,123,3010,-700,1050,,,,,,,0x03,
7037,-750,640,111,2730,-770,1260,,,,,,,0x03,
7046,-752,639,125,980,-1050,1540,,,,,,,0x03,
7056,-743,638,141,-1190,-1120,1680,,,,,,,0x03,
7066,-730,650,148,-1330,-980,1330,,,,,,,0x03,
7075,-724,656,151,-910,-840,1470,,,,,,,0x03,
7085,-731,665,144,-490,-700,1120,,,,,,,0x03,
7095,-736,675,126,560,-560,770,,,,,,,0x03,
7104,-738,658,114,210,-560,840,,,,,,,0x03,
7114,-740,635,116,-140,-700,1050,,,,,,,0x03,
7124,-734,641,128,1400,-350,840,,,,,,,0x03,
7133,-733,657,139,2450,-420,770,,,,,,,0x03,
7143,-739,670,150,1120,-700,770,,,,,,,0x03,
7153,-736,672,149,-1400,-770,630,,,,,,,0x03,
7162,-737,647,133,-3640,-980,490,,,,,,,0x03,
7172,-743,623,114,-4200,-1330,420,,,,,,,0x03,
7181,-746,640,111,-1820,-1260,70,,,,,,,0x03,
7191,-744,669,125,-840,-1330,140,,,,,,,0x03,
7201,-736,678,141,-2380,-1540,210,,,,,,,0x03,
7210,-734,670,144,-4200,-1750,-140,,,,,,,0x03,
7220,-739,651,142,-5950,-2030,-490,,,,,,,0x03,
7230,-744,635,132,-6790,-2310,-630,,,,,,,0x03,
7239,-747,625,120,-7140,-2590,-630,,,,,,,0x03,
7249,-752,619,127,-7700,-2730,-350,,,,,,,0x03,
7259,-746,619,144,-8960,-2450,70,,,,,,,0x03,
7268,-729,616,159,-8750,-1820,420,,,,,,,0x03,
7278,-722,606,162,-7350,-1260,700,,,,,,,0x03,
7287,-727,622,155,-4270,-770,490,,,,,,,0x03,
7297,-734,641,150,-1610,-70,490,,,,,,,0x03,
7307,-738,660,141,-70,350,280,,,,,,,0x03,
7316,-738,678,126,910,280,-350,,,,,,,0x03,
7326,-737,668,126,140,70,-70,,,,,,,0x03,
7336,-734,627,138,-1260,210,140,,,,,,,0x03,
7345,-732,606,144,-140,630,0,,,,,,,0x03,
7355,-731,621,146,2660,630,0,,,,,,,0x03,
7365,-736,668,130,4900,280,-70,,,,,,,0x03,
7374,-744,713,133,3710,-210,-280,,,,,,,0x03,
7384,-754,699,131,-770,-700,-350,,,,,,,0x03,
7394,-745,637,138,-4480,-630,-560,,,,,,,0x03,
7403,-732,570,142,-3570,-140,-770,,,,,,,0x03,
7413,-723,548,144,3150,910,-910,,,,,,,0x03,
7422,-719,594,145,11620,1890,-770,,,,,,,0x03,
7432,-724,667,140,16030,2520,-280,,,,,,,0x03,
7442,-736,716,143,13370,2310,70,,,,,,,0x03,
7451,-746,718,142,6370,1540,-70,,,,,,,0x03,
7461,-745,680,142,-1120,980,-70,,,,,,,0x03,
7471,-734,642,142,-4550,700,-280,,,,,,,0x03,
7480,-729,629,137,-3500,490,-420,,,,,,,0x03,
7490,-732,633,126,-1120,490,-140,,,,,,,0x03,
7500,-741,638,115,420,280,70,,,,,,,0x03,
7509,-747,643,105,700,0,140,,,,,,,0x03,
7519,-744,647,116,280,-70,420,,,,,,,0x03,
7528,-740,632,133,-280,-280,840,,,,,,,0x03,
7538,-739,619,146,-490,-350,840,,,,,,,0x03,
7548,-736,619,150,420,140,980,,,,,,,0x03,
7557,-740,622,150,1120,490,1120,,,,,,,0x03,
7567,-747,612,139,770,560,1470,,,,,,,0x03,
7577,-748,604,122,770,420,1680,,,,,,,0x03,
7586,-749,624,112,1190,490,1680,,,,,,,0x03,
7596,-747,661,120,1680,140,1540,,,,,,,0x03,
7606,-744,677,127,420,-210,1890,,,,,,,0x03,
7615,-739,671,138,-1540,-490,1610,,,,,,,0x03,
7625,-730,651,135,-2030,-420,1260,,,,,,,0x03,
7634,-727,638,135,-560,0,1190,,,,,,,0x03,
7644,-730,632,125,2030,140,1120,,,,,,,0x03,
7654,-733,640,125,4130,280,1260,,,,,,,0x03,
7663,-736,660,135,3920,280,1820,,,,,,,0x03,
7673,-730,659,137,2730,350,2380,,,,,,,0x03,
7683,-729,633,138,700,700,2800,,,,,,,0x03,
7692,-736,633,136,630,700,2660,,,,,,,0x03,
7702,-740,633,137,770,910,2940,,,,,,,0x03,
7712,-741,645,136,-420,910,3150,,,,,,,0x03,
7721,-742,676,142,-2030,910,2800,,,,,,,0x03,
7731,-740,695,147,-5460,700,2800,,,,,,,0x03,
7741,-737,677,142,-9590,350,2590,,,,,,,0x03,
7750,-738,625,128,-11900,140,2380,,,,,,,0x03,
7760,-734,603,116,-8750,700,1750,,,,,,,0x03,
7769,-733,608,115,-2310,1400,1330,,,,,,,0x03,
7779,-734,637,118,3220,1610,1120,,,,,,,0x03,
7789,-731,664,122,5810,1680,980,,,,,,,0x03,
7798,-729,672,128,5530,1890,980,,,,,,,0x03,
7808,-733,676,137,3360,1750,840,,,,,,,0x03,
7818,-732,688,149,700,1610,420,,,,,,,0x03,
7827,-735,698,153,-2380,1400,0,,,,,,,0x03,
7837,-731,690,143,-4550,1190,-420,,,,,,,0x03,
7847,-721,661,128,-5320,1120,-770,,,,,,,0x03,
7856,-719,638,108,-2940,1610,-1330,,,,,,,0x03,
7866,-726,637,109,1750,2380,-1610,,,,,,,0x03,
7875,-729,642,123,5530,2660,-1540,,,,,,,0x03,
7885,-728,647,131,6860,2660,-1540,,,,,,,0x03,
7895,-723,669,128,6930,2520,-2030,,,,,,,0x03,
7904,-731,686,123,5040,1960,-2170,,,,,,,0x03,
7914,-734,686,124,1540,1610,-1750,,,,,,,0x03,
7924,-731,649,119,-1540,1750,-630,,,,,,,0x03,
7933,-737,592,120,-1890,2170,-350,,,,,,,0x03,
7943,-746,565,127,1960,2800,-630,,,,,,,0x03,
7953,-744,581,132,7770,3500,-350,,,,,,,0x03,
7962,-741,627,127,11620,4060,-140,,,,,,,0x03,
7972,-746,672,127,10710,3990,70,,,,,,,0x03,
7982,-748,700,119,6580,3430,0,,,,,,,0x03,
7991,-746,699,111,980,2730,-210,,,,,,,0x03,
8001,-743,650,105,-4060,2240,70,,,,,,,0x03,
8010,-727,594,107,-4550,2520,700,,,,,,,0x03,
8020,-711,608,121,0,3640,700,,,,,,,0x03,
8030,-712,683,129,5530,4130,280,,,,,,,0x03,
8039,-719,743,131,6370,4060,840,,,,,,,0x03,
8049,-725,724,124,1470,4060,1330,,,,,,,0x03,
8059,-729,658,108,-3780,3850,980,,,,,,,0x03,
8068,-732,642,91,-4200,3500,210,,,,,,,0x03,
8078,-734,684,88,-1890,2800,-140,,,,,,,0x03,
8088,-743,700,95,-3710,1610,700,,,,,,,0x03,
8097,-745,674,93,-9170,210,1260,,,,,,,0x03,
8107,-741,647,90,-12460,-420,840,,,,,,,0x03,
8116,-749,609,101,-13370,-1120,1050,,,,,,,0x03,
8126,-752,565,107,-11480,-1540,1190,,,,,,,0x03,
8136,-754,548,105,-5040,-1120,980,,,,,,,0x03,
8145,-756,574,105,2590,-770,770,,,,,,,0x03,
8155,-755,607,115,6510,-560,1120,,,,,,,0x03,
8165,-744,627,118,7770,-210,1190,,,,,,,0x03,
8174,-737,660,120,8050,-70,910,,,,,,,0x03,
8184,-737,677,118,7350,-630,630,,,,,,,0x03,
8194,-737,652,103,6230,-1120,770,,,,,,,0x03,
8203,-739,614,92,6440,-840,630,,,,,,,0x03,
8213,-741,598,94,9940,0,280,,,,,,,0x03,
8223,-739,614,106,14980,490,210,,,,,,,0x03,
8232,-728,662,127,18760,1190,-140,,,,,,,0x03,
8242,-726,711,136,18970,1610,-490,,,,,,,0x03,
8251,-729,738,139,14280,1330,-630,,,,,,,0x03,
8261,-732,723,129,6510,910,-770,,,,,,,0x03,
8271,-726,679,117,280,630,-490,,,,,,,0x03,
8280,-724,651,106,-3010,840,-70,,,,,,,0x03,
8290,-719,650,105,-3010,1120,280,,,,,,,0x03,
8300,-719,671,111,-2030,1400,420,,,,,,,0x03,
8309,-719,689,113,-2940,1750,770,,,,,,,0x03,
8319,-718,691,109,-3920,2100,910,,,,,,,0x03,
8329,-720,667,90,-3990,1890,1260,,,,,,,0x03,
8338,-722,663,79,-2660,1960,910,,,,,,,0x03,
8348,-723,687,79,-490,1890,490,,,,,,,0x03,
8357,-724,710,79,490,1540,420,,,,,,,0x03,
8367,-725,709,79,-910,840,350,,,,,,,0x03,
8377,-731,688,84,-3430,420,70,,,,,,,0x03,
8386,-736,669,91,-4620,140,-420,,,,,,,0x03,
8396,-739,653,94,-4690,-420,-490,,,,,,,0x03,
8406,-741,627,95,-4200,-910,-210,,,,,,,0x03,
8415,-748,609,101,-3500,-700,-350,,,,,,,0x03,
8425,-749,631,115,-1330,-280,-1120,,,,,,,0x03,
8435,-752,643,120,70,-210,-1260,,,,,,,0x03,
8444,-753,609,107,-70,-420,-840,,,,,,,0x03,
8454,-749,588,97,980,140,-910,,,,,,,0x03,
8463,-748,612,106,3570,1120,-1400,,,,,,,0x03,
8473,-748,628,117,4830,1330,-770,,,,,,,0x03,
8483,-735,630,106,5320,980,-280,,,,,,,0x03,
8492,-725,645,93,5530,1120,-770,,,,,,,0x03,
8502,-729,683,89,7070,1470,-1470,,,,,,,0x03,
8512,-731,708,98,6860,1400,-1330,,,,,,,0x03,
8521,-721,702,101,5180,1260,-1120,,,,,,,0x03,
8531,-717,676,96,4270,1120,-1470,,,,,,,0x03,
8541,-729,639,96,3570,1050,-1610,,,,,,,0x03,
8550,-735,619,95,4130,1190,-1190,,,,,,,0x03,
8560,-725,642,103,6440,1680,-1190,,,,,,,0x03,
8570,-728,672,106,7070,1680,-910,,,,,,,0x03,
8579,-732,692,99,5670,1190,-910,,,,,,,0x03,
8589,-738,679,90,2100,910,-840,,,,,,,0x03,
8598,-742,643,88,-490,1120,-700,,,,,,,0x03,
8608,-739,612,88,-490,1680,-700,,,,,,,0x03,
8618,-738,610,98,2170,2170,-350,,,,,,,0x03,
8627,-738,635,97,5950,2240,-420,,,,,,,0x03,
8637,-738,668,88,7420,2240,-420,,,,,,,0x03,
8647,-742,675,84,5040,1960,-210,,,,,,,0x03,
8656,-749,657,77,1470,1400,-70,,,,,,,0x03,
8666,-745,647,75,-210,910,-70,,,,,,,0x03,
8676,-741,637,74,420,420,-70,,,,,,,0x03,
8685,-735,650,68,2380,280,0,,,,,,,0x03,
8695,-737,663,76,3500,210,70,,,,,,,0x03,
8704,-744,665,78,3640,-210,70,,,,,,,0x03,
8714,-738,676,77,3710,-420,210,,,,,,,0x03,
8724,-734,679,79,2870,-210,490,,,,,,,0x03,
8733,-736,685,92,840,-490,140,,,,,,,0x03,
8743,-738,673,93,-1260,-980,140,,,,,,,0x03,
8753,-734,651,78,-2800,-1400,70,,,,,,,0x03,
8762,-737,630,69,-3220,-1890,210,,,,,,,0x03,
8772,-743,624,77,-2940,-1540,1050,,,,,,,0x03,
8782,-736,644,86,-1540,-1190,1330,,,,,,,0x03,
8791,-729,685,89,-140,-1190,1260,,,,,,,0x03,
8801,-737,705,90,-1820,-1680,1190,,,,,,,0x03,
8811,-745,680,89,-5740,-2100,980,,,,,,,0x03,
8820,-745,626,77,-8120,-2380,1050,,,,,,,0x03,
8830,-739,603,66,-6720,-2240,770,,,,,,,0x03,
8839,-737,640,79,-3080,-2380,350,,,,,,,0x03,
8849,-737,675,89,-1890,-2870,770,,,,,,,0x03,
8859,-730,691,88,-3290,-3010,630,,,,,,,0x03,
8868,-735,672,84,-4830,-3290,0,,,,,,,0x03,
8878,-745,629,76,-5320,-3500,-280,,,,,,,0x03,
8888,-738,612,79,-3220,-3010,-560,,,,,,,0x03,
8897,-728,651,103,770,-2030,-770,,,,,,,0x03,
8907,-729,688,128,1610,-1610,-560,,,,,,,0x03,
8917,-728,686,129,-1050,-1610,-350,,,,,,,0x03,
8926,-736,646,112,-4550,-1680,-490,,,,,,,0x03,
8936,-737,614,87,-5600,-1540,-980,,,,,,,0x03,
8945,-737,613,82,-3640,-980,-910,,,,,,,0x03,
8955,-733,646,92,-210,-420,-560,,,,,,,0x03,
8965,-726,672,106,1750,-70,-140,,,,,,,0x03,
8974,-725,652,110,2100,210,0,,,,,,,0x03,
8984,-730,631,101,2660,840,-490,,,,,,,0x03,
8994,-737,639,95,4270,1330,-980,,,,,,,0x03,
9003,-737,662,90,4970,1260,-560,,,,,,,0x03,
9013,-738,682,84,3500,770,0,,,,,,,0x03,
9023,-744,659,86,-210,350,280,,,,,,,0x03,
9032,-743,637,97,-3080,700,140,,,,,,,0x03,
9042,-732,650,109,-2100,1120,-280,,,,,,,0x03,
9051,-725,666,94,1190,980,-490,,,,,,,0x03,
9061,-727,684,78,3710,840,-770,,,,,,,0x03,
9071,-744,668,75,3290,840,-770,,,,,,,0x03,
9080,-749,626,73,2170,980,-770,,,,,,,0x03,
9090,-734,620,83,4340,1400,-980,,,,,,,0x03,
9100,-724,633,99,7350,1540,-280,,,,,,,0x03,
9109,-724,662,102,9310,1470,-140,,,,,,,0x03,
9119,-728,673,103,8960,1680,70,,,,,,,0x03,
9129,-735,656,102,6930,2310,560,,,,,,,0x03,
9138,-740,651,93,5390,2940,280,,,,,,,0x03,
9148,-737,671,98,4760,3290,-70,,,,,,,0x03,
9158,-734,671,99,3150,3290,490,,,,,,,0x03,
9167,-736,647,88,350,3150,910,,,,,,,0x03,
9177,-730,633,80,-1680,3290,700,,,,,,,0x03,
9186,-734,638,71,-1470,3290,770,,,,,,,0x03,
9196,-732,668,58,140,2660,1050,,,,,,,0x03,
9206,-734,680,42,350,2100,1960,,,,,,,0x03,
9215,-739,655,45,-1260,1820,2310,,,,,,,0x03,
9225,-743,644,62,-1470,1750,1960,,,,,,,0x03,
9235,-738,662,70,770,1400,1610,,,,,,,0x03,
9244,-734,674,70,2100,700,1610,,,,,,,0x03,
9254,-743,678,59,1750,-350,1330,,,,,,,0x03,
9264,-749,689,51,700,-980,490,,,,,,,0x03,
9273,-755,673,59,-1610,-1610,140,,,,,,,0x03,
9283,-756,603,71,-3990,-2030,630,,,,,,,0x03,
9292,-745,582,85,-1330,-1610,0,,,,,,,0x03,
9302,-732,635,100,4760,-840,-840,,,,,,,0x03,
9312,-735,690,108,7140,-630,-630,,,,,,,0x03,
9321,-743,693,97,4270,-840,-560,,,,,,,0x03,
9331,-748,664,70,490,-1050,-1050,,,,,,,0x03,
9341,-742,645,59,-1260,-980,-1610,,,,,,,0x03,
9350,-733,645,67,-770,-770,-1470,,,,,,,0x03,
9360,-720,657,90,350,-350,-1050,,,,,,,0x03,
9370,-712,672,101,1820,350,-1050,,,,,,,0x03,
9379,-713,674,92,3290,770,-980,,,,,,,0x03,
9389,-724,650,72,3920,980,-210,,,,,,,0x03,
9399,-727,627,58,4760,1680,280,,,,,,,0x03,
9408,-723,654,69,6090,2520,420,,,,,,,0x03,
9418,-720,688,94,6370,2870,840,,,,,,,0x03,
9427,-717,688,102,4690,2870,1400,,,,,,,0x03,
9437,-720,661,82,3850,2940,1820,,,,,,,0x03,
9447,-732,647,57,4270,3360,1750,,,,,,,0x03,
9456,-741,664,50,4970,3290,1120,,,,,,,0x03,
9466,-748,675,55,4200,2730,1470,,,,,,,0x03,
9476,-745,654,62,1330,2170,1960,,,,,,,0x03,
9485,-741,634,62,-350,1750,1470,,,,,,,0x03,
9495,-742,650,51,420,1120,560,,,,,,,0x03,
9505,-746,694,45,1050,350,-280,,,,,,,0x03,
9514,-756,697,51,-1960,-490,0,,,,,,,0x03,
9524,-757,634,57,-5950,-980,420,,,,,,,0x03,
9533,-745,604,57,-4480,-560,-560,,,,,,,0x03,
9543,-737,614,75,140,-280,-1190,,,,,,,0x03,
9553,-740,642,87,3430,-140,-700,,,,,,,0x03,
9562,-736,680,72,5110,-280,-770,,,,,,,0x03,
9572,-731,708,52,3780,-560,-980,,,,,,,0x03,
9582,-739,694,51,-840,-910,-630,,,,,,,0x03,
9591,-742,659,51,-4130,-1120,-350,,,,,,,0x03,
9601,-726,639,58,-3430,-1190,-280,,,,,,,0x03,
9611,-717,639,74,-1050,-980,210,,,,,,,0x03,
9620,-716,664,77,1330,-700,490,,,,,,,0x03,
9630,-722,680,63,1540,-700,560,,,,,,,0x03,
9640,-735,682,55,-280,-1120,560,,,,,,,0x03,
9649,-745,668,55,-2660,-1470,770,,,,,,,0x03,
9659,-735,658,49,-3990,-1820,560,,,,,,,0x03,
9668,-722,661,59,-3570,-1890,630,,,,,,,0x03,
9678,-729,658,77,-3360,-1750,980,,,,,,,0x03,
9688,-736,653,84,-2730,-1400,560,,,,,,,0x03,
9697,-738,630,78,-2170,-1400,700,,,,,,,0x03,
9707,-740,631,63,-770,-980,630,,,,,,,0x03,
9717,-738,668,70,490,-560,70,,,,,,,0x03,
9726,-738,694,74,70,-770,70,,,,,,,0x03,
9736,-742,675,79,-3010,-1050,350,,,,,,,0x03,
9746,-738,640,78,-5250,-840,-70,,,,,,,0x03,
9755,-737,603,76,-4130,-700,-140,,,,,,,0x03,
9765,-735,620,56,-140,-700,-70,,,,,,,0x03,
9774,-734,696,52,3850,-630,-490,,,,,,,0x03,
9784,-735,736,53,2240,-1330,-210,,,,,,,0x03,
9794,-740,723,58,-2870,-2030,-420,,,,,,,0x03,
9803,-735,667,61,-7140,-2590,-910,,,,,,,0x03,
9813,-726,628,68,-7490,-2590,-1330,,,,,,,0x03,
9823,-725,620,81,-4620,-2240,-1120,,,,,,,0x03,
9832,-725,635,84,-1050,-2030,-840,,,,,,,0x03,
9842,-734,643,81,140,-1960,-420,,,,,,,0x03,
9852,-741,643,72,-420,-1750,-350,,,,,,,0x03,
9861,-739,651,75,-770,-1330,-560,,,,,,,0x03,
9871,-734,663,83,-910,-1190,-420,,,,,,,0x03,
9880,-731,680,83,-490,-1190,-630,,,,,,,0x03,
9890,-730,679,77,-350,-1120,-700,,,,,,,0x03,
9900,-736,660,70,-1260,-1120,-770,,,,,,,0x03,
9909,-744,641,62,-1050,-1190,-1120,,,,,,,0x03,
9919,-745,636,61,-420,-1330,-1050,,,,,,,0x03,
9929,-737,674,68,560,-1260,-1400,,,,,,,0x03,
9938,-729,707,85,-490,-1400,-1400,,,,,,,0x03,
9948,-730,688,89,-3920,-1890,-910,,,,,,,0x03,
9958,-733,640,79,-6090,-1820,-490,,,,,,,0x03,
9967,-732,600,72,-4480,-1190,-210,,,,,,,0x03,
9977,-732,609,75,-560,-700,-140,,,,,,,0x03,
9987,-733,646,83,2800,-490,420,,,,,,,0x03,
9996,-732,673,93,2450,-420,700,,,,,,,0x03,
10006,-736,661,80,490,-490,560,,,,,,,0x03,
10015,-736,641,74,-210,-210,280,,,,,,,0x03,
10025,-742,618,79,980,210,490,,,,,,,0x03,
10035,-743,594,84,3850,840,840,,,,,,,0x03,
10044,-736,602,96,8610,1820,770,,,,,,,0x03,
10054,-733,624,106,13930,2660,490,,,,,,,0x03,
10064,-739,620,94,17430,3150,700,,,,,,,0x03,
10073,-735,629,74,19740,3640,490,,,,,,,0x03,
10083,-722,687,76,21840,4830,-490,,,,,,,0x03,
10093,-723,766,79,21280,4690,-1120,,,,,,,0x03,
10102,-723,808,72,15680,3710,-700,,,,,,,0x03,
10112,-729,772,57,6860,3500,-280,,,,,,,0x03,
10121,-731,687,49,140,3290,-980,,,,,,,0x03,
10131,-729,621,41,-1610,3220,-1050,,,,,,,0x03,
10141,-718,638,31,1890,3500,-1610,,,,,,,0x03,
10150,-715,688,36,4830,3220,-980,,,,,,,0x03,
10160,-719,692,43,2310,2660,420,,,,,,,0x03,
10170,-727,650,49,-2520,2590,1050,,,,,,,0x03,
10179,-728,641,40,-3360,2660,420,,,,,,,0x03,
10189,-729,665,36,-1610,2170,140,,,,,,,0x03,
10199,-740,658,38,-2030,1540,1050,,,,,,,0x03,
10208,-742,633,45,-2450,1750,1540,,,,,,,0x03,
10218,-738,644,47,-420,2310,490,,,,,,,0x03,
10228,-750,673,61,700,2170,-210,,,,,,,0x03,
10237,-762,645,61,-1330,1330,350,,,,,,,0x03,
10247,-757,593,42,-2800,980,420,,,,,,,0x03,
10256,-750,610,24,-490,1260,-490,,,,,,,0x03,
10266,-755,667,39,840,700,-560,,,,,,,0x03,
10276,-757,684,52,-1540,-420,280,,,,,,,0x03,
10285,-745,669,40,-3500,-980,280,,,,,,,0x03,
10295,-739,637,31,-3920,-910,140,,,,,,,0x03,
10305,-742,611,35,-2240,-980,210,,,,,,,0x03,
10314,-736,625,45,1750,-770,70,,,,,,,0x03,
10324,-720,667,58,5320,-280,0,,,,,,,0x03,
10334,-718,707,58,6510,-560,-140,,,,,,,0x03,
10343,-730,706,48,3920,-1260,-140,,,,,,,0x03,
10353,-739,675,33,280,-1610,-350,,,,,,,0x03,
10362,-739,640,34,-1120,-1540,-420,,,,,,,0x03,
10372,-732,629,49,70,-1120,-140,,,,,,,0x03,
10382,-718,647,68,3080,-490,140,,,,,,,0x03,
10391,-713,662,80,4830,140,770,,,,,,,0x03,
10401,-717,693,69,5250,700,350,,,,,,,0x03,
10411,-733,698,58,3360,840,210,,,,,,,0x03,
10420,-748,647,50,-1260,560,980,,,,,,,0x03,
10430,-742,618,42,-3220,980,980,,,,,,,0x03,
10440,-728,654,51,-1540,1610,630,,,,,,,0x03,
10449,-728,696,65,-1400,1750,1120,,,,,,,0x03,
10459,-728,682,73,-4200,1820,1750,,,,,,,0x03,
10469,-729,637,63,-5670,2240,1610,,,,,,,0x03,
10478,-733,619,36,-3010,2450,770,,,,,,,0x03,
10488,-732,656,27,1190,2660,350,,,,,,,0x03,
10497,-735,721,31,3640,2450,210,,,,,,,0x03,
10507,-737,738,41,1960,1820,280,,,,,,,0x03,
10517,-741,688,41,-2170,1190,70,,,,,,,0x03,
10526,-748,620,36,-4270,630,-630,,,,,,,0x03,
10536,-748,596,29,-1680,560,-1330,,,,,,,0x03,
10546,-741,632,37,2520,490,-1260,,,,,,,0x03,
10555,-736,672,53,4130,210,-490,,,,,,,0x03,
10565,-731,687,64,3080,140,-280,,,,,,,0x03,
10575,-731,683,64,1120,420,-770,,,,,,,0x03,
10584,-734,668,56,70,560,-1120,,,,,,,0x03,
10594,-734,671,50,700,770,-1400,,,,,,,0x03,
10603,-737,673,47,1540,840,-1120,,,,,,,0x03,
10613,-737,651,42,1050,700,-560,,,,,,,0x03,
10623,-732,637,43,-280,700,-490,,,,,,,0x03,
10632,-728,660,42,0,770,-770,,,,,,,0x03,
10642,-727,686,45,-770,420,-490,,,,,,,0x03,
10652,-730,696,34,-2940,-280,-350,,,,,,,0x03,
10661,-727,690,24,-4900,-630,-630,,,,,,,0x03,
10671,-729,666,20,-5740,-630,-700,,,,,,,0x03,
10681,-733,650,28,-4620,-560,-770,,,,,,,0x03,
10690,-738,631,45,-2730,-490,-280,,,,,,,0x03,
10700,-734,613,53,-560,-350,420,,,,,,,0x03,
10709,-735,617,58,980,-210,560,,,,,,,0x03,
10719,-739,654,48,1260,-280,350,,,,,,,0x03,
10729,-736,726,38,420,-630,-420,,,,,,,0x03,
10738,-740,743,40,-4480,-1330,-70,,,,,,,0x03,
10748,-746,684,39,-10080,-1890,0,,,,,,,0x03,
10758,-741,593,33,-10780,-1890,-350,,,,,,,0x03,
10767,-735,554,38,-4970,-1120,-560,,,,,,,0x03,
10777,-730,603,57,3360,-350,-420,,,,,,,0x03,
10787,-725,687,57,8120,-420,70,,,,,,,0x03,
10796,-732,745,44,6090,-910,70,,,,,,,0x03,
10806,-752,726,40,-1400,-1470,-70,,,,,,,0x03,
10816,-765,637,42,-8400,-2100,-350,,,,,,,0x03,
10825,-748,564,41,-8610,-2100,-420,,,,,,,0x03,
10835,-722,597,46,-1260,-1540,-840,,,,,,,0x03,
10844,-720,687,55,5180,-1680,-700,,,,,,,0x03,
10854,-733,732,52,4270,-2100,-210,,,,,,,0x03,
10864,-739,718,44,-910,-2030,-350,,,,,,,0x03,
10873,-739,665,46,-5110,-2030,-630,,,,,,,0x03,
10883,-734,618,52,-4690,-2100,-350,,,,,,,0x03,
10893,-727,603,49,280,-1890,490,,,,,,,0x03,
10902,-726,623,55,4060,-1190,840,,,,,,,0x03,
10912,-735,674,64,4620,-630,560,,,,,,,0x03,
10922,-735,706,64,2030,-630,350,,,,,,,0x03,
10931,-731,700,44,-2030,-1190,140,,,,,,,0x03,
10941,-736,667,36,-4410,-1470,-140,,,,,,,0x03,
10950,-740,629,40,-4410,-1540,-280,,,,,,,0x03,
10960,-736,630,46,-980,-1260,-910,,,,,,,0x03,
10970,-735,644,52,2660,-1120,-910,,,,,,,0x03,
10979,-739,654,55,4060,-1190,-770,,,,,,,0x03,
10989,-736,664,61,4060,-980,-1050,,,,,,,0x03,
10999,-738,675,57,4130,-980,-1610,,,,,,,0x03,
11008,-746,674,56,3010,-1400,-1890,,,,,,,0x03,
11018,-742,647,71,1400,-1120,-1680,,,,,,,0x03,
11028,-727,640,70,3080,0,-2310,,,,,,,0x03,
11037,-722,662,72,6860,1260,-2940,,,,,,,0x03,
11047,-735,644,77,9100,1960,-2310,,,,,,,0x03,
11057,-743,623,66,10920,2730,-2030,,,,,,,0x03,
11066,-742,639,59,12670,3710,-2170,,,,,,,0x03,
11076,-746,662,61,12180,3920,-1890,,,,,,,0x03,
11085,-736,694,54,9870,3990,-1610,,,,,,,0x03,
11095,-736,700,48,6720,4130,-1330,,,,,,,0x03,
11105,-742,654,51,3010,3990,-630,,,,,,,0x03,
11114,-733,638,44,2590,4550,-1120,,,,,,,0x03,
11124,-717,680,33,5460,4970,-2100,,,,,,,0x03,
11134,-720,719,21,5740,4270,-1960,,,,,,,0x03,
11143,-730,689,16,2730,3640,-1190,,,,,,,0x03,
11153,-737,623,8,210,3850,-630,,,,,,,0x03,
11163,-734,609,2,2030,3920,-1120,,,,,,,0x03,
11172,-734,636,1,5250,3500,-630,,,,,,,0x03,
11182,-737,664,10,6160,3080,210,,,,,,,0x03,
11191,-735,681,17,4690,2730,420,,,,,,,0x03,
11201,-739,673,17,1610,2170,350,,,,,,,0x03,
11211,-751,643,14,-840,1750,490,,,,,,,0x03,
11220,-755,608,17,-560,1820,630,,,,,,,0x03,
11230,-745,610,28,2450,1890,770,,,,,,,0x03,
11240,-733,663,32,5810,1820,350,,,,,,,0x03,
11249,-735,723,33,5740,1470,0,,,,,,,0x03,
11259,-751,713,22,1470,560,-70,,,,,,,0x03,
11269,-756,652,5,-3220,-70,-140,,,,,,,0x03,
11278,-740,638,0,-3780,-140,-910,,,,,,,0x03,
11288,-736,653,11,-2450,-770,-910,,,,,,,0x03,
11298,-742,649,20,-2520,-1470,0,,,,,,,0x03,
11307,-736,641,25,-2590,-1540,140,,,,,,,0x03,
11317,-734,660,17,-2240,-1470,-280,,,,,,,0x03,
11326,-744,681,22,-3150,-1960,-420,,,,,,,0x03,
11336,-745,677,24,-4270,-2310,70,,,,,,,0x03,
11346,-731,680,21,-4760,-2240,-210,,,,,,,0x03,
11355,-730,672,23,-5670,-2310,-210,,,,,,,0x03,
11365,-738,623,32,-6510,-2240,490,,,,,,,0x03,
11375,-741,576,38,-5530,-1960,1190,,,,,,,0x03,
11384,-736,599,28,-1750,-1540,770,,,,,,,0x03,
11394,-730,676,17,910,-2100,770,,,,,,,0x03,
11404,-737,726,17,-1260,-2660,1610,,,,,,,0x03,
11413,-740,724,19,-6230,-3010,1750,,,,,,,0x03,
11423,-729,693,26,-9520,-2940,1190,,,,,,,0x03,
11432,-726,651,36,-9380,-2870,770,,,,,,,0x03,
11442,-725,628,35,-5460,-2590,420,,,,,,,0x03,
11452,-726,652,28,350,-2240,70,,,,,,,0x03,
11461,-737,690,31,2730,-2240,-70,,,,,,,0x03,
11471,-747,706,26,0,-3010,-70,,,,,,,0x03,
11481,-744,703,18,-4480,-3710,-280,,,,,,,0x03,
11490,-739,683,23,-8960,-3990,-280,,,,,,,0x03,
11500,-734,665,35,-10850,-4200,-560,,,,,,,0x03,
11510,-729,649,44,-10010,-4060,-700,,,,,,,0x03,
11519,-728,645,53,-7630,-3710,-910,,,,,,,0x03,
11529,-735,655,51,-4970,-3430,-1120,,,,,,,0x03,
11538,-742,658,37,-3570,-3430,-1120,,,,,,,0x03,
11548,-750,624,32,-4410,-3430,-770,,,,,,,0x03,
11558,-749,598,34,-3920,-2660,-770,,,,,,,0x03,
11567,-736,606,56,-1190,-1750,-770,,,,,,,0x03,
11577,-730,636,82,1750,-1050,-770,,,,,,,0x03,
11587,-730,667,93,3080,-560,-980,,,,,,,0x03,
11596,-739,682,81,2100,-490,-1330,,,,,,,0x03,
11606,-742,682,50,350,-700,-1890,,,,,,,0x03,
11616,-745,678,26,-1120,-700,-2380,,,,,,,0x03,
11625,-754,646,27,-2100,-1120,-2170,,,,,,,0x03,
11635,-752,589,37,-2310,-1400,-1400,,,,,,,0x03,
11645,-737,585,47,910,-770,-1540,,,,,,,0x03,
11654,-729,647,58,5600,-420,-2030,,,,,,,0x03,
11664,-734,711,58,5740,-840,-1610,,,,,,,0x03,
11673,-746,720,46,1260,-1400,-1330,,,,,,,0x03,
11683,-754,660,34,-4270,-1820,-910,,,,,,,0x03,
11693,-752,613,39,-5810,-1330,-1190,,,,,,,0x03,
11702,-744,612,52,-1820,-910,-1190,,,,,,,0x03,
11712,-734,622,72,2590,-1050,-210,,,,,,,0x03,
11722,-737,641,77,4130,-490,140,,,,,,,0x03,
11731,-739,670,71,3500,140,-490,,,,,,,0x03,
11741,-747,686,43,1330,-280,-560,,,,,,,0x03,
11751,-747,691,21,-1120,-910,-420,,,,,,,0x03,
11760,-737,699,23,-2520,-980,-630,,,,,,,0x03,
11770,-727,695,40,-3500,-1050,-700,,,,,,,0x03,
11779,-722,662,48,-4690,-1400,-140,,,,,,,0x03,
11789,-719,638,39,-3150,-1330,560,,,,,,,0x03,
11799,-728,627,21,-840,-910,1470,,,,,,,0x03,
11808,-739,652,14,210,-840,1750,,,,,,,0x03,
11818,-742,672,32,-1750,-1470,2240,,,,,,,0x03,
11828,-742,650,44,-5250,-2310,2520,,,,,,,0x03,
11837,-744,619,41,-7140,-2590,2310,,,,,,,0x03,
11847,-741,610,50,-6020,-2380,1890,,,,,,,0x03,
11857,-746,625,59,-3290,-2170,1890,,,,,,,0x03,
11866,-747,657,64,-1470,-2170,1610,,,,,,,0x03,
11876,-743,677,56,-1610,-2100,1400,,,,,,,0x03,
11886,-742,678,47,-2450,-1890,1120,,,,,,,0x03,
11895,-747,644,47,-3360,-1680,1050,,,,,,,0x03,
11905,-751,603,53,-2520,-1610,1120,,,,,,,0x03,
11914,-745,596,57,70,-1330,840,,,,,,,0x03,
11924,-737,640,63,3290,-770,490,,,,,,,0x03,
11934,-731,699,68,4620,-840,280,,,,,,,0x03,
11943,-730,723,57,1750,-1050,280,,,,,,,0x03,
11953,-734,708,38,-1750,-1330,-210,,,,,,,0x03,
11963,-741,658,30,-3500,-1610,-420,,,,,,,0x03,
11972,-738,611,30,-2310,-1750,-350,,,,,,,0x03,
11982,-730,599,41,1610,-1610,-350,,,,,,,0x03,
11992,-724,643,51,6090,-1260,-560,,,,,,,0x03,
12001,-721,717,58,7280,-1330,-910,,,,,,,0x03,
12011,-732,747,62,3080,-1610,-700,,,,,,,0x03,
12020,-738,722,60,-2310,-1540,-840,,,,,,,0x03,
12030,-737,662,53,-5950,-1330,-1050,,,,,,,0x03,
12040,-739,604,60,-5320,-840,-980,,,,,,,0x03,
12049,-733,604,70,630,280,-700,,,,,,,0x03,
12059,-724,637,70,6930,1260,-350,,,,,,,0x03,
12069,-727,672,59,8680,1540,-350,,,,,,,0x03,
12078,-734,694,44,6720,1610,-490,,,,,,,0x03,
12088,-740,696,47,2870,1610,-700,,,,,,,0x03,
12098,-743,680,43,-980,980,-840,,,,,,,0x03,
12107,-740,650,38,-2940,490,-770,,,,,,,0x03,
12117,-738,617,39,-2380,280,-630,,,,,,,0x03,
12127,-734,631,36,210,560,-910,,,,,,,0x03,
12136,-739,671,48,2380,630,-1050,,,,,,,0x03,
12146,-744,689,50,2030,70,-840,,,,,,,0x03,
12155,-747,671,45,-420,-350,-560,,,,,,,0x03,
12165,-741,645,45,-2310,-350,-630,,,,,,,0x03,
12175,-740,647,44,-1680,-350,-1120,,,,,,,0x03,
12184,-743,658,47,-700,-770,-980,,,,,,,0x03,
12194,-744,659,42,-700,-1120,-630,,,,,,,0x03,
12204,-752,650,41,-1540,-1540,-420,,,,,,,0x03,
12213,-748,633,41,-2240,-1890,-140,,,,,,,0x03,
12223,-740,644,42,-1470,-2030,70,,,,,,,0x03,
12233,-736,673,38,-490,-2310,70,,,,,,,0x03,
12242,-736,687,45,-2100,-2660,140,,,,,,,0x03,
12252,-742,668,53,-5180,-2870,280,,,,,,,0x03,
12261,-736,644,52,-6790,-2940,0,,,,,,,0x03,
12271,-734,635,51,-6370,-2940,140,,,,,,,0x03,
12281,-734,657,49,-4620,-3080,350,,,,,,,0x03,
12290,-738,687,56,-4130,-3010,1120,,,,,,,0x03,
12300,-743,681,63,-7280,-3080,1400,,,,,,,0x03,
12310,-744,670,56,-11340,-3500,700,,,,,,,0x03,
12319,-744,662,51,-14420,-3640,420,,,,,,,0x03,
12329,-741,660,50,-16870,-4270,350,,,,,,,0x03,
12339,-736,655,59,-18900,-4480,280,,,,,,,0x03,
12348,-735,625,73,-19110,-3780,490,,,,,,,0x03,
12358,-730,591,74,-15750,-3080,560,,,,,,,0x03,
12367,-727,594,66,-8820,-2450,210,,,,,,,0x03,
12377,-734,628,76,-2450,-1890,70,,,,,,,0x03,
12387,-748,648,80,-350,-1820,210,,,,,,,0x03,
12396,-752,639,70,-420,-1890,210,,,,,,,0x03,
12406,-748,634,72,-1190,-1750,140,,,,,,,0x03,
12416,-743,648,82,-1120,-1610,-280,,,,,,,0x03,
12425,-734,673,78,-210,-1610,-630,,,,,,,0x03,
12435,-730,691,69,140,-1820,-840,,,,,,,0x03,
12445,-741,680,63,-560,-2100,-840,,,,,,,0x03,
12454,-747,651,64,-1400,-1890,-840,,,,,,,0x03,
12464,-744,620,70,-490,-1540,-980,,,,,,,0x03,
12474,-739,621,81,2940,-1050,-1260,,,,,,,0x03,
12483,-733,649,88,6510,-770,-1470,,,,,,,0x03,
12493,-731,673,89,7280,-560,-1120,,,,,,,0x03,
12502,-734,686,86,5250,-420,-1050,,,,,,,0x03,
12512,-735,688,80,2380,-70,-1050,,,,,,,0x03,
12522,-732,686,74,350,70,-980,,,,,,,0x03,
12531,-731,673,72,-770,-280,-210,,,,,,,0x03,
12541,-728,663,66,-140,-210,420,,,,,,,0x03,
12551,-724,665,58,1330,-70,630,,,,,,,0x03,
12560,-727,670,40,1890,-420,350,,,,,,,0x03,
12570,-736,679,34,700,-910,70,,,,,,,0x03,
12580,-739,675,44,-1330,-1400,-70,,,,,,,0x03,
12589,-734,665,64,-3220,-1540,-70,,,,,,,0x03,
12599,-729,655,76,-3290,-1260,-420,,,,,,,0x03,
12608,-729,631,91,-2660,-700,-210,,,,,,,0x03,
12618,-739,614,102,-1050,0,-210,,,,,,,0x03,
12628,-742,613,96,1470,700,-210,,,,,,,0x03,
12637,-741,631,78,3290,1190,-350,,,,,,,0x03,
12647,-746,656,66,3010,1120,-420,,,,,,,0x03,
12657,-750,679,58,980,630,-210,,,,,,,0x03,
12666,-748,680,60,-2380,70,70,,,,,,,0x03,
12676,-742,651,61,-5670,-490,350,,,,,,,0x03,
12686,-737,650,58,-6160,-840,0,,,,,,,0x03,
12695,-737,668,57,-4620,-1260,-70,,,,,,,0x03,
12705,-740,673,55,-3990,-1960,490,,,,,,,0x03,
12715,-750,642,55,-4900,-2240,910,,,,,,,0x03,
12724,-751,614,57,-4410,-2380,490,,,,,,,0x03,
12734,-744,615,66,-1610,-2170,420,,,,,,,0x03,
12743,-738,628,72,980,-1960,630,,,,,,,0x03,
12753,-737,661,79,2170,-1890,490,,,,,,,0x03,
12763,-736,673,86,980,-1820,560,,,,,,,0x03,
12772,-738,663,81,-770,-1680,280,,,,,,,0x03,
12782,-735,660,72,-1050,-1610,-350,,,,,,,0x03,
12792,-736,660,63,-140,-1610,-630,,,,,,,0x03,
12801,-742,648,69,210,-1750,-420,,,,,,,0x03,
12811,-743,622,75,350,-1680,-70,,,,,,,0x03,
12821,-732,625,76,1540,-1120,-350,,,,,,,0x03,
12830,-729,657,86,3010,-770,-490,,,,,,,0x03,
12840,-738,677,85,2380,-1330,70,,,,,,,0x03,
12849,-737,678,70,70,-1680,560,,,,,,,0x03,
12859,-735,680,60,-2100,-1540,630,,,,,,,0x03,
12869,-734,694,70,-3500,-1610,280,,,,,,,0x03,
12878,-732,698,84,-4130,-1750,350,,,,,,,0x03,
12888,-734,658,88,-3570,-1610,770,,,,,,,0x03,
12898,-737,603,84,-2590,-1050,560,,,,,,,0x03,
12907,-739,601,77,280,-490,-280,,,,,,,0x03,
12917,-742,636,72,3360,-280,-420,,,,,,,0x03,
12927,-746,673,71,2800,-630,-70,,,,,,,0x03,
12936,-743,696,70,-910,-1190,70,,,,,,,0x03,
12946,-738,695,73,-5040,-1470,-420,,,,,,,0x03,
12956,-737,672,77,-7630,-1750,-910,,,,,,,0x03,
12965,-737,635,74,-6860,-1750,-1050,,,,,,,0x03,
12975,-733,622,62,-2590,-1330,-1470,,,,,,,0x03,
12984,-737,652,68,2100,-1050,-1750,,,,,,,0x03,
12994,-737,697,78,3290,-1330,-1820,,,,,,,0x03,
13004,-736,713,79,770,-1820,-1610,,,,,,,0x03,
13013,-737,692,72,-3430,-2310,-1540,,,,,,,0x03,
13023,-737,663,70,-6230,-2800,-1330,,,,,,,0x03,
13033,-735,647,68,-6510,-2870,-1190,,,,,,,0x03,
13042,-737,646,67,-4900,-3010,-980,,,,,,,0x03,
13052,-740,642,76,-4270,-3080,-630,,,,,,,0x03,
13062,-734,642,79,-3080,-2940,-630,,,,,,,0x03,
13071,-725,653,86,-1960,-2450,-770,,,,,,,0x03,
13081,-732,658,78,-840,-2660,-1050,,,,,,,0x03,
13090,-745,659,72,-280,-3220,-840,,,,,,,0x03,
13100,-752,651,63,-1050,-3640,-840,,,,,,,0x03,
13110,-751,642,65,-2380,-3850,-910,,,,,,,0x03,
13119,-745,644,71,-3710,-4060,-700,,,,,,,0x03,
13129,-739,658,87,-5110,-4480,-630,,,,,,,0x03,
13139,-732,656,97,-6650,-4550,-490,,,,,,,0x03,
13148,-731,625,110,-7980,-3850,-280,,,,,,,0x03,
13158,-734,595,109,-6370,-2800,-560,,,,,,,0x03,
13168,-736,599,103,-1540,-1960,-1120,,,,,,,0x03,
13177,-743,628,91,2800,-1540,-1260,,,,,,,0x03,
13187,-745,650,92,3570,-1330,-1120,,,,,,,0x03,
13196,-746,654,90,1190,-1330,-770,,,,,,,0x03,
13206,-739,671,90,-280,-1400,-980,,,,,,,0x03,
13216,-734,681,94,-2030,-1820,-770,,,,,,,0x03,
13225,-733,662,95,-4550,-2240,-420,,,,,,,0x03,
13235,-733,636,86,-4970,-2030,-490,,,,,,,0x03,
13245,-731,646,81,-2030,-1540,-1120,,,,,,,0x03,
13254,-737,654,89,630,-1260,-910,,,,,,,0x03,
13264,-740,662,100,1540,-1120,-700,,,,,,,0x03,
13274,-734,667,107,2100,-420,-700,,,,,,,0x03,
13283,-737,652,112,1470,140,-560,,,,,,,0x03,
13293,-741,633,107,350,70,-630,,,,,,,0x03,
13303,-742,622,95,140,140,-560,,,,,,,0x03,
13312,-743,626,77,910,140,-490,,,,,,,0x03,
13322,-745,647,72,1190,-140,-70,,,,,,,0x03,
13331,-746,665,80,-350,-490,210,,,,,,,0x03,
13341,-742,671,95,-2030,-490,140,,,,,,,0x03,
13351,-735,660,103,-2380,-280,-140,,,,,,,0x03,
13360,-734,643,97,-1400,-210,-490,,,,,,,0x03,
13370,-739,639,89,280,-280,-770,,,,,,,0x03,
